block,practice,trial,change_interval_s,change_interval_frames,taps_start_time_during_fix,taps_end_time_during_fix,taps_start_loc_during_fix,taps_end_loc_during_fix,taps_on_lever_during_fix,taps_on_lever_frame_during_fix,taps_on_lever_s_during_fix,fix_xy,bar_orientation,target_xy,cti,rt,acc,time
1,True,1,0.577,34,[],[],"[(1162, 839)]",[],[1],[36],[0.6],"[640.0, 512.0]",horizontal,"(890.0, 762.0)",[1.3833333333333333],[0.557],1,0.373
1,True,2,1.017,61,[],[],"[(1190, 895)]",[],[1],[26],[0.43333333333333335],"[640.0, 512.0]",horizontal,"(890.0, 262.0)",[1.0666666666666667],[0.394],1,146.842
1,True,3,0.837,50,[],[],"[(1157, 901)]",[],[1],[37],[0.6166666666666667],"[640.0, 512.0]",horizontal,"(390.0, 762.0)",[1.6833333333333333],[0.574],1,2453.406
1,True,4,1.045,62,[],[],"[(1166, 876)]",[],[1],[34],[0.5666666666666667],"[640.0, 512.0]",horizontal,"(390.0, 762.0)",[1.3333333333333333],[0.522],1,2458.56
1,False,1,1.135,68,[],[],"[(1153, 887)]",[],[1],[51],[0.85],"[640.0, 512.0]",horizontal,"(390.0, 262.0)",[0.5833333333333334],[0.805],0,2463.557
1,False,2,0.791,47,[],[],"[(1151, 894)]",[],[1],[51],[0.85],"[640.0, 512.0]",vertical,"(890.0, 262.0)",[1.3833333333333333],[0.806],0,2467.976
1,False,3,0.667,40,[],[],"[(1111, 889)]",[],[1],[36],[0.6],"[640.0, 512.0]",horizontal,"(890.0, 762.0)",[0.8],[0.561],1,2473.74
1,False,4,0.941,56,[],[],"[(1147, 898)]",[],[1],[39],[0.65],"[640.0, 512.0]",horizontal,"(890.0, 762.0)",[0.55],[0.609],1,2479.165
1,False,5,0.572,34,[],[],"[(1094, 875)]",[],[1],[33],[0.55],"[640.0, 512.0]",horizontal,"(390.0, 262.0)",[1.2666666666666666],[0.508],1,2483.408
1,False,6,1.074,64,[],[],"[(1148, 884)]",[],[1],[35],[0.5833333333333334],"[640.0, 512.0]",vertical,"(890.0, 762.0)",[1.1666666666666667],[0.536],1,2487.639
1,False,7,0.555,33,[],[],"[(1117, 870)]",[],[1],[36],[0.6],"[640.0, 512.0]",vertical,"(890.0, 762.0)",[1.0],[0.562],1,2492.511
1,False,8,1.04,62,[],[],"[(1118, 902)]",[],[1],[44],[0.7333333333333333],"[640.0, 512.0]",vertical,"(390.0, 762.0)",[0.65],[0.687],1,2496.842
1,False,9,1.004,60,[],[],"[(1148, 881)]",[],[1],[34],[0.5666666666666667],"[640.0, 512.0]",horizontal,"(890.0, 762.0)",[0.8333333333333334],[0.527],1,2501.399
1,False,10,1.014,60,[],[],"[(1105, 862)]",[],[1],[36],[0.6],"[640.0, 512.0]",horizontal,"(890.0, 762.0)",[0.9166666666666666],[0.559],1,2505.873
1,False,11,0.866,51,[],[],"[(1143, 873)]",[],[1],[41],[0.6833333333333333],"[640.0, 512.0]",vertical,"(390.0, 762.0)",[0.9833333333333333],[0.643],1,2510.465
1,False,12,0.842,50,[],[],"[(1143, 861)]",[],[1],[32],[0.5333333333333333],"[640.0, 512.0]",vertical,"(390.0, 262.0)",[0.7833333333333333],[0.496],1,2515.039
1,False,13,1.193,71,[],[],"[(1191, 875)]",[],[1],"[51, 51]","[0.85, 0.85]","[640.0, 512.0]",horizontal,"(890.0, 762.0)",[1.6166666666666667],"[0.802, 0.802]",0,2519.234
1,False,14,1.043,62,[],[],"[(1098, 836)]",[],[1],[35],[0.5833333333333334],"[640.0, 512.0]",vertical,"(890.0, 762.0)",[1.15],[0.545],1,2524.942
1,False,15,0.864,51,[],[],"[(1153, 864)]",[],[1],[41],[0.6833333333333333],"[640.0, 512.0]",horizontal,"(890.0, 762.0)",[1.45],[0.647],1,2732.503
1,False,16,0.654,39,[],[],"[(1136, 867)]",[],[1],[36],[0.6],"[640.0, 512.0]",horizontal,"(890.0, 762.0)",[0.7833333333333333],[0.563],1,2737.827
1,False,17,1.078,64,[],[],"[(1117, 872)]",[],[1],[36],[0.6],"[640.0, 512.0]",horizontal,"(390.0, 762.0)",[1.2666666666666666],[0.556],1,2741.854
1,False,18,1.142,68,[],[],"[(1112, 873)]",[],[1],[36],[0.6],"[640.0, 512.0]",horizontal,"(890.0, 762.0)",[1.0333333333333332],[0.553],1,2746.694
1,False,19,0.837,50,[],[],"[(1144, 876)]",[],[1],[35],[0.5833333333333334],"[640.0, 512.0]",horizontal,"(890.0, 762.0)",[0.7666666666666666],[0.545],1,2751.476
1,False,20,1.188,71,[],[],"[(1155, 864)]",[],[1],[34],[0.5666666666666667],"[640.0, 512.0]",vertical,"(390.0, 262.0)",[1.45],[0.526],1,2755.689
1,False,21,0.904,54,[],[],"[(1098, 856)]",[],[1],[35],[0.5833333333333334],"[640.0, 512.0]",horizontal,"(890.0, 262.0)",[0.8166666666666667],[0.542],1,2760.821
1,False,22,0.82,49,[],[],"[(1154, 871)]",[],[1],[37],[0.6166666666666667],"[640.0, 512.0]",horizontal,"(390.0, 262.0)",[1.3],[0.573],1,2765.177
1,False,23,1.148,68,[],[],"[(1147, 864)]",[],[1],[35],[0.5833333333333334],"[640.0, 512.0]",vertical,"(890.0, 262.0)",[1.45],[0.541],1,2769.889
1,False,24,0.807,48,[],[],"[(1188, 870)]",[],[1],[],[],"[640.0, 512.0]",vertical,"(390.0, 762.0)",[],[0],0,2775.053
1,False,25,0.724,43,[],[],"[(1193, 865)]",[],[1],[33],[0.55],"[640.0, 512.0]",horizontal,"(890.0, 262.0)",[0.6833333333333333],[0.505],1,2776.91
1,False,26,0.668,40,[],[],"[(1130, 856)]",[],[1],[38],[0.6333333333333333],"[640.0, 512.0]",vertical,"(890.0, 262.0)",[0.5],[0.591],1,2781.192
1,False,27,0.973,58,[],[],"[(1142, 875)]",[],[1],[33],[0.55],"[640.0, 512.0]",horizontal,"(890.0, 762.0)",[1.15],[0.515],1,2785.084
1,False,28,0.854,51,[],[],"[(1093, 846)]",[],[1],[39],[0.65],"[640.0, 512.0]",vertical,"(890.0, 262.0)",[1.4],[0.615],1,2789.771
1,False,29,0.741,44,[],[],"[(1131, 885)]",[],[1],[34],[0.5666666666666667],"[640.0, 512.0]",vertical,"(390.0, 262.0)",[1.0],[0.522],1,2794.855
1,False,30,0.896,53,[],[],"[(1131, 886)]",[],[1],[39],[0.65],"[640.0, 512.0]",vertical,"(390.0, 262.0)",[0.7666666666666666],[0.609],1,2799.006
1,False,31,0.788,47,[],[],"[(1136, 889)]",[],[1],[35],[0.5833333333333334],"[640.0, 512.0]",vertical,"(390.0, 262.0)",[0.8333333333333334],[0.537],1,2803.16
1,False,32,0.857,51,[],[],"[(1117, 876)]",[],[1],[41],[0.6833333333333333],"[640.0, 512.0]",horizontal,"(390.0, 762.0)",[1.4333333333333333],[0.644],1,2807.441
1,False,33,1.056,63,[],[],"[(1099, 861)]",[],[1],[33],[0.55],"[640.0, 512.0]",vertical,"(390.0, 762.0)",[1.0833333333333333],[0.511],1,2812.426
1,False,34,1.119,67,[],[],"[(1093, 855)]",[],[1],[36],[0.6],"[640.0, 512.0]",horizontal,"(890.0, 262.0)",[1.4333333333333333],[0.557],1,2817.612
1,False,35,0.586,35,[],[],"[(1098, 826)]",[],[1],[39],[0.65],"[640.0, 512.0]",horizontal,"(390.0, 762.0)",[0.7],[0.614],1,2823.026
1,False,36,0.82,49,[],[],"[(1160, 860)]",[],[1],[51],[0.85],"[640.0, 512.0]",horizontal,"(890.0, 762.0)",[1.1],[0.804],0,2827.089
1,False,37,0.524,31,[],[],"[(1067, 879)]",[],[1],[35],[0.5833333333333334],"[640.0, 512.0]",horizontal,"(390.0, 262.0)",[1.2],[0.542],1,2831.777
1,False,38,1.02,61,[],[],"[(1111, 875)]",[],[1],[35],[0.5833333333333334],"[640.0, 512.0]",horizontal,"(390.0, 262.0)",[1.7],[0.539],1,2836.842
1,False,39,1.012,60,[],[],"[(1190, 884)]",[],[1],[36],[0.6],"[640.0, 512.0]",vertical,"(390.0, 262.0)",[1.3166666666666667],[0.563],1,2842.096
1,False,40,0.996,59,[],[],"[(1082, 885)]",[],[1],[37],[0.6166666666666667],"[640.0, 512.0]",horizontal,"(890.0, 762.0)",[1.0333333333333332],[0.576],1,2847.065
1,False,41,0.755,45,[],[],"[(1111, 852)]",[],[1],[9],[0.15],"[640.0, 512.0]",horizontal,"(390.0, 762.0)",[1.1],[0.116],1,3318.192
1,False,42,0.7,42,[],[],"[(1150, 779)]",[],[1],[],[],"[640.0, 512.0]",vertical,"(390.0, 262.0)",[],[0],0,3322.187
1,False,43,0.91,54,[],[],"[(1163, 872)]",[],[1],[31],[0.5166666666666666],"[640.0, 512.0]",vertical,"(890.0, 762.0)",[1.6],[0.473],1,3324.366
1,False,44,1.19,71,[],[],"[(1136, 859)]",[],[1],[35],[0.5833333333333334],"[640.0, 512.0]",horizontal,"(890.0, 762.0)",[1.4666666666666666],[0.546],1,3329.323
1,False,45,0.971,58,[],[],"[(1166, 886)]",[],[1],[45],[0.75],"[640.0, 512.0]",vertical,"(390.0, 262.0)",[0.6333333333333333],[0.704],1,3334.541
1,False,46,1.191,71,[],[],"[(1156, 871)]",[],[1],[34],[0.5666666666666667],"[640.0, 512.0]",vertical,"(890.0, 262.0)",[1.3],[0.528],1,3338.939
1,False,47,0.535,32,[],[],"[(1193, 859)]",[],[1],[43],[0.7166666666666667],"[640.0, 512.0]",horizontal,"(390.0, 762.0)",[0.5666666666666667],[0.678],1,3343.96
1,False,48,0.978,58,[],[],"[(1166, 930)]",[],[1],[35],[0.5833333333333334],"[640.0, 512.0]",vertical,"(890.0, 762.0)",[1.3333333333333333],[0.538],1,3347.788
1,False,49,0.819,49,[],[],"[(1131, 870)]",[],[1],[33],[0.55],"[640.0, 512.0]",vertical,"(390.0, 762.0)",[1.3666666666666667],[0.511],1,3352.64
1,False,50,1.113,66,[],[],"[(225, 875), (1178, 872)]",[],"[0, 1]",[46],[0.7666666666666666],"[640.0, 512.0]",vertical,"(390.0, 262.0)",[1.0833333333333333],[0.716],1,3357.41
1,False,51,0.505,30,[],[],"[(1153, 873)]",[],[1],[51],[0.85],"[640.0, 512.0]",vertical,"(390.0, 262.0)",[0.7],[0.809],0,3364.057
1,False,52,0.956,57,[],[3405810],"[(1227, 674), (837, 583), (763, 757), (428, 221), (534, 192), (781, 255), (1080, 312), (714, 888), (1142, 880)]","[(1154, 896)]","[0, 0, 0, 0, 0, 0, 0, 0, 1]","[57, 51]","[0.95, 0.85]","[640.0, 512.0]",horizontal,"(890.0, 262.0)",[1.0333333333333332],"[0, 0.81]",0,3368.016
1,False,53,0.693,41,[],[],"[(743, 495), (873, 341), (1172, 855)]",[],"[0, 0, 1]",[42],[0.7],"[640.0, 512.0]",vertical,"(890.0, 762.0)",[1.5333333333333332],[0.657],1,3381.343
1,False,54,1.106,66,[],[],"[(1178, 856)]",[],[1],[34],[0.5666666666666667],"[640.0, 512.0]",horizontal,"(390.0, 762.0)",[0.7333333333333333],[0.526],1,3389.795
1,False,55,0.831,49,[],[],"[(1170, 860)]",[],[1],[38],[0.6333333333333333],"[640.0, 512.0]",horizontal,"(390.0, 762.0)",[0.8166666666666667],[0.586],1,3394.388
1,False,56,1.167,70,[],[],"[(1170, 875)]",[],[1],[34],[0.5666666666666667],"[640.0, 512.0]",vertical,"(890.0, 262.0)",[0.5666666666666667],[0.525],1,3398.611
1,False,57,1.151,69,[],[],"[(1204, 871)]",[],[1],[34],[0.5666666666666667],"[640.0, 512.0]",horizontal,"(890.0, 262.0)",[1.05],[0.523],1,3402.831
1,False,58,1.086,65,[],[],"[(800, 375), (1122, 889)]",[],"[0, 1]",[36],[0.6],"[640.0, 512.0]",horizontal,"(890.0, 762.0)",[0.9],[0.555],1,3407.538
1,False,59,0.67,40,[],[],"[(1166, 875)]",[],[1],[34],[0.5666666666666667],"[640.0, 512.0]",horizontal,"(390.0, 762.0)",[1.2666666666666666],[0.527],1,3412.146
1,False,60,0.895,53,[],[],"[(753, 433), (1167, 874)]",[],"[0, 1]",[34],[0.5666666666666667],"[640.0, 512.0]",horizontal,"(890.0, 762.0)",[1.6666666666666667],[0.524],1,3416.541
2,False,61,1.048,62,[],[],"[(1192, 864)]",[],[1],[36],[0.6],"[640.0, 512.0]",vertical,"(390.0, 262.0)",[0.95],[0.558],1,3424.438
2,False,62,0.881,52,[],[],"[(1164, 845)]",[],[1],[38],[0.6333333333333333],"[640.0, 512.0]",horizontal,"(390.0, 262.0)",[1.0666666666666667],[0.591],1,3429.011
2,False,63,0.673,40,[],[],"[(1147, 874)]",[],[1],[40],[0.6666666666666666],"[640.0, 512.0]",horizontal,"(390.0, 762.0)",[1.3],[0.625],1,3437.457
2,False,64,0.572,34,[],[],"[(1196, 864)]",[],[1],[36],[0.6],"[640.0, 512.0]",horizontal,"(390.0, 762.0)",[0.7333333333333333],[0.56],1,3442.112
2,False,65,0.526,31,[],[],"[(1172, 903)]",[],[1],[51],[0.85],"[640.0, 512.0]",vertical,"(390.0, 262.0)",[0.8166666666666667],[0.81],0,3445.949
2,False,66,1.009,60,[],[],"[(1135, 872)]",[],[1],[35],[0.5833333333333334],"[640.0, 512.0]",horizontal,"(390.0, 262.0)",[1.45],[0.543],1,3450.161
2,False,67,0.776,46,[],[],"[(1129, 869)]",[],[1],[51],[0.85],"[640.0, 512.0]",vertical,"(390.0, 762.0)",[1.6666666666666667],[0.802],0,3462.157
2,False,68,1.194,71,[],[],"[(1115, 839)]",[],[1],[31],[0.5166666666666666],"[640.0, 512.0]",horizontal,"(890.0, 262.0)",[1.35],[0.48],1,3467.411
2,False,69,0.992,59,[],[],"[(1157, 879)]",[],[1],[51],[0.85],"[640.0, 512.0]",vertical,"(390.0, 262.0)",[0.7333333333333333],[0.8],0,3472.779
2,False,70,0.768,46,[],[],"[(1176, 853)]",[],[1],[41],[0.6833333333333333],"[640.0, 512.0]",vertical,"(390.0, 762.0)",[1.3166666666666667],[0.638],1,3477.179
2,False,71,0.695,41,[],[],"[(1108, 847)]",[],[1],[32],[0.5333333333333333],"[640.0, 512.0]",horizontal,"(390.0, 262.0)",[1.5],[0.492],1,3483.686
2,False,72,1.143,68,[],[],"[(1178, 845)]",[],[1],[51],[0.85],"[640.0, 512.0]",vertical,"(890.0, 262.0)",[1.6333333333333333],[0.811],0,3488.391
2,False,73,0.505,30,[],[],"[(1159, 859)]",[],[1],[33],[0.55],"[640.0, 512.0]",vertical,"(890.0, 262.0)",[0.7666666666666666],[0.51],1,3494.013
2,False,74,0.516,30,[],[],"[(1209, 843)]",[],[1],[51],[0.85],"[640.0, 512.0]",vertical,"(390.0, 262.0)",[0.7333333333333333],[0.804],0,3497.964
2,False,75,0.676,40,[],[],"[(1144, 859)]",[],[1],[37],[0.6166666666666667],"[640.0, 512.0]",vertical,"(890.0, 762.0)",[1.0166666666666666],[0.579],1,3502.174
2,False,76,0.758,45,[],[],"[(1154, 890)]",[],[1],[50],[0.8333333333333334],"[640.0, 512.0]",horizontal,"(390.0, 262.0)",[1.6166666666666667],[0.789],1,3507.509
2,False,77,1.139,68,[],[],"[(1115, 864)]",[],[1],[51],[0.85],"[640.0, 512.0]",vertical,"(890.0, 262.0)",[1.4333333333333333],[0.802],0,3512.688
2,False,78,1.077,64,[],[],"[(1153, 870)]",[],[1],[50],[0.8333333333333334],"[640.0, 512.0]",horizontal,"(390.0, 262.0)",[1.0333333333333332],[0.786],1,3518.256
2,False,79,0.715,42,[],[],"[(1154, 873)]",[],[1],[51],[0.85],"[640.0, 512.0]",horizontal,"(390.0, 262.0)",[0.85],[0.806],0,3523.086
2,False,80,0.751,45,[],[],"[(1178, 895)]",[],[1],[34],[0.5666666666666667],"[640.0, 512.0]",vertical,"(890.0, 262.0)",[0.5166666666666666],[0.53],1,3527.651
2,False,81,0.728,43,[],[],"[(1172, 890)]",[],[1],[35],[0.5833333333333334],"[640.0, 512.0]",vertical,"(890.0, 762.0)",[1.1166666666666667],[0.545],1,3543.072
2,False,82,0.521,31,[],[],"[(1178, 877)]",[],[1],[51],[0.85],"[640.0, 512.0]",vertical,"(890.0, 262.0)",[1.0333333333333332],[0.803],0,3547.541
2,False,83,1.058,63,[],[],"[(1136, 846)]",[],[1],[38],[0.6333333333333333],"[640.0, 512.0]",vertical,"(890.0, 762.0)",[1.2333333333333334],[0.591],1,3552.003
2,False,84,0.925,55,[],[],"[(731, 553), (1136, 870)]",[],"[0, 1]",[44],[0.7333333333333333],"[640.0, 512.0]",horizontal,"(890.0, 762.0)",[1.35],[0.69],1,3557.178
2,False,85,0.897,53,[],[],"[(1152, 865)]",[],[1],[41],[0.6833333333333333],"[640.0, 512.0]",horizontal,"(390.0, 262.0)",[1.3333333333333333],[0.638],1,3564.567
2,False,86,0.975,58,[],[],"[(1105, 859)]",[],[1],[36],[0.6],"[640.0, 512.0]",vertical,"(390.0, 762.0)",[0.5666666666666667],[0.554],1,3569.458
2,False,87,0.955,57,[],[],"[(1142, 881)]",[],[1],[40],[0.6666666666666666],"[640.0, 512.0]",horizontal,"(890.0, 762.0)",[1.0166666666666666],[0.635],1,3573.501
2,False,88,0.515,30,[],[],"[(1123, 854)]",[],[1],[34],[0.5666666666666667],"[640.0, 512.0]",horizontal,"(390.0, 262.0)",[1.6],[0.522],1,3578.061
2,False,89,0.617,37,[],[],"[(1134, 865)]",[],[1],[34],[0.5666666666666667],"[640.0, 512.0]",horizontal,"(390.0, 262.0)",[0.9833333333333333],[0.524],1,3582.724
2,False,90,0.61,36,[],[],"[(1137, 872)]",[],[1],[38],[0.6333333333333333],"[640.0, 512.0]",horizontal,"(390.0, 762.0)",[1.2],[0.59],1,3586.826
2,False,91,1.104,66,[],[],"[(1140, 868)]",[],[1],[38],[0.6333333333333333],"[640.0, 512.0]",vertical,"(890.0, 762.0)",[0.7666666666666666],[0.589],1,3591.346
2,False,92,0.54,32,[],[],"[(1168, 869)]",[],[1],[34],[0.5666666666666667],"[640.0, 512.0]",horizontal,"(890.0, 762.0)",[1.05],[0.541],1,3595.939
2,False,93,1.099,65,[],[],"[(1123, 880)]",[],[1],[36],[0.6],"[640.0, 512.0]",horizontal,"(890.0, 762.0)",[0.8666666666666667],[0.56],1,3600.03
2,False,94,0.839,50,[],[],"[(1108, 860)]",[],[1],[34],[0.5666666666666667],"[640.0, 512.0]",vertical,"(390.0, 262.0)",[0.6166666666666667],[0.524],1,3604.396
2,False,95,0.614,36,[],[],"[(1142, 865)]",[],[1],[35],[0.5833333333333334],"[640.0, 512.0]",vertical,"(390.0, 262.0)",[0.8666666666666667],[0.544],1,3608.384
2,False,96,0.633,37,[],[],"[(1148, 879)]",[],[1],[32],[0.5333333333333333],"[640.0, 512.0]",horizontal,"(390.0, 262.0)",[1.0833333333333333],[0.487],1,3612.451
2,False,97,1.053,63,[],[],"[(1172, 860)]",[],[1],[29],[0.48333333333333334],"[640.0, 512.0]",vertical,"(890.0, 762.0)",[1.4333333333333333],[0.449],1,3616.587
2,False,98,0.639,38,[],[],"[(1115, 897)]",[],[1],[32],[0.5333333333333333],"[640.0, 512.0]",horizontal,"(390.0, 262.0)",[1.2666666666666666],[0.49],1,3621.436
2,False,99,0.953,57,[],[],"[(1130, 865)]",[],[1],[],[],"[640.0, 512.0]",horizontal,"(890.0, 262.0)",[],[0],0,3625.874
2,False,100,0.767,46,[],[],"[(1136, 868)]",[],[1],[29],[0.48333333333333334],"[640.0, 512.0]",horizontal,"(890.0, 262.0)",[1.4],[0.439],1,3630.054
2,False,101,1.185,71,[],[],"[(1153, 869)]",[],[1],[39],[0.65],"[640.0, 512.0]",horizontal,"(390.0, 762.0)",[0.6666666666666666],[0.614],1,3634.791
2,False,102,1.18,70,[],[],"[(1148, 872)]",[],[1],[36],[0.6],"[640.0, 512.0]",horizontal,"(390.0, 762.0)",[1.2833333333333332],[0.567],1,3639.177
2,False,103,0.628,37,[],[],"[(1130, 879)]",[],[1],[39],[0.65],"[640.0, 512.0]",horizontal,"(390.0, 762.0)",[1.05],[0.604],1,3644.301
2,False,104,0.941,56,[],[],"[(1137, 877)]",[],[1],[33],[0.55],"[640.0, 512.0]",vertical,"(890.0, 762.0)",[1.1666666666666667],[0.509],1,3648.639
2,False,105,1.117,67,[],[],"[(1118, 868)]",[],[1],[39],[0.65],"[640.0, 512.0]",horizontal,"(390.0, 762.0)",[0.6666666666666666],[0.612],1,3653.308
2,False,106,0.927,55,[],[],"[(1116, 860)]",[],[1],[32],[0.5333333333333333],"[640.0, 512.0]",horizontal,"(390.0, 762.0)",[1.4166666666666667],[0.495],1,3657.63
2,False,107,1.066,63,[],[],"[(1148, 882)]",[],[1],[43],[0.7166666666666667],"[640.0, 512.0]",vertical,"(890.0, 262.0)",[0.5166666666666666],[0.672],1,3662.51
2,False,108,0.839,50,[],[],"[(1118, 882)]",[],[1],[40],[0.6666666666666666],"[640.0, 512.0]",horizontal,"(390.0, 762.0)",[1.1166666666666667],[0.621],1,3666.747
2,False,109,0.539,32,[],[],"[(1142, 874)]",[],[1],[34],[0.5666666666666667],"[640.0, 512.0]",horizontal,"(890.0, 762.0)",[0.9166666666666666],[0.53],1,3671.205
2,False,110,0.79,47,[],[],"[(1119, 881)]",[],[1],[33],[0.55],"[640.0, 512.0]",vertical,"(890.0, 262.0)",[0.8333333333333334],[0.505],1,3675.209
2,False,111,0.558,33,[],[],"[(1125, 881)]",[],[1],[35],[0.5833333333333334],"[640.0, 512.0]",vertical,"(890.0, 262.0)",[0.65],[0.539],1,3679.474
2,False,112,1.112,66,[],[],"[(1147, 863)]",[],[1],[35],[0.5833333333333334],"[640.0, 512.0]",vertical,"(390.0, 762.0)",[1.1833333333333333],[0.54],1,3683.272
2,False,113,1.194,71,[],[],"[(1118, 860)]",[],[1],[32],[0.5333333333333333],"[640.0, 512.0]",vertical,"(890.0, 262.0)",[1.3333333333333333],[0.493],1,3688.104
2,False,114,0.795,47,[],[],"[(1148, 857)]",[],[1],[35],[0.5833333333333334],"[640.0, 512.0]",horizontal,"(390.0, 262.0)",[0.9666666666666667],[0.544],1,3692.948
2,False,115,0.915,54,[],[],"[(1143, 884)]",[],[1],[35],[0.5833333333333334],"[640.0, 512.0]",vertical,"(390.0, 262.0)",[1.0166666666666666],[0.541],1,3697.154
2,False,116,0.742,44,[],[],"[(1130, 859)]",[],[1],[30],[0.5],"[640.0, 512.0]",vertical,"(890.0, 262.0)",[1.25],[0.457],1,3701.493
2,False,117,0.585,35,[],[],"[(1153, 865)]",[],[1],[35],[0.5833333333333334],"[640.0, 512.0]",vertical,"(390.0, 262.0)",[0.8],[0.542],1,3705.84
2,False,118,1.054,63,[],[],"[(1120, 855)]",[],[1],[31],[0.5166666666666666],"[640.0, 512.0]",horizontal,"(390.0, 262.0)",[1.5666666666666667],[0.475],1,3709.669
2,False,119,1.188,71,[],[],"[(1120, 865)]",[],[1],[34],[0.5666666666666667],"[640.0, 512.0]",horizontal,"(390.0, 762.0)",[0.9166666666666666],[0.53],1,3714.806
2,False,120,0.699,41,[],[],"[(1119, 874)]",[],[1],[33],[0.55],"[640.0, 512.0]",vertical,"(890.0, 262.0)",[0.7333333333333333],[0.513],1,3719.426
3,False,121,0.903,54,[],[],"[(1100, 863)]",[],[1],[36],[0.6],"[640.0, 512.0]",horizontal,"(890.0, 762.0)",[0.9666666666666667],[0.557],1,3723.34
3,False,122,0.739,44,[],[],"[(1145, 876)]",[],[1],[37],[0.6166666666666667],"[640.0, 512.0]",horizontal,"(890.0, 762.0)",[1.2],[0.571],1,3727.718
3,False,123,0.755,45,[],[],"[(1129, 874)]",[],[1],[35],[0.5833333333333334],"[640.0, 512.0]",horizontal,"(890.0, 762.0)",[1.6833333333333333],[0.539],1,3732.229
3,False,124,0.685,41,[],[],"[(1144, 889)]",[],[1],[37],[0.6166666666666667],"[640.0, 512.0]",horizontal,"(890.0, 762.0)",[0.7833333333333333],[0.577],1,3737.291
3,False,125,0.611,36,[],[],"[(1136, 880)]",[],[1],[42],[0.7],"[640.0, 512.0]",horizontal,"(890.0, 762.0)",[1.6333333333333333],[0.66],1,3741.247
3,False,126,1.122,67,[],[],"[(1148, 859)]",[],[1],[36],[0.6],"[640.0, 512.0]",horizontal,"(390.0, 762.0)",[0.5833333333333334],[0.555],1,3746.163
3,False,127,0.539,32,[],[],"[(1136, 874)]",[],[1],[32],[0.5333333333333333],"[640.0, 512.0]",vertical,"(390.0, 262.0)",[1.2166666666666666],[0.495],1,3750.322
3,False,128,1.2,72,[],[],"[(1148, 887)]",[],[1],[35],[0.5833333333333334],"[640.0, 512.0]",vertical,"(390.0, 762.0)",[1.0333333333333332],[0.541],1,3754.577
3,False,129,0.612,36,[],[],"[(1142, 868)]",[],[1],[34],[0.5666666666666667],"[640.0, 512.0]",horizontal,"(890.0, 762.0)",[1.3],[0.522],1,3759.291
3,False,130,1.14,68,[],[],"[(1075, 874)]",[],[1],[34],[0.5666666666666667],"[640.0, 512.0]",horizontal,"(890.0, 762.0)",[1.6],[0.523],1,3763.679
3,False,131,0.95,57,[],[],"[(1148, 862)]",[],[1],[33],[0.55],"[640.0, 512.0]",vertical,"(890.0, 762.0)",[0.7666666666666666],[0.509],1,3769.526
3,False,132,0.671,40,[],[],"[(1093, 885)]",[],[1],[35],[0.5833333333333334],"[640.0, 512.0]",vertical,"(890.0, 262.0)",[0.85],[0.546],1,3774.831
3,False,133,0.745,44,[],[],"[(1142, 884)]",[],[1],[33],[0.55],"[640.0, 512.0]",vertical,"(890.0, 762.0)",[0.8333333333333334],[0.51],1,3778.856
3,False,134,1.05,63,[],[],"[(1114, 860)]",[],[1],[34],[0.5666666666666667],"[640.0, 512.0]",horizontal,"(390.0, 262.0)",[1.0333333333333332],[0.523],1,3783.061
3,False,135,0.866,51,[],[],"[(1080, 880)]",[],[1],[33],[0.55],"[640.0, 512.0]",horizontal,"(890.0, 262.0)",[1.05],[0.514],1,3787.491
3,False,136,1.127,67,[],[],"[(1142, 888)]",[],[1],[38],[0.6333333333333333],"[640.0, 512.0]",horizontal,"(390.0, 262.0)",[0.7666666666666666],[0.588],1,3794.527
3,False,137,1.166,69,[],[],"[(1118, 877)]",[],[1],[41],[0.6833333333333333],"[640.0, 512.0]",horizontal,"(890.0, 762.0)",[1.0833333333333333],[0.639],1,3798.963
3,False,138,0.678,40,[],[],"[(1143, 877)]",[],[1],[33],[0.55],"[640.0, 512.0]",horizontal,"(390.0, 262.0)",[1.1666666666666667],[0.51],1,3803.721
3,False,139,0.795,47,[],[],"[(1146, 879)]",[],[1],[32],[0.5333333333333333],"[640.0, 512.0]",vertical,"(390.0, 262.0)",[1.4166666666666667],[0.497],1,3808.029
3,False,140,0.675,40,[],[],"[(1115, 873)]",[],[1],[34],[0.5666666666666667],"[640.0, 512.0]",horizontal,"(890.0, 262.0)",[0.8666666666666667],[0.522],1,3812.728
3,False,141,0.893,53,[],[],"[(1142, 883)]",[],[1],[31],[0.5166666666666666],"[640.0, 512.0]",horizontal,"(390.0, 262.0)",[1.3666666666666667],[0.472],1,3816.83
3,False,142,1.001,60,[],[],"[(1120, 876)]",[],[1],[35],[0.5833333333333334],"[640.0, 512.0]",horizontal,"(890.0, 762.0)",[1.55],[0.539],1,3821.362
3,False,143,1.177,70,[],[],"[(1160, 865)]",[],[1],[34],[0.5666666666666667],"[640.0, 512.0]",horizontal,"(890.0, 762.0)",[0.6666666666666666],[0.521],1,3826.527
3,False,144,0.537,32,[],[],"[(1153, 883)]",[],[1],[35],[0.5833333333333334],"[640.0, 512.0]",vertical,"(890.0, 262.0)",[1.6833333333333333],[0.541],1,3830.776
3,False,145,1.06,63,[],[],"[(1154, 865)]",[],[1],[38],[0.6333333333333333],"[640.0, 512.0]",vertical,"(390.0, 762.0)",[1.0],[0.608],1,3835.43
3,False,146,0.861,51,[],[],"[(1151, 877)]",[],[1],[32],[0.5333333333333333],"[640.0, 512.0]",horizontal,"(890.0, 262.0)",[0.9833333333333333],[0.488],1,3840.093
3,False,147,0.985,59,[],[],"[(1163, 874)]",[],[1],[32],[0.5333333333333333],"[640.0, 512.0]",horizontal,"(390.0, 262.0)",[0.9833333333333333],[0.493],1,3844.438
3,False,148,0.766,45,[],[],"[(1136, 873)]",[],[1],[41],[0.6833333333333333],"[640.0, 512.0]",horizontal,"(390.0, 262.0)",[0.8833333333333333],[0.642],1,3848.86
3,False,149,0.892,53,[],[],"[(1136, 864)]",[],[1],[32],[0.5333333333333333],"[640.0, 512.0]",vertical,"(890.0, 262.0)",[1.1333333333333333],[0.491],1,3853.154
3,False,150,1.104,66,[],[],"[(1160, 874)]",[],[1],[40],[0.6666666666666666],"[640.0, 512.0]",horizontal,"(390.0, 762.0)",[1.1666666666666667],[0.621],1,3857.709
3,False,151,0.778,46,[],[],"[(1196, 878)]",[],[1],[34],[0.5666666666666667],"[640.0, 512.0]",horizontal,"(390.0, 762.0)",[0.8333333333333334],[0.521],1,3862.669
3,False,152,0.877,52,[],[],"[(1105, 882)]",[],[1],[33],[0.55],"[640.0, 512.0]",vertical,"(890.0, 762.0)",[1.1333333333333333],[0.51],1,3866.808
3,False,153,1.113,66,[],[],"[(1123, 864)]",[],[1],[50],[0.8333333333333334],"[640.0, 512.0]",vertical,"(390.0, 262.0)",[0.9333333333333333],[0.787],1,3871.311
3,False,154,0.766,45,[],[],"[(1137, 872)]",[],[1],[33],[0.55],"[640.0, 512.0]",horizontal,"(890.0, 262.0)",[0.55],[0.508],1,3876.126
3,False,155,0.924,55,[],[],"[(1113, 864)]",[],[1],[35],[0.5833333333333334],"[640.0, 512.0]",horizontal,"(390.0, 262.0)",[1.2666666666666666],[0.539],1,3879.859
3,False,156,0.694,41,[],[],"[(1117, 864)]",[],[1],[31],[0.5166666666666666],"[640.0, 512.0]",horizontal,"(890.0, 262.0)",[1.3666666666666667],[0.472],1,3884.49
3,False,157,0.983,58,[],[],"[(1140, 860)]",[],[1],[32],[0.5333333333333333],"[640.0, 512.0]",vertical,"(890.0, 262.0)",[1.0666666666666667],[0.496],1,3888.957
3,False,158,0.792,47,[],[],"[(1191, 877)]",[],[1],[34],[0.5666666666666667],"[640.0, 512.0]",horizontal,"(390.0, 762.0)",[0.5833333333333334],[0.521],1,3893.492
3,False,159,0.703,42,[],[],"[(1147, 884)]",[],[1],[41],[0.6833333333333333],"[640.0, 512.0]",vertical,"(890.0, 262.0)",[1.4],[0.636],1,3897.387
3,False,160,1.085,65,[],[],"[(1139, 879)]",[],[1],[36],[0.6],"[640.0, 512.0]",horizontal,"(390.0, 262.0)",[0.6],[0.551],1,3902.21
3,False,161,1.127,67,[],[],"[(1146, 865)]",[],[1],[36],[0.6],"[640.0, 512.0]",vertical,"(390.0, 762.0)",[1.2166666666666666],[0.555],1,3906.543
3,False,162,0.597,35,[],[],"[(1136, 862)]",[],[1],[39],[0.65],"[640.0, 512.0]",vertical,"(890.0, 262.0)",[1.65],[0.599],1,3911.34
3,False,163,0.995,59,[],[],"[(1117, 870)]",[],[1],[35],[0.5833333333333334],"[640.0, 512.0]",vertical,"(390.0, 762.0)",[1.5666666666666667],[0.54],1,3916.231
3,False,164,0.515,30,[],[],"[(1117, 870)]",[],[1],[36],[0.6],"[640.0, 512.0]",horizontal,"(890.0, 762.0)",[1.5666666666666667],[0.554],1,3921.165
3,False,165,1.034,62,[],[],"[(1123, 876)]",[],[1],[36],[0.6],"[640.0, 512.0]",vertical,"(890.0, 262.0)",[0.6833333333333333],[0.561],1,3925.8
3,False,166,0.551,33,[],[],"[(1138, 876)]",[],[1],[35],[0.5833333333333334],"[640.0, 512.0]",horizontal,"(890.0, 262.0)",[0.8],[0.535],1,3930.052
3,False,167,1.088,65,[],[],"[(1111, 884)]",[],[1],[42],[0.7],"[640.0, 512.0]",vertical,"(390.0, 762.0)",[1.2666666666666666],[0.657],1,3933.977
3,False,168,0.72,43,[],[],"[(1142, 882)]",[],[1],[34],[0.5666666666666667],"[640.0, 512.0]",horizontal,"(890.0, 762.0)",[0.7166666666666667],[0.524],1,3938.908
3,False,169,1.011,60,[],[],"[(1139, 874)]",[],[1],[34],[0.5666666666666667],"[640.0, 512.0]",vertical,"(390.0, 762.0)",[1.5],[0.524],1,3942.849
3,False,170,0.602,36,[],[],"[(1117, 884)]",[],[1],[39],[0.65],"[640.0, 512.0]",horizontal,"(890.0, 762.0)",[1.2833333333333332],[0.601],1,3947.746
3,False,171,0.602,36,[],[],"[(1148, 869)]",[],[1],[35],[0.5833333333333334],"[640.0, 512.0]",horizontal,"(890.0, 262.0)",[1.1666666666666667],[0.535],1,3952.124
3,False,172,1.16,69,[],[],"[(1158, 884)]",[],[1],[35],[0.5833333333333334],"[640.0, 512.0]",vertical,"(890.0, 762.0)",[1.0833333333333333],[0.539],1,3956.502
3,False,173,0.505,30,[],[],"[(1164, 875)]",[],[1],[37],[0.6166666666666667],"[640.0, 512.0]",horizontal,"(390.0, 762.0)",[0.6],[0.574],1,3961.254
3,False,174,1.024,61,[],[],"[(1118, 865)]",[],[1],[34],[0.5666666666666667],"[640.0, 512.0]",horizontal,"(390.0, 762.0)",[1.3],[0.522],1,3964.953
3,False,175,0.98,58,[],[],"[(1118, 869)]",[],[1],[35],[0.5833333333333334],"[640.0, 512.0]",vertical,"(390.0, 262.0)",[1.45],[0.539],1,3969.773
3,False,176,0.505,30,[],[],"[(1148, 865)]",[],[1],[37],[0.6166666666666667],"[640.0, 512.0]",horizontal,"(390.0, 262.0)",[1.2],[0.572],1,3974.652
3,False,177,0.855,51,[],[],"[(1137, 874)]",[],[1],[44],[0.7333333333333333],"[640.0, 512.0]",vertical,"(390.0, 762.0)",[1.2833333333333332],[0.685],1,3978.948
3,False,178,0.923,55,[],[],"[(1118, 864)]",[],[1],[38],[0.6333333333333333],"[640.0, 512.0]",vertical,"(890.0, 262.0)",[1.6166666666666667],[0.583],1,3983.73
3,False,179,1.021,61,[],[],"[(1136, 865)]",[],[1],[31],[0.5166666666666666],"[640.0, 512.0]",vertical,"(390.0, 262.0)",[0.6166666666666667],[0.476],1,3988.729
3,False,180,0.802,48,[],[],"[(1140, 879)]",[],[1],[35],[0.5833333333333334],"[640.0, 512.0]",vertical,"(890.0, 762.0)",[1.6166666666666667],[0.55],1,3992.836
4,False,181,1.163,69,[],[],"[(1142, 876)]",[],[1],[34],[0.5666666666666667],"[640.0, 512.0]",vertical,"(890.0, 262.0)",[1.1333333333333333],[0.523],1,3997.74
4,False,182,0.779,46,[],[],"[(1146, 879)]",[],[1],[36],[0.6],"[640.0, 512.0]",vertical,"(390.0, 762.0)",[0.5666666666666667],[0.554],1,4002.494
4,False,183,0.663,39,[],[],"[(1142, 865)]",[],[1],[35],[0.5833333333333334],"[640.0, 512.0]",horizontal,"(390.0, 262.0)",[1.6333333333333333],[0.539],1,4006.424
4,False,184,0.865,51,[],[],"[(1151, 865)]",[],[1],[32],[0.5333333333333333],"[640.0, 512.0]",horizontal,"(390.0, 262.0)",[0.5333333333333333],[0.488],1,4011.268
4,False,185,0.903,54,[],[],"[(1154, 870)]",[],[1],[38],[0.6333333333333333],"[640.0, 512.0]",vertical,"(890.0, 762.0)",[0.8333333333333334],[0.588],1,4015.068
4,False,186,1.191,71,[],[],"[(1142, 875)]",[],[1],[42],[0.7],"[640.0, 512.0]",horizontal,"(390.0, 262.0)",[0.7],[0.655],1,4019.258
4,False,187,0.861,51,[],[],"[(1117, 877)]",[],[1],[40],[0.6666666666666666],"[640.0, 512.0]",horizontal,"(390.0, 262.0)",[0.95],[0.616],1,4023.771
4,False,188,0.881,52,[],[],"[(1117, 870)]",[],[1],[43],[0.7166666666666667],"[640.0, 512.0]",vertical,"(890.0, 762.0)",[1.0833333333333333],[0.672],1,4028.239
4,False,189,0.629,37,[],[],"[(1142, 864)]",[],[1],[36],[0.6],"[640.0, 512.0]",vertical,"(390.0, 762.0)",[0.85],[0.557],1,4032.83
4,False,190,1.031,61,[],[],"[(1120, 871)]",[],[1],[35],[0.5833333333333334],"[640.0, 512.0]",horizontal,"(890.0, 262.0)",[1.3],[0.539],1,4036.854
4,False,191,0.6,36,[],[],"[(1148, 889)]",[],[1],[32],[0.5333333333333333],"[640.0, 512.0]",vertical,"(390.0, 262.0)",[1.2333333333333334],[0.492],1,4041.586
4,False,192,0.534,32,[],[],"[(1127, 868)]",[],[1],[38],[0.6333333333333333],"[640.0, 512.0]",horizontal,"(890.0, 262.0)",[0.8666666666666667],[0.595],1,4045.781
4,False,193,1.199,71,[],[],"[(1123, 870)]",[],[1],[32],[0.5333333333333333],"[640.0, 512.0]",vertical,"(890.0, 262.0)",[0.5333333333333333],[0.49],1,4049.908
4,False,194,0.966,57,[],[],"[(1105, 868)]",[],[1],[37],[0.6166666666666667],"[640.0, 512.0]",horizontal,"(890.0, 762.0)",[1.1333333333333333],[0.571],1,4054.062
4,False,195,0.622,37,[],[],"[(1170, 887)]",[],[1],[40],[0.6666666666666666],"[640.0, 512.0]",vertical,"(390.0, 762.0)",[0.5],[0.62],1,4058.678
4,False,196,0.634,38,[],[],"[(1100, 883)]",[],[1],[34],[0.5666666666666667],"[640.0, 512.0]",horizontal,"(890.0, 762.0)",[1.0166666666666666],[0.527],1,4062.255
4,False,197,0.793,47,[],[],"[(1172, 865)]",[],[1],[32],[0.5333333333333333],"[640.0, 512.0]",horizontal,"(390.0, 262.0)",[1.0166666666666666],[0.493],1,4067.507
4,False,198,1.109,66,[],[],"[(1105, 899)]",[],[1],[37],[0.6166666666666667],"[640.0, 512.0]",vertical,"(390.0, 762.0)",[0.5166666666666666],[0.568],1,4071.789
4,False,199,0.849,50,[],[],"[(1099, 883)]",[],[1],[34],[0.5666666666666667],"[640.0, 512.0]",horizontal,"(390.0, 762.0)",[1.5166666666666666],[0.52],1,4076.904
4,False,200,1.179,70,[],[],"[(1117, 884)]",[],[1],[34],[0.5666666666666667],"[640.0, 512.0]",horizontal,"(390.0, 262.0)",[1.3333333333333333],[0.521],1,4082.042
4,False,201,1.198,71,[],[],"[(1090, 886)]",[],[1],[32],[0.5333333333333333],"[640.0, 512.0]",vertical,"(390.0, 262.0)",[1.4333333333333333],[0.49],1,4087.259
4,False,202,1.068,64,[],[],"[(1142, 889)]",[],[1],[32],[0.5333333333333333],"[640.0, 512.0]",vertical,"(890.0, 262.0)",[1.2333333333333334],[0.486],1,4092.766
4,False,203,0.98,58,[],[],"[(1146, 923)]",[],[1],[34],[0.5666666666666667],"[640.0, 512.0]",horizontal,"(390.0, 762.0)",[0.7833333333333333],[0.523],1,4097.495
4,False,204,0.676,40,[],[],"[(1132, 878)]",[],[1],[33],[0.55],"[640.0, 512.0]",vertical,"(890.0, 262.0)",[1.5666666666666667],[0.511],1,4273.685
4,False,205,0.655,39,[],[],"[(1143, 889)]",[],[1],[31],[0.5166666666666666],"[640.0, 512.0]",horizontal,"(890.0, 262.0)",[1.0666666666666667],[0.471],1,4278.409
4,False,206,0.744,44,[],[],"[(1153, 872)]",[],[1],[31],[0.5166666666666666],"[640.0, 512.0]",horizontal,"(390.0, 262.0)",[0.6666666666666666],[0.472],1,4282.633
4,False,207,0.907,54,[],[],"[(1140, 875)]",[],[1],[33],[0.55],"[640.0, 512.0]",vertical,"(890.0, 762.0)",[0.5333333333333333],[0.509],1,4286.53
4,False,208,1.196,71,[],[],"[(1080, 866)]",[],[1],[34],[0.5666666666666667],"[640.0, 512.0]",vertical,"(890.0, 262.0)",[0.9166666666666666],[0.521],1,4290.496
4,False,209,0.613,36,[],[],"[(1160, 885)]",[],[1],[35],[0.5833333333333334],"[640.0, 512.0]",horizontal,"(390.0, 762.0)",[1.0166666666666666],[0.54],1,4294.943
4,False,210,0.763,45,[],[],"[(1149, 884)]",[],[1],[34],[0.5666666666666667],"[640.0, 512.0]",vertical,"(890.0, 262.0)",[0.75],[0.528],1,4337.006
4,False,211,1.045,62,[],[],"[(1142, 867)]",[],[1],[36],[0.6],"[640.0, 512.0]",horizontal,"(890.0, 762.0)",[1.4833333333333334],[0.561],1,4341.074
4,False,212,0.666,39,[],[],"[(1149, 884)]",[],[1],[26],[0.43333333333333335],"[640.0, 512.0]",horizontal,"(390.0, 262.0)",[1.6666666666666667],[0.393],1,4346.112
4,False,213,1.113,66,[],[],"[(1148, 879)]",[],[1],[35],[0.5833333333333334],"[640.0, 512.0]",horizontal,"(890.0, 762.0)",[1.5833333333333333],[0.544],1,4350.883
4,False,214,0.633,37,[],[],"[(1105, 884)]",[],[1],[39],[0.65],"[640.0, 512.0]",horizontal,"(890.0, 262.0)",[1.0833333333333333],[0.607],1,4356.045
4,False,215,0.888,53,[],[],"[(1148, 879)]",[],[1],[32],[0.5333333333333333],"[640.0, 512.0]",horizontal,"(890.0, 262.0)",[1.0333333333333332],[0.488],1,4360.434
4,False,216,1.024,61,[],[],"[(1151, 879)]",[],[1],[40],[0.6666666666666666],"[640.0, 512.0]",vertical,"(890.0, 762.0)",[0.6666666666666666],[0.621],1,4364.781
4,False,217,0.859,51,[],[],"[(1148, 875)]",[],[1],[42],[0.7],"[640.0, 512.0]",horizontal,"(890.0, 762.0)",[1.05],[0.659],1,4369.027
4,False,218,0.654,39,[],[],"[(1149, 875)]",[],[1],[37],[0.6166666666666667],"[640.0, 512.0]",horizontal,"(390.0, 762.0)",[1.6833333333333333],[0.578],1,4373.662
4,False,219,1.019,61,[],[],"[(1152, 873)]",[],[1],[34],[0.5666666666666667],"[640.0, 512.0]",horizontal,"(890.0, 262.0)",[1.6333333333333333],[0.526],1,4378.471
4,False,220,0.861,51,[],[],"[(1142, 870)]",[],[1],[34],[0.5666666666666667],"[640.0, 512.0]",horizontal,"(890.0, 262.0)",[1.35],[0.525],1,4383.629
4,False,221,0.67,40,[],[],"[(1148, 863)]",[],[1],[35],[0.5833333333333334],"[640.0, 512.0]",horizontal,"(390.0, 762.0)",[1.4166666666666667],[0.541],1,4388.295
4,False,222,0.861,51,[],[],"[(1122, 883)]",[],[1],[39],[0.65],"[640.0, 512.0]",horizontal,"(890.0, 262.0)",[1.3333333333333333],[0.614],1,4392.892
4,False,223,0.892,53,[],[],"[(1123, 884)]",[],[1],[39],[0.65],"[640.0, 512.0]",vertical,"(890.0, 762.0)",[1.5666666666666667],[0.612],1,4397.745
4,False,224,0.794,47,[],[],"[(1162, 870)]",[],[1],[35],[0.5833333333333334],"[640.0, 512.0]",vertical,"(390.0, 762.0)",[0.7333333333333333],[0.538],1,4402.83
4,False,225,1.071,64,[],[],"[(1146, 920)]",[],[1],[35],[0.5833333333333334],"[640.0, 512.0]",horizontal,"(890.0, 262.0)",[1.2],[0.542],1,4406.747
4,False,226,1.038,62,[],[],"[(1148, 875)]",[],[1],[36],[0.6],"[640.0, 512.0]",vertical,"(890.0, 762.0)",[1.2333333333333334],[0.565],1,4413.623
4,False,227,0.952,57,[],[],"[(1149, 879)]",[],[1],[41],[0.6833333333333333],"[640.0, 512.0]",horizontal,"(390.0, 262.0)",[0.8666666666666667],[0.639],1,4418.342
4,False,228,1.047,62,[],[],"[(1117, 879)]",[],[1],[33],[0.55],"[640.0, 512.0]",vertical,"(390.0, 262.0)",[1.1833333333333333],[0.509],1,4422.932
4,False,229,0.811,48,[],[],"[(1123, 884)]",[],[1],[38],[0.6333333333333333],"[640.0, 512.0]",vertical,"(890.0, 762.0)",[1.4],[0.587],1,4427.646
4,False,230,1.177,70,[],[],"[(1154, 890)]",[],[1],[42],[0.7],"[640.0, 512.0]",horizontal,"(890.0, 762.0)",[1.3],[0.659],1,4432.485
4,False,231,0.602,36,[],[],"[(1144, 881)]",[],[1],[34],[0.5666666666666667],"[640.0, 512.0]",horizontal,"(890.0, 762.0)",[0.7],[0.522],1,4437.597
4,False,232,0.704,42,[],[],"[(1135, 885)]",[],[1],[35],[0.5833333333333334],"[640.0, 512.0]",horizontal,"(390.0, 762.0)",[0.5],[0.542],1,4441.337
4,False,233,1.034,62,[],[],"[(1117, 879)]",[],[1],[39],[0.65],"[640.0, 512.0]",horizontal,"(390.0, 762.0)",[0.75],[0.605],1,4444.928
4,False,234,0.997,59,[],[],"[(1143, 870)]",[],[1],[36],[0.6],"[640.0, 512.0]",vertical,"(390.0, 262.0)",[0.9333333333333333],[0.552],1,4449.331
4,False,235,1.149,68,[],[],"[(1156, 879)]",[],[1],[31],[0.5166666666666666],"[640.0, 512.0]",horizontal,"(390.0, 262.0)",[0.7166666666666667],[0.474],1,4453.821
4,False,236,0.91,54,[],[],"[(1117, 879)]",[],[1],[34],[0.5666666666666667],"[640.0, 512.0]",vertical,"(390.0, 762.0)",[0.7333333333333333],[0.528],1,4458.119
4,False,237,0.85,51,[],[],"[(1183, 865)]",[],[1],[33],[0.55],"[640.0, 512.0]",horizontal,"(390.0, 262.0)",[1.2666666666666666],[0.517],1,4462.266
4,False,238,0.83,49,[],[],"[(1112, 889)]",[],[1],[40],[0.6666666666666666],"[640.0, 512.0]",vertical,"(390.0, 762.0)",[0.7],[0.62],1,4466.932
4,False,239,0.546,32,[],[],"[(1139, 907)]",[],[1],[36],[0.6],"[640.0, 512.0]",vertical,"(890.0, 762.0)",[1.2833333333333332],[0.555],1,4471.093
4,False,240,0.536,32,[],[],"[(1135, 872)]",[],[1],[35],[0.5833333333333334],"[640.0, 512.0]",vertical,"(890.0, 262.0)",[0.7166666666666667],[0.541],1,4634.948
5,False,241,0.78,46,[],[],"[(1140, 878)]",[],[1],[34],[0.5666666666666667],"[640.0, 512.0]",vertical,"(890.0, 262.0)",[0.7333333333333333],[0.524],1,4638.678
5,False,242,0.825,49,[],[],"[(1109, 884)]",[],[1],[34],[0.5666666666666667],"[640.0, 512.0]",horizontal,"(890.0, 262.0)",[0.8833333333333333],[0.528],1,4642.615
5,False,243,1.086,65,[],[],"[(1145, 870)]",[],[1],[31],[0.5166666666666666],"[640.0, 512.0]",vertical,"(890.0, 262.0)",[1.1333333333333333],[0.476],1,4646.837
5,False,244,1.082,64,[],[],"[(1134, 870)]",[],[1],[33],[0.55],"[640.0, 512.0]",horizontal,"(390.0, 762.0)",[1.45],[0.51],1,4651.36
5,False,245,0.737,44,[],[],"[(1142, 883)]",[],[1],[33],[0.55],"[640.0, 512.0]",horizontal,"(390.0, 262.0)",[0.9666666666666667],[0.504],1,4656.233
5,False,246,0.9,54,[],[],"[(1133, 901)]",[],[1],[32],[0.5333333333333333],"[640.0, 512.0]",horizontal,"(890.0, 262.0)",[0.9],[0.497],1,4660.419
5,False,247,0.871,52,[],[],"[(1137, 874)]",[],[1],[35],[0.5833333333333334],"[640.0, 512.0]",vertical,"(890.0, 762.0)",[0.7166666666666667],[0.544],1,4664.761
5,False,248,1.121,67,[],[],"[(1131, 897)]",[],[1],[33],[0.55],"[640.0, 512.0]",horizontal,"(390.0, 262.0)",[0.9333333333333333],[0.512],1,4668.81
5,False,249,0.723,43,[],[],"[(1152, 886)]",[],[1],[35],[0.5833333333333334],"[640.0, 512.0]",horizontal,"(390.0, 762.0)",[1.0666666666666667],[0.541],1,4688.828
5,False,250,0.601,36,[],[],"[(1136, 895)]",[],[1],[34],[0.5666666666666667],"[640.0, 512.0]",vertical,"(390.0, 762.0)",[1.0666666666666667],[0.525],1,4693.049
5,False,251,0.75,45,[],[],"[(1140, 889)]",[],[1],[34],[0.5666666666666667],"[640.0, 512.0]",vertical,"(890.0, 762.0)",[0.9333333333333333],[0.521],1,4697.134
5,False,252,0.753,45,[],[],"[(1143, 872)]",[],[1],[23],[0.3833333333333333],"[640.0, 512.0]",vertical,"(890.0, 262.0)",[0.6333333333333333],[0.345],1,4701.213
5,False,253,0.958,57,[],[],"[(1111, 898)]",[],[1],[35],[0.5833333333333334],"[640.0, 512.0]",vertical,"(390.0, 762.0)",[0.8833333333333333],[0.548],1,4704.931
5,False,254,0.937,56,[],[],"[(1140, 890)]",[],[1],[33],[0.55],"[640.0, 512.0]",horizontal,"(390.0, 262.0)",[1.4833333333333334],[0.509],1,4709.316
5,False,255,0.79,47,[],[],"[(1142, 887)]",[],[1],[37],[0.6166666666666667],"[640.0, 512.0]",horizontal,"(390.0, 262.0)",[1.45],[0.58],1,4714.197
5,False,256,1.184,71,[],[],"[(1123, 879)]",[],[1],[33],[0.55],"[640.0, 512.0]",vertical,"(390.0, 762.0)",[1.6833333333333333],[0.505],1,4718.88
5,False,257,0.698,41,[],[],"[(1123, 895)]",[],[1],[51],[0.85],"[640.0, 512.0]",vertical,"(390.0, 262.0)",[1.6166666666666667],[0.797],0,4724.128
5,False,258,0.853,51,[],[],"[(1113, 898)]",[],[1],[35],[0.5833333333333334],"[640.0, 512.0]",vertical,"(890.0, 262.0)",[0.8833333333333333],[0.543],1,4729.149
5,False,259,0.589,35,[],[],"[(1153, 866)]",[],[1],[17],[0.2833333333333333],"[640.0, 512.0]",horizontal,"(890.0, 262.0)",[0.95],[0.245],1,4733.914
5,False,260,0.748,44,[],[],"[(1152, 863)]",[],[1],[33],[0.55],"[640.0, 512.0]",vertical,"(390.0, 762.0)",[1.5333333333333332],[0.513],1,4737.65
5,False,261,0.832,49,[],[],"[(1112, 885)]",[],[1],[34],[0.5666666666666667],"[640.0, 512.0]",vertical,"(890.0, 262.0)",[0.8],[0.528],1,4742.369
5,False,262,0.888,53,[],[],"[(1149, 875)]",[],[1],[35],[0.5833333333333334],"[640.0, 512.0]",horizontal,"(890.0, 762.0)",[1.3333333333333333],[0.54],1,4746.431
5,False,263,0.864,51,[],[],"[(1180, 894)]",[],[1],[],[],"[640.0, 512.0]",vertical,"(390.0, 262.0)",[],[0],0,4751.117
5,False,264,1.122,67,[],[],"[(1133, 875)]",[],[1],[42],[0.7],"[640.0, 512.0]",vertical,"(390.0, 762.0)",[0.5166666666666666],[0.655],1,4754.916
5,False,265,0.577,34,[],[],"[(1144, 880)]",[],[1],[32],[0.5333333333333333],"[640.0, 512.0]",horizontal,"(390.0, 262.0)",[0.5333333333333333],[0.497],1,4759.632
5,False,266,0.883,52,[],[],"[(1155, 889)]",[],[1],[42],[0.7],"[640.0, 512.0]",horizontal,"(890.0, 262.0)",[1.25],[0.656],1,4763.176
5,False,267,0.647,38,[],[],"[(1123, 883)]",[],[1],[40],[0.6666666666666666],"[640.0, 512.0]",vertical,"(390.0, 762.0)",[0.9166666666666666],[0.634],1,4767.914
5,False,268,0.969,58,[],[],"[(1136, 874)]",[],[1],[32],[0.5333333333333333],"[640.0, 512.0]",vertical,"(390.0, 262.0)",[1.0],[0.491],1,4771.943
5,False,269,0.629,37,[],[],"[(1136, 891)]",[],[1],[28],[0.4666666666666667],"[640.0, 512.0]",horizontal,"(890.0, 262.0)",[0.75],[0.428],1,4776.353
5,False,270,0.877,52,[],[],"[(1150, 874)]",[],[1],[37],[0.6166666666666667],"[640.0, 512.0]",vertical,"(890.0, 762.0)",[1.0166666666666666],[0.574],1,4780.049
5,False,271,1.156,69,[],[],"[(1123, 881)]",[],[1],[29],[0.48333333333333334],"[640.0, 512.0]",vertical,"(390.0, 262.0)",[0.7166666666666667],[0.446],1,4784.549
5,False,272,0.577,34,[],[],"[(1115, 896)]",[],[1],[36],[0.6],"[640.0, 512.0]",horizontal,"(390.0, 762.0)",[1.6666666666666667],[0.56],1,4788.933
5,False,273,0.518,31,[],[],"[(1147, 890)]",[],[1],[37],[0.6166666666666667],"[640.0, 512.0]",horizontal,"(390.0, 762.0)",[1.0],[0.579],1,4793.719
5,False,274,1.127,67,[],[],"[(1136, 866)]",[],[1],[32],[0.5333333333333333],"[640.0, 512.0]",vertical,"(390.0, 262.0)",[0.7833333333333333],[0.493],1,4797.868
5,False,275,0.516,30,[],[],"[(1148, 871)]",[],[1],[34],[0.5666666666666667],"[640.0, 512.0]",vertical,"(890.0, 262.0)",[1.4333333333333333],[0.523],1,4802.13
5,False,276,0.753,45,[],[],"[(1117, 870)]",[],[1],[38],[0.6333333333333333],"[640.0, 512.0]",horizontal,"(890.0, 262.0)",[1.3333333333333333],[0.59],1,4806.584
5,False,277,0.623,37,[],[],"[(1118, 879)]",[],[1],[34],[0.5666666666666667],"[640.0, 512.0]",horizontal,"(390.0, 262.0)",[0.8666666666666667],[0.522],1,4811.213
5,False,278,0.989,59,[],[],"[(1160, 885)]",[],[1],[35],[0.5833333333333334],"[640.0, 512.0]",horizontal,"(390.0, 762.0)",[1.55],[0.545],1,4815.199
5,False,279,0.708,42,[],[],"[(1111, 871)]",[],[1],[35],[0.5833333333333334],"[640.0, 512.0]",horizontal,"(390.0, 762.0)",[0.7666666666666666],[0.538],1,4820.205
5,False,280,1.185,71,[],[],"[(1105, 892)]",[],[1],[],[],"[640.0, 512.0]",horizontal,"(390.0, 262.0)",[],[0],0,4824.179
5,False,281,1.096,65,[],[],"[(1123, 851)]",[],[1],[34],[0.5666666666666667],"[640.0, 512.0]",horizontal,"(390.0, 762.0)",[0.8166666666666667],[0.524],1,4827.925
5,False,282,1.119,67,[],[],"[(1128, 868)]",[],[1],[33],[0.55],"[640.0, 512.0]",vertical,"(390.0, 262.0)",[1.5],[0.509],1,4833.217
5,False,283,1.062,63,[],[],"[(1123, 868)]",[],[1],[42],[0.7],"[640.0, 512.0]",vertical,"(390.0, 762.0)",[0.8833333333333333],[0.658],1,4838.325
5,False,284,0.983,58,[],[],"[(1168, 874)]",[],[1],[35],[0.5833333333333334],"[640.0, 512.0]",vertical,"(890.0, 762.0)",[1.6666666666666667],[0.538],1,4842.806
5,False,285,0.812,48,[],[],"[(1093, 871)]",[],[1],[33],[0.55],"[640.0, 512.0]",vertical,"(890.0, 262.0)",[1.3],[0.504],1,4847.996
5,False,286,1.063,63,[],[],"[(1100, 868)]",[],[1],[38],[0.6333333333333333],"[640.0, 512.0]",horizontal,"(890.0, 262.0)",[1.1166666666666667],[0.581],1,4852.402
5,False,287,0.72,43,[],[],"[(1105, 883)]",[],[1],[31],[0.5166666666666666],"[640.0, 512.0]",horizontal,"(390.0, 262.0)",[1.5],[0.474],1,4857.11
5,False,288,1.17,70,[],[],"[(1148, 880)]",[],[1],[31],[0.5166666666666666],"[640.0, 512.0]",horizontal,"(390.0, 262.0)",[1.2666666666666666],[0.473],1,4861.74
5,False,289,0.837,50,[],[],"[(1157, 881)]",[],[1],[35],[0.5833333333333334],"[640.0, 512.0]",horizontal,"(890.0, 262.0)",[0.7],[0.54],1,4866.616
5,False,290,0.58,34,[],[],"[(1148, 881)]",[],[1],[34],[0.5666666666666667],"[640.0, 512.0]",horizontal,"(390.0, 762.0)",[0.6],[0.525],1,4870.601
5,False,291,0.976,58,[],[],"[(1148, 872)]",[],[1],[36],[0.6],"[640.0, 512.0]",vertical,"(390.0, 762.0)",[1.2],[0.559],1,4874.3
5,False,292,0.707,42,[],[],"[(1111, 866)]",[],[1],[35],[0.5833333333333334],"[640.0, 512.0]",vertical,"(890.0, 262.0)",[0.7333333333333333],[0.539],1,4878.916
5,False,293,0.812,48,[],[],"[(1142, 886)]",[],[1],[36],[0.6],"[640.0, 512.0]",horizontal,"(390.0, 762.0)",[1.5333333333333332],[0.558],1,4882.928
5,False,294,0.522,31,[],[],"[(1145, 870)]",[],[1],[31],[0.5166666666666666],"[640.0, 512.0]",vertical,"(890.0, 262.0)",[1.2],[0.475],1,4887.819
5,False,295,0.632,37,[],[],"[(1117, 872)]",[],[1],[33],[0.55],"[640.0, 512.0]",horizontal,"(390.0, 262.0)",[1.3],[0.504],1,4892.038
5,False,296,1.182,70,[],[],"[(1160, 871)]",[],[1],[36],[0.6],"[640.0, 512.0]",vertical,"(890.0, 762.0)",[1.4],[0.559],1,4896.684
5,False,297,1.044,62,[],[],"[(1140, 862)]",[],[1],[33],[0.55],"[640.0, 512.0]",vertical,"(390.0, 262.0)",[1.5833333333333333],[0.504],1,4901.784
5,False,298,0.883,52,[],[],"[(1116, 878)]",[],[1],[33],[0.55],"[640.0, 512.0]",horizontal,"(390.0, 262.0)",[1.4166666666666667],[0.509],1,4906.782
5,False,299,1.028,61,[],[],"[(1142, 869)]",[],[1],[34],[0.5666666666666667],"[640.0, 512.0]",horizontal,"(390.0, 762.0)",[1.1666666666666667],[0.525],1,4911.618
5,False,300,0.568,34,[],[],"[(1148, 867)]",[],[1],[31],[0.5166666666666666],"[640.0, 512.0]",vertical,"(890.0, 262.0)",[0.8833333333333333],[0.484],1,4916.29
6,False,301,0.663,39,[],[],"[(1160, 878)]",[],[1],[15],[0.25],"[640.0, 512.0]",horizontal,"(890.0, 262.0)",[1.3333333333333333],[0.214],1,4920.296
6,False,302,1.159,69,[],[],"[(1166, 871)]",[],[1],[36],[0.6],"[640.0, 512.0]",horizontal,"(890.0, 762.0)",[1.1166666666666667],[0.555],1,4924.398
6,False,303,0.588,35,[],[],"[(1112, 867)]",[],[1],[32],[0.5333333333333333],"[640.0, 512.0]",horizontal,"(890.0, 262.0)",[0.85],[0.494],1,4929.121
6,False,304,0.765,45,[],[],"[(1122, 865)]",[],[1],[],[],"[640.0, 512.0]",vertical,"(890.0, 262.0)",[],[0],0,4933.102
6,False,305,0.568,34,[],[],"[(1128, 865)]",[],[1],[34],[0.5666666666666667],"[640.0, 512.0]",horizontal,"(390.0, 262.0)",[0.75],[0.523],1,4937.429
6,False,306,0.965,57,[],[],"[(1136, 880)]",[],[1],[34],[0.5666666666666667],"[640.0, 512.0]",horizontal,"(390.0, 262.0)",[0.5333333333333333],[0.525],1,4941.339
6,False,307,1.181,70,[],[],"[(1143, 884)]",[],[1],[34],[0.5666666666666667],"[640.0, 512.0]",vertical,"(390.0, 762.0)",[1.2],[0.521],1,4945.317
6,False,308,0.618,37,[],[],"[(1093, 885)]",[],[1],[37],[0.6166666666666667],"[640.0, 512.0]",vertical,"(890.0, 262.0)",[0.9333333333333333],[0.568],1,4950.185
6,False,309,1.063,63,[],[],"[(1123, 896)]",[],[1],[34],[0.5666666666666667],"[640.0, 512.0]",horizontal,"(390.0, 762.0)",[0.8],[0.521],1,4954.229
6,False,310,0.804,48,[],[],"[(1123, 884)]",[],[1],[37],[0.6166666666666667],"[640.0, 512.0]",vertical,"(890.0, 262.0)",[0.8666666666666667],[0.575],1,4958.493
6,False,311,0.581,34,[],[],"[(1148, 865)]",[],[1],[31],[0.5166666666666666],"[640.0, 512.0]",vertical,"(890.0, 262.0)",[1.0166666666666666],[0.474],1,4962.822
6,False,312,1.15,69,[],[],"[(1142, 887)]",[],[1],[44],[0.7333333333333333],"[640.0, 512.0]",vertical,"(890.0, 262.0)",[0.65],[0.684],1,4966.832
6,False,313,1.061,63,[],[],"[(1117, 885)]",[],[1],[31],[0.5166666666666666],"[640.0, 512.0]",horizontal,"(890.0, 262.0)",[0.7],[0.474],1,4971.371
6,False,314,1.2,72,[],[],"[(1160, 854)]",[],[1],[36],[0.6],"[640.0, 512.0]",vertical,"(890.0, 262.0)",[0.7333333333333333],[0.559],1,4975.495
6,False,315,0.922,55,[],[],"[(1142, 873)]",[],[1],[34],[0.5666666666666667],"[640.0, 512.0]",vertical,"(890.0, 262.0)",[0.7666666666666666],[0.526],1,4979.93
6,False,316,0.788,47,[],[],"[(1147, 889)]",[],[1],[36],[0.6],"[640.0, 512.0]",horizontal,"(390.0, 762.0)",[1.45],[0.556],1,4984.03
6,False,317,0.571,34,[],[],"[(1142, 868)]",[],[1],[39],[0.65],"[640.0, 512.0]",horizontal,"(890.0, 762.0)",[0.9],[0.604],1,4988.729
6,False,318,0.887,53,[],[],"[(1131, 872)]",[],[1],[36],[0.6],"[640.0, 512.0]",vertical,"(890.0, 262.0)",[0.9833333333333333],[0.559],1,4992.694
6,False,319,0.707,42,[],[],"[(1129, 889)]",[],[1],[35],[0.5833333333333334],"[640.0, 512.0]",horizontal,"(390.0, 762.0)",[0.6],[0.541],1,4997.915
6,False,320,0.816,48,[],[],"[(1154, 865)]",[],[1],[33],[0.55],"[640.0, 512.0]",vertical,"(890.0, 262.0)",[1.4166666666666667],[0.509],1,5001.811
6,False,321,0.856,51,[],[],"[(1122, 875)]",[],[1],[37],[0.6166666666666667],"[640.0, 512.0]",vertical,"(390.0, 262.0)",[1.6666666666666667],[0.578],1,5006.584
6,False,322,0.698,41,[],[],"[(1124, 875)]",[],[1],[36],[0.6],"[640.0, 512.0]",horizontal,"(890.0, 762.0)",[1.4666666666666666],[0.564],1,5011.7
6,False,323,1.163,69,[],[],"[(1123, 860)]",[],[1],[36],[0.6],"[640.0, 512.0]",vertical,"(390.0, 762.0)",[1.2333333333333334],[0.551],1,5016.428
6,False,324,0.808,48,[],[],"[(1123, 890)]",[],[1],[42],[0.7],"[640.0, 512.0]",horizontal,"(390.0, 762.0)",[1.15],[0.65],1,5021.428
6,False,325,1.11,66,[],[],"[(1160, 869)]",[],[1],[35],[0.5833333333333334],"[640.0, 512.0]",horizontal,"(390.0, 762.0)",[0.7666666666666666],[0.544],1,5026.05
6,False,326,1.128,67,[],[],"[(1148, 862)]",[],[1],[34],[0.5666666666666667],"[640.0, 512.0]",horizontal,"(890.0, 262.0)",[1.1],[0.525],1,5030.446
6,False,327,0.655,39,[],[],"[(1148, 872)]",[],[1],[35],[0.5833333333333334],"[640.0, 512.0]",vertical,"(890.0, 762.0)",[1.45],[0.555],1,5035.198
6,False,328,0.587,35,[],[],"[(1118, 879)]",[],[1],[34],[0.5666666666666667],"[640.0, 512.0]",horizontal,"(390.0, 762.0)",[0.9],[0.522],1,5039.871
6,False,329,0.79,47,[],[],"[(1142, 886)]",[],[1],[33],[0.55],"[640.0, 512.0]",horizontal,"(390.0, 262.0)",[0.75],[0.506],1,5043.95
6,False,330,0.943,56,[],[],"[(1136, 882)]",[],[1],[],[],"[640.0, 512.0]",vertical,"(890.0, 262.0)",[],[0],0,5048.088
6,False,331,0.691,41,[],[],"[(1117, 860)]",[],[1],[34],[0.5666666666666667],"[640.0, 512.0]",vertical,"(390.0, 262.0)",[0.9833333333333333],[0.523],1,5052.344
6,False,332,0.532,31,[],[],"[(1173, 888)]",[],[1],[36],[0.6],"[640.0, 512.0]",horizontal,"(890.0, 262.0)",[0.7333333333333333],[0.556],1,5056.73
6,False,333,0.779,46,[],[],"[(1145, 865)]",[],[1],[38],[0.6333333333333333],"[640.0, 512.0]",vertical,"(890.0, 762.0)",[0.8],[0.588],1,5060.514
6,False,334,0.539,32,[],[],"[(1117, 879)]",[],[1],[37],[0.6166666666666667],"[640.0, 512.0]",vertical,"(390.0, 762.0)",[0.75],[0.572],1,5064.526
6,False,335,0.8,48,[],[],"[(1105, 882)]",[],[1],[32],[0.5333333333333333],"[640.0, 512.0]",horizontal,"(390.0, 262.0)",[0.7166666666666667],[0.488],1,5068.361
6,False,336,0.599,35,[],[],"[(1134, 903)]",[],[1],[36],[0.6],"[640.0, 512.0]",horizontal,"(390.0, 762.0)",[0.85],[0.559],1,5072.256
6,False,337,0.61,36,[],[],"[(1122, 860)]",[],[1],[33],[0.55],"[640.0, 512.0]",horizontal,"(390.0, 262.0)",[1.6833333333333333],[0.514],1,5076.178
6,False,338,0.937,56,[],[],"[(1146, 866)]",[],[1],[37],[0.6166666666666667],"[640.0, 512.0]",vertical,"(390.0, 762.0)",[0.8833333333333333],[0.573],1,5081.929
6,False,339,0.874,52,[],[],"[(1172, 888)]",[],[1],[],[],"[640.0, 512.0]",vertical,"(390.0, 262.0)",[],[0],0,5086.234
6,False,340,0.538,32,[],[],"[(1140, 870)]",[],[1],[38],[0.6333333333333333],"[640.0, 512.0]",horizontal,"(890.0, 262.0)",[0.8166666666666667],[0.588],1,5090.041
6,False,341,1.158,69,[],[],"[(1144, 876)]",[],[1],[41],[0.6833333333333333],"[640.0, 512.0]",vertical,"(890.0, 762.0)",[0.9833333333333333],[0.638],1,5094.269
6,False,342,0.765,45,[],[],"[(1124, 871)]",[],[1],[43],[0.7166666666666667],"[640.0, 512.0]",vertical,"(890.0, 262.0)",[0.5666666666666667],[0.668],1,5098.944
6,False,343,0.794,47,[],[],"[(1142, 871)]",[],[1],[34],[0.5666666666666667],"[640.0, 512.0]",vertical,"(390.0, 762.0)",[1.05],[0.526],1,5102.98
6,False,344,0.634,38,[],[],"[(1120, 874)]",[],[1],[37],[0.6166666666666667],"[640.0, 512.0]",horizontal,"(390.0, 762.0)",[1.5166666666666666],[0.573],1,5107.249
6,False,345,0.835,50,[],[],"[(1141, 892)]",[],[1],[37],[0.6166666666666667],"[640.0, 512.0]",horizontal,"(890.0, 262.0)",[0.5],[0.573],1,5112.024
6,False,346,1.152,69,[],[],"[(1133, 886)]",[],[1],[34],[0.5666666666666667],"[640.0, 512.0]",vertical,"(390.0, 762.0)",[1.45],[0.525],1,5115.832
6,False,347,0.804,48,[],[],"[(1117, 875)]",[],[1],[36],[0.6],"[640.0, 512.0]",horizontal,"(890.0, 262.0)",[1.5833333333333333],[0.558],1,5120.913
6,False,348,1.181,70,[],[],"[(1129, 884)]",[],[1],[38],[0.6333333333333333],"[640.0, 512.0]",horizontal,"(890.0, 762.0)",[1.2],[0.588],1,5125.897
6,False,349,0.971,58,[],[],"[(1163, 863)]",[],[1],[34],[0.5666666666666667],"[640.0, 512.0]",horizontal,"(890.0, 262.0)",[1.4333333333333333],[0.527],1,5130.831
6,False,350,0.827,49,[],[],"[(1143, 860)]",[],[1],[35],[0.5833333333333334],"[640.0, 512.0]",horizontal,"(890.0, 762.0)",[1.5666666666666667],[0.542],1,5135.767
6,False,351,1.186,71,[],[],"[(1142, 872)]",[],[1],[33],[0.55],"[640.0, 512.0]",vertical,"(890.0, 762.0)",[1.6833333333333333],[0.51],1,5140.657
6,False,352,1.025,61,[],[],"[(1142, 863)]",[],[1],[32],[0.5333333333333333],"[640.0, 512.0]",horizontal,"(390.0, 262.0)",[1.5],[0.491],1,5145.968
6,False,353,0.819,49,[],[],"[(1149, 873)]",[],[1],[37],[0.6166666666666667],"[640.0, 512.0]",vertical,"(390.0, 762.0)",[1.1333333333333333],[0.569],1,5150.867
6,False,354,0.542,32,[],[],"[(1142, 869)]",[],[1],[33],[0.55],"[640.0, 512.0]",horizontal,"(890.0, 262.0)",[1.05],[0.508],1,5155.263
6,False,355,0.625,37,[],[],"[(1162, 872)]",[],[1],[33],[0.55],"[640.0, 512.0]",horizontal,"(390.0, 262.0)",[1.4833333333333334],[0.509],1,5159.261
6,False,356,1.164,69,[],[],"[(1184, 875)]",[],[1],[35],[0.5833333333333334],"[640.0, 512.0]",vertical,"(390.0, 762.0)",[1.15],[0.546],1,5163.829
6,False,357,1.065,63,[],[],"[(1121, 896)]",[],[1],[33],[0.55],"[640.0, 512.0]",vertical,"(890.0, 262.0)",[0.6333333333333333],[0.504],1,5168.676
6,False,358,0.653,39,[],[],"[(1136, 865)]",[],[1],[30],[0.5],"[640.0, 512.0]",horizontal,"(390.0, 262.0)",[1.3833333333333333],[0.459],1,5172.773
6,False,359,0.603,36,[],[],"[(1142, 892)]",[],[1],[34],[0.5666666666666667],"[640.0, 512.0]",vertical,"(390.0, 762.0)",[1.2166666666666666],[0.521],1,5178.001
6,False,360,0.583,34,[],[],"[(1127, 889)]",[],[1],[36],[0.6],"[640.0, 512.0]",horizontal,"(890.0, 762.0)",[0.6333333333333333],[0.555],1,5182.401
7,False,361,1.164,69,[],[],"[(1165, 895)]",[],[1],[40],[0.6666666666666666],"[640.0, 512.0]",vertical,"(890.0, 262.0)",[0.6333333333333333],[0.624],1,5186.249
7,False,362,0.745,44,[],[],"[(1156, 863)]",[],[1],[33],[0.55],"[640.0, 512.0]",horizontal,"(890.0, 262.0)",[0.7166666666666667],[0.51],1,5190.71
7,False,363,1.153,69,[],[],"[(1158, 863)]",[],[1],[37],[0.6166666666666667],"[640.0, 512.0]",vertical,"(390.0, 762.0)",[0.5833333333333334],[0.573],1,5194.578
7,False,364,0.763,45,[],[],"[(1156, 875)]",[],[1],[31],[0.5166666666666666],"[640.0, 512.0]",horizontal,"(890.0, 262.0)",[1.6666666666666667],[0.476],1,5198.871
7,False,365,0.507,30,[],[],"[(1150, 889)]",[],[1],[35],[0.5833333333333334],"[640.0, 512.0]",horizontal,"(390.0, 262.0)",[1.1666666666666667],[0.54],1,5203.647
7,False,366,0.689,41,[],[],"[(1144, 879)]",[],[1],[33],[0.55],"[640.0, 512.0]",horizontal,"(890.0, 262.0)",[0.6666666666666666],[0.509],1,5207.816
7,False,367,0.884,53,[],[],"[(1160, 882)]",[],[1],[35],[0.5833333333333334],"[640.0, 512.0]",horizontal,"(890.0, 762.0)",[1.65],[0.544],1,5211.678
7,False,368,0.612,36,[],[],"[(1160, 879)]",[],[1],[35],[0.5833333333333334],"[640.0, 512.0]",horizontal,"(890.0, 262.0)",[1.35],[0.546],1,5216.709
7,False,369,1.154,69,[],[],"[(1136, 882)]",[],[1],[33],[0.55],"[640.0, 512.0]",horizontal,"(890.0, 262.0)",[1.0166666666666666],[0.515],1,5221.138
7,False,370,1.068,64,[],[],"[(1183, 884)]",[],[1],[35],[0.5833333333333334],"[640.0, 512.0]",vertical,"(390.0, 762.0)",[1.25],[0.537],1,5225.997
7,False,371,1.176,70,[],[],"[(1160, 890)]",[],[1],[39],[0.65],"[640.0, 512.0]",horizontal,"(390.0, 762.0)",[1.1666666666666667],[0.609],1,5230.742
7,False,372,0.547,32,[],[],"[(1164, 877)]",[],[1],[36],[0.6],"[640.0, 512.0]",horizontal,"(390.0, 762.0)",[1.6666666666666667],[0.557],1,5235.561
7,False,373,1.051,63,[],[],"[(1128, 886)]",[],[1],[40],[0.6666666666666666],"[640.0, 512.0]",horizontal,"(390.0, 762.0)",[1.4666666666666666],[0.62],1,5240.414
7,False,374,0.831,49,[],[],"[(1140, 873)]",[],[1],[33],[0.55],"[640.0, 512.0]",horizontal,"(390.0, 262.0)",[1.55],[0.509],1,5246.64
7,False,375,0.684,41,[],[],"[(1136, 875)]",[],[1],[39],[0.65],"[640.0, 512.0]",vertical,"(390.0, 762.0)",[1.2333333333333334],[0.606],1,5251.522
7,False,376,0.779,46,[],[],"[(1142, 889)]",[],[1],[30],[0.5],"[640.0, 512.0]",vertical,"(390.0, 262.0)",[1.2],[0.459],1,5256.078
7,False,377,0.73,43,[],[],"[(1190, 866)]",[],[1],[41],[0.6833333333333333],"[640.0, 512.0]",vertical,"(890.0, 762.0)",[0.85],[0.637],1,5260.547
7,False,378,1.142,68,[],[],"[(1155, 877)]",[],[1],[32],[0.5333333333333333],"[640.0, 512.0]",vertical,"(890.0, 262.0)",[1.4166666666666667],[0.488],1,5264.749
7,False,379,1.184,71,[],[],"[(1152, 875)]",[],[1],[34],[0.5666666666666667],"[640.0, 512.0]",horizontal,"(390.0, 762.0)",[0.7833333333333333],[0.524],1,5269.718
7,False,380,0.997,59,[],[],"[(1192, 870)]",[],[1],[51],[0.85],"[640.0, 512.0]",horizontal,"(390.0, 262.0)",[1.3666666666666667],[0.804],0,5274.106
7,False,381,1.072,64,[],[],"[(1141, 894)]",[],[1],[43],[0.7166666666666667],"[640.0, 512.0]",vertical,"(390.0, 262.0)",[1.0833333333333333],[0.673],1,5279.368
7,False,382,0.871,52,[],[],"[(1148, 880)]",[],[1],[35],[0.5833333333333334],"[640.0, 512.0]",horizontal,"(890.0, 262.0)",[0.6],[0.537],1,5299.637
7,False,383,1.044,62,[],[],"[(1156, 866)]",[],[1],[36],[0.6],"[640.0, 512.0]",vertical,"(890.0, 762.0)",[1.3166666666666667],[0.557],1,5303.583
7,False,384,0.813,48,[],[],"[(1187, 860)]",[],[1],[34],[0.5666666666666667],"[640.0, 512.0]",vertical,"(390.0, 762.0)",[1.55],[0.531],1,5308.468
7,False,385,0.53,31,[],[],"[(1144, 861)]",[],[1],[34],[0.5666666666666667],"[640.0, 512.0]",horizontal,"(390.0, 762.0)",[0.9],[0.527],1,5313.382
7,False,386,0.922,55,[],[],"[(1140, 867)]",[],[1],[34],[0.5666666666666667],"[640.0, 512.0]",vertical,"(390.0, 262.0)",[1.6833333333333333],[0.525],1,5317.291
7,False,387,0.548,32,[],[],"[(1190, 870)]",[],[1],[33],[0.55],"[640.0, 512.0]",vertical,"(390.0, 262.0)",[0.9166666666666666],[0.511],1,5322.296
7,False,388,0.661,39,[],[],"[(1123, 874)]",[],[1],[33],[0.55],"[640.0, 512.0]",vertical,"(890.0, 262.0)",[1.2333333333333334],[0.506],1,5326.317
7,False,389,1.114,66,[],[],"[(1188, 865)]",[],[1],[36],[0.6],"[640.0, 512.0]",horizontal,"(890.0, 762.0)",[0.7333333333333333],[0.558],1,5330.783
7,False,390,1.104,66,[],[],"[(1146, 870)]",[],[1],[35],[0.5833333333333334],"[640.0, 512.0]",horizontal,"(390.0, 262.0)",[1.3],[0.551],1,5335.194
7,False,391,0.571,34,[],[],"[(1136, 859)]",[],[1],[39],[0.65],"[640.0, 512.0]",vertical,"(890.0, 262.0)",[0.65],[0.613],1,5340.113
7,False,392,0.969,58,[],[],"[(1141, 872)]",[],[1],[17],[0.2833333333333333],"[640.0, 512.0]",horizontal,"(390.0, 762.0)",[0.9333333333333333],[0.245],1,5344.144
7,False,393,1.049,62,[],[],"[(1161, 871)]",[],[1],[35],[0.5833333333333334],"[640.0, 512.0]",vertical,"(390.0, 762.0)",[0.5333333333333333],[0.541],1,5348.423
7,False,394,1.073,64,[],[],"[(1148, 855)]",[],[1],[37],[0.6166666666666667],"[640.0, 512.0]",horizontal,"(390.0, 762.0)",[1.2166666666666666],[0.573],1,5352.483
7,False,395,0.988,59,[],[],"[(1166, 876)]",[],[1],[31],[0.5166666666666666],"[640.0, 512.0]",vertical,"(890.0, 262.0)",[0.5666666666666667],[0.477],1,5357.21
7,False,396,1.068,64,[],[],"[(1160, 863)]",[],[1],[43],[0.7166666666666667],"[640.0, 512.0]",horizontal,"(890.0, 762.0)",[1.1166666666666667],[0.666],1,5361.132
7,False,397,1.186,71,[],[],"[(1144, 865)]",[],[1],[34],[0.5666666666666667],"[640.0, 512.0]",vertical,"(890.0, 262.0)",[1.1],[0.525],1,5365.91
7,False,398,1.198,71,[],[],"[(1169, 874)]",[],[1],[41],[0.6833333333333333],"[640.0, 512.0]",horizontal,"(890.0, 762.0)",[0.7],[0.642],1,5370.732
7,False,399,0.64,38,[],[],"[(1164, 874)]",[],[1],[34],[0.5666666666666667],"[640.0, 512.0]",horizontal,"(890.0, 262.0)",[1.0666666666666667],[0.523],1,5375.151
7,False,400,0.953,57,[],[],"[(1136, 870)]",[],[1],[33],[0.55],"[640.0, 512.0]",vertical,"(890.0, 262.0)",[1.6833333333333333],[0.507],1,5379.506
7,False,401,0.819,49,[],[],"[(1178, 870)]",[],[1],[37],[0.6166666666666667],"[640.0, 512.0]",vertical,"(890.0, 762.0)",[1.1333333333333333],[0.572],1,5384.747
7,False,402,0.836,50,[],[],"[(1154, 871)]",[],[1],[50],[0.8333333333333334],"[640.0, 512.0]",horizontal,"(390.0, 262.0)",[0.5],[0.787],1,5389.309
7,False,403,1.088,65,[],[],"[(1198, 855)]",[],[1],[34],[0.5666666666666667],"[640.0, 512.0]",horizontal,"(890.0, 262.0)",[0.7333333333333333],[0.53],1,5393.363
7,False,404,0.906,54,[],[],"[(1166, 870)]",[],[1],[35],[0.5833333333333334],"[640.0, 512.0]",vertical,"(390.0, 762.0)",[0.85],[0.54],1,5397.707
7,False,405,0.727,43,[],[],"[(1163, 885)]",[],[1],[38],[0.6333333333333333],"[640.0, 512.0]",horizontal,"(890.0, 262.0)",[1.6833333333333333],[0.588],1,5401.983
7,False,406,0.55,33,[],[],"[(1190, 868)]",[],[1],[39],[0.65],"[640.0, 512.0]",horizontal,"(390.0, 762.0)",[0.8],[0.611],1,5406.923
7,False,407,0.906,54,[],[],"[(1153, 879)]",[],[1],[34],[0.5666666666666667],"[640.0, 512.0]",horizontal,"(390.0, 262.0)",[0.8],[0.526],1,5410.758
7,False,408,0.791,47,[],[],"[(1168, 887)]",[],[1],[34],[0.5666666666666667],"[640.0, 512.0]",horizontal,"(890.0, 262.0)",[1.6],[0.518],1,5414.956
7,False,409,1.027,61,[],[],"[(1178, 869)]",[],[1],[35],[0.5833333333333334],"[640.0, 512.0]",horizontal,"(890.0, 762.0)",[0.95],[0.543],1,5419.83
7,False,410,1.067,64,[],[],"[(1151, 863)]",[],[1],[34],[0.5666666666666667],"[640.0, 512.0]",vertical,"(890.0, 762.0)",[1.2],[0.525],1,5424.383
7,False,411,0.952,57,[],[],"[(1148, 869)]",[],[1],[34],[0.5666666666666667],"[640.0, 512.0]",horizontal,"(890.0, 262.0)",[0.8833333333333333],[0.527],1,5429.142
7,False,412,1.128,67,[],[],"[(1202, 874)]",[],[1],[48],[0.8],"[640.0, 512.0]",vertical,"(390.0, 262.0)",[0.7666666666666666],[0.75],1,5433.472
7,False,413,0.72,43,[],[],"[(1172, 871)]",[],[1],[35],[0.5833333333333334],"[640.0, 512.0]",horizontal,"(890.0, 762.0)",[0.7666666666666666],[0.544],1,5438.047
7,False,414,1.009,60,[],[],"[(1166, 875)]",[],[1],[37],[0.6166666666666667],"[640.0, 512.0]",horizontal,"(390.0, 262.0)",[1.4333333333333333],[0.571],1,5442.105
7,False,415,0.976,58,[],[],"[(1196, 874)]",[],[1],[35],[0.5833333333333334],"[640.0, 512.0]",horizontal,"(390.0, 762.0)",[1.2166666666666666],[0.548],1,5447.044
7,False,416,0.642,38,[],[],"[(1159, 879)]",[],[1],[32],[0.5333333333333333],"[640.0, 512.0]",vertical,"(390.0, 262.0)",[1.6666666666666667],[0.491],1,5451.714
7,False,417,1.12,67,[],[],"[(1159, 875)]",[],[1],[44],[0.7333333333333333],"[640.0, 512.0]",horizontal,"(390.0, 762.0)",[1.4166666666666667],[0.684],1,5456.569
7,False,418,1.021,61,[],[],"[(1130, 875)]",[],[1],[44],[0.7333333333333333],"[640.0, 512.0]",vertical,"(890.0, 762.0)",[1.35],[0.689],1,5461.817
7,False,419,1.168,70,[],[],"[(1163, 864)]",[],[1],[35],[0.5833333333333334],"[640.0, 512.0]",vertical,"(390.0, 762.0)",[1.4],[0.539],1,5466.816
7,False,420,0.962,57,[],[],"[(1162, 865)]",[],[1],[35],[0.5833333333333334],"[640.0, 512.0]",vertical,"(390.0, 762.0)",[1.5833333333333333],[0.542],1,5471.868
8,False,421,0.676,40,[],[],"[(1183, 874)]",[],[1],[36],[0.6],"[640.0, 512.0]",horizontal,"(890.0, 762.0)",[1.05],[0.554],1,5476.967
8,False,422,0.933,55,[],[],"[(1154, 888)]",[],[1],[35],[0.5833333333333334],"[640.0, 512.0]",vertical,"(390.0, 262.0)",[0.55],[0.549],1,5481.179
8,False,423,1.018,61,[],[],"[(1179, 865)]",[],[1],[37],[0.6166666666666667],"[640.0, 512.0]",horizontal,"(890.0, 262.0)",[0.8333333333333334],[0.571],1,5485.317
8,False,424,0.941,56,[],[],"[(1198, 866)]",[],[1],[36],[0.6],"[640.0, 512.0]",vertical,"(390.0, 762.0)",[1.2333333333333334],[0.557],1,5489.718
8,False,425,0.642,38,[],[],"[(1161, 865)]",[],[1],[36],[0.6],"[640.0, 512.0]",vertical,"(890.0, 762.0)",[0.7833333333333333],[0.559],1,5494.319
8,False,426,0.745,44,[],[],"[(1139, 884)]",[],[1],[38],[0.6333333333333333],"[640.0, 512.0]",horizontal,"(890.0, 762.0)",[1.6166666666666667],[0.594],1,5498.224
8,False,427,0.628,37,[],[],"[(1172, 900)]",[],[1],[35],[0.5833333333333334],"[640.0, 512.0]",horizontal,"(890.0, 762.0)",[0.6666666666666666],[0.537],1,5503.102
8,False,428,0.767,46,[],[],"[(1127, 903)]",[],[1],[33],[0.55],"[640.0, 512.0]",vertical,"(390.0, 762.0)",[1.5333333333333332],[0.513],1,5557.891
8,False,429,0.549,32,[],[],"[(1153, 873)]",[],[1],[34],[0.5666666666666667],"[640.0, 512.0]",horizontal,"(890.0, 762.0)",[1.6166666666666667],[0.524],1,5564.234
8,False,430,0.805,48,[],[],"[(1147, 879)]",[],[1],[37],[0.6166666666666667],"[640.0, 512.0]",vertical,"(390.0, 262.0)",[1.1166666666666667],[0.572],1,5568.849
8,False,431,0.989,59,[],[],"[(1149, 865)]",[],[1],[39],[0.65],"[640.0, 512.0]",horizontal,"(890.0, 762.0)",[0.9166666666666666],[0.612],1,5573.235
8,False,432,1.019,61,[],[],"[(1151, 880)]",[],[1],[40],[0.6666666666666666],"[640.0, 512.0]",vertical,"(890.0, 762.0)",[1.3166666666666667],[0.623],1,5577.761
8,False,433,0.572,34,[],[],"[(1155, 875)]",[],[1],[35],[0.5833333333333334],"[640.0, 512.0]",vertical,"(390.0, 262.0)",[0.5833333333333334],[0.544],1,5582.645
8,False,434,0.956,57,[],[],"[(1195, 868)]",[],[1],[42],[0.7],"[640.0, 512.0]",horizontal,"(390.0, 762.0)",[1.4],[0.663],1,5586.256
8,False,435,0.998,59,[],[],"[(1144, 901)]",[],[1],[42],[0.7],"[640.0, 512.0]",vertical,"(390.0, 262.0)",[0.8833333333333333],[0.651],1,5591.125
8,False,436,0.93,55,[],[],"[(1148, 898)]",[],[1],[34],[0.5666666666666667],"[640.0, 512.0]",vertical,"(890.0, 762.0)",[0.7833333333333333],[0.533],1,5595.682
8,False,437,1.164,69,[],[],"[(1175, 866)]",[],[1],[25],[0.4166666666666667],"[640.0, 512.0]",vertical,"(890.0, 262.0)",[1.3333333333333333],[0.377],1,5600.015
8,False,438,0.603,36,[],[],"[(1144, 851)]",[],[1],[31],[0.5166666666666666],"[640.0, 512.0]",vertical,"(890.0, 262.0)",[1.05],[0.479],1,5604.769
8,False,439,0.938,56,[],[],"[(1170, 898)]",[],[1],[10],[0.16666666666666666],"[640.0, 512.0]",horizontal,"(390.0, 262.0)",[1.15],[0.132],1,5608.834
8,False,440,0.851,51,[],[],"[(1111, 866)]",[],[1],[51],[0.85],"[640.0, 512.0]",vertical,"(390.0, 262.0)",[0.8],[0.805],0,5613.063
8,False,441,0.752,45,[],[],"[(1149, 859)]",[],[1],[37],[0.6166666666666667],"[640.0, 512.0]",vertical,"(890.0, 262.0)",[1.1333333333333333],[0.578],1,5617.531
8,False,442,0.953,57,[],[],"[(1081, 880)]",[],[1],[30],[0.5],"[640.0, 512.0]",horizontal,"(390.0, 262.0)",[1.4833333333333334],[0.461],1,5622.183
8,False,443,0.65,39,[],[],"[(1148, 864)]",[],[1],[31],[0.5166666666666666],"[640.0, 512.0]",horizontal,"(890.0, 262.0)",[1.1333333333333333],[0.479],1,5627.112
8,False,444,1.077,64,[],[],"[(1172, 862)]",[],[1],[34],[0.5666666666666667],"[640.0, 512.0]",vertical,"(890.0, 762.0)",[1.3166666666666667],[0.525],1,5631.278
8,False,445,1.023,61,[],[],"[(1150, 854)]",[],[1],[35],[0.5833333333333334],"[640.0, 512.0]",vertical,"(890.0, 762.0)",[1.0333333333333332],[0.547],1,5636.051
8,False,446,1.17,70,[],[],"[(1150, 865)]",[],[1],[36],[0.6],"[640.0, 512.0]",horizontal,"(890.0, 262.0)",[1.5333333333333332],[0.56],1,5640.734
8,False,447,0.856,51,[],[],"[(1175, 872)]",[],[1],[33],[0.55],"[640.0, 512.0]",horizontal,"(390.0, 762.0)",[1.6833333333333333],[0.509],1,5646.015
8,False,448,0.718,43,[],[],"[(1148, 855)]",[],[1],[32],[0.5333333333333333],"[640.0, 512.0]",horizontal,"(890.0, 262.0)",[0.9833333333333333],[0.494],1,5650.948
8,False,449,1.15,69,[],[],"[(1174, 870)]",[],[1],[31],[0.5166666666666666],"[640.0, 512.0]",vertical,"(390.0, 262.0)",[0.9],[0.475],1,5655.123
8,False,450,0.63,37,[],[],"[(1129, 871)]",[],[1],[37],[0.6166666666666667],"[640.0, 512.0]",horizontal,"(890.0, 762.0)",[0.5],[0.574],1,5659.627
8,False,451,0.95,57,[],[],"[(1142, 871)]",[],[1],[35],[0.5833333333333334],"[640.0, 512.0]",vertical,"(390.0, 762.0)",[1.4333333333333333],[0.545],1,5663.28
8,False,452,0.694,41,[],[],"[(1160, 868)]",[],[1],[33],[0.55],"[640.0, 512.0]",horizontal,"(390.0, 262.0)",[1.2166666666666666],[0.512],1,5668.228
8,False,453,0.742,44,[],[],"[(1178, 875)]",[],[1],[32],[0.5333333333333333],"[640.0, 512.0]",horizontal,"(890.0, 762.0)",[0.7166666666666667],[0.502],1,5672.618
8,False,454,0.646,38,[],[],"[(1181, 865)]",[],[1],[33],[0.55],"[640.0, 512.0]",vertical,"(890.0, 262.0)",[1.7],[0.51],1,5676.59
8,False,455,0.776,46,[],[],"[(1167, 872)]",[],[1],[34],[0.5666666666666667],"[640.0, 512.0]",vertical,"(390.0, 262.0)",[0.5333333333333333],[0.521],1,5681.461
8,False,456,1.074,64,[],[],"[(1153, 853)]",[],[1],[36],[0.6],"[640.0, 512.0]",vertical,"(890.0, 262.0)",[0.6666666666666666],[0.56],1,5685.295
8,False,457,0.554,33,[],[],"[(1149, 894)]",[],[1],[38],[0.6333333333333333],"[640.0, 512.0]",horizontal,"(890.0, 762.0)",[1.35],[0.589],1,5689.485
8,False,458,1.153,69,[],[],"[(1178, 871)]",[],[1],[51],[0.85],"[640.0, 512.0]",horizontal,"(390.0, 262.0)",[0.8166666666666667],[0.81],0,5694.102
8,False,459,0.944,56,[],[],"[(1167, 877)]",[],[1],[33],[0.55],"[640.0, 512.0]",vertical,"(890.0, 262.0)",[0.5],[0.509],1,5698.929
8,False,460,0.856,51,[],[],"[(1157, 862)]",[],[1],[34],[0.5666666666666667],"[640.0, 512.0]",vertical,"(390.0, 762.0)",[0.5833333333333334],[0.526],1,5703.145
8,False,461,0.904,54,[],[],"[(1177, 877)]",[],[1],[33],[0.55],"[640.0, 512.0]",horizontal,"(890.0, 762.0)",[0.5],[0.511],1,5707.094
8,False,462,1.086,65,[],[],"[(1160, 885)]",[],[1],[32],[0.5333333333333333],"[640.0, 512.0]",horizontal,"(890.0, 262.0)",[0.5333333333333333],[0.5],1,5711.08
8,False,463,0.63,37,[],[],"[(1153, 872)]",[],[1],[37],[0.6166666666666667],"[640.0, 512.0]",vertical,"(890.0, 762.0)",[0.65],[0.582],1,5715.049
8,False,464,1.007,60,[],[],"[(1170, 871)]",[],[1],[39],[0.65],"[640.0, 512.0]",vertical,"(390.0, 262.0)",[0.7666666666666666],[0.603],1,5718.933
8,False,465,0.68,40,[],[],"[(1153, 877)]",[],[1],[38],[0.6333333333333333],"[640.0, 512.0]",horizontal,"(390.0, 762.0)",[1.6],[0.595],1,5723.268
8,False,466,0.501,30,[],[],"[(1148, 867)]",[],[1],[49],[0.8166666666666667],"[640.0, 512.0]",vertical,"(890.0, 262.0)",[0.6166666666666667],[0.767],1,5728.035
8,False,467,0.807,48,[],[],"[(1142, 879)]",[],[1],[38],[0.6333333333333333],"[640.0, 512.0]",horizontal,"(890.0, 262.0)",[0.5166666666666666],[0.59],1,5731.786
8,False,468,1.089,65,[],[],"[(1162, 853)]",[],[1],[34],[0.5666666666666667],"[640.0, 512.0]",vertical,"(890.0, 762.0)",[1.5],[0.526],1,5735.72
8,False,469,0.72,43,[],[],"[(1150, 872)]",[],[1],[36],[0.6],"[640.0, 512.0]",vertical,"(390.0, 762.0)",[1.3333333333333333],[0.558],1,5740.801
8,False,470,0.843,50,[],[],"[(1184, 867)]",[],[1],[34],[0.5666666666666667],"[640.0, 512.0]",vertical,"(390.0, 262.0)",[1.4166666666666667],[0.525],1,5745.384
8,False,471,0.595,35,[],[],"[(1179, 883)]",[],[1],[34],[0.5666666666666667],"[640.0, 512.0]",horizontal,"(890.0, 762.0)",[0.8666666666666667],[0.531],1,5750.166
8,False,472,0.718,43,[],[],"[(1160, 863)]",[],[1],[34],[0.5666666666666667],"[640.0, 512.0]",horizontal,"(890.0, 762.0)",[0.75],[0.524],1,5754.073
8,False,473,0.721,43,[],[],"[(1180, 867)]",[],[1],[36],[0.6],"[640.0, 512.0]",vertical,"(390.0, 762.0)",[1.6666666666666667],[0.557],1,5758.098
8,False,474,1.085,65,[],[],"[(1153, 874)]",[],[1],[33],[0.55],"[640.0, 512.0]",vertical,"(890.0, 762.0)",[0.7],[0.507],1,5762.944
8,False,475,0.942,56,[],[],"[(1123, 898)]",[],[1],[37],[0.6166666666666667],"[640.0, 512.0]",vertical,"(390.0, 762.0)",[1.0833333333333333],[0.574],1,5767.237
8,False,476,1.102,66,[],[],"[(1184, 866)]",[],[1],[32],[0.5333333333333333],"[640.0, 512.0]",horizontal,"(390.0, 262.0)",[0.5333333333333333],[0.493],1,5771.834
8,False,477,0.523,31,[],[],"[(1154, 868)]",[],[1],[35],[0.5833333333333334],"[640.0, 512.0]",vertical,"(890.0, 262.0)",[0.6],[0.54],1,5776.004
8,False,478,0.723,43,[],[],"[(1153, 884)]",[],[1],[38],[0.6333333333333333],"[640.0, 512.0]",horizontal,"(390.0, 262.0)",[0.85],[0.585],1,5779.498
8,False,479,1.011,60,[],[],"[(1128, 864)]",[],[1],[37],[0.6166666666666667],"[640.0, 512.0]",vertical,"(890.0, 762.0)",[1.0833333333333333],[0.576],1,5783.583
8,False,480,0.79,47,[],[],"[(1168, 876)]",[],[1],[35],[0.5833333333333334],"[640.0, 512.0]",horizontal,"(390.0, 762.0)",[0.5333333333333333],[0.54],1,5789.435
9,False,481,0.884,53,[],[],"[(1148, 866)]",[],[1],[37],[0.6166666666666667],"[640.0, 512.0]",vertical,"(390.0, 762.0)",[1.3833333333333333],[0.57],1,5793.335
9,False,482,0.635,38,[],[],"[(1178, 863)]",[],[1],[31],[0.5166666666666666],"[640.0, 512.0]",horizontal,"(890.0, 262.0)",[0.7166666666666667],[0.472],1,5798.252
9,False,483,0.81,48,[],[],"[(1202, 879)]",[],[1],[35],[0.5833333333333334],"[640.0, 512.0]",vertical,"(890.0, 262.0)",[0.5],[0.547],1,5802.146
9,False,484,0.997,59,[],[],"[(1202, 867)]",[],[1],[36],[0.6],"[640.0, 512.0]",horizontal,"(890.0, 762.0)",[0.8666666666666667],[0.557],1,5805.936
9,False,485,0.547,32,[],[],"[(1136, 860)]",[],[1],[38],[0.6333333333333333],"[640.0, 512.0]",horizontal,"(890.0, 262.0)",[0.65],[0.586],1,5810.316
9,False,486,0.507,30,[],[],"[(1184, 866)]",[],[1],[51],[0.85],"[640.0, 512.0]",vertical,"(390.0, 262.0)",[0.9333333333333333],[0.798],0,5814.002
9,False,487,0.574,34,[],[],"[(1178, 872)]",[],[1],[35],[0.5833333333333334],"[640.0, 512.0]",horizontal,"(390.0, 262.0)",[1.2666666666666666],[0.541],1,5818.275
9,False,488,0.816,48,[],[],"[(1148, 865)]",[],[1],[26],[0.43333333333333335],"[640.0, 512.0]",horizontal,"(390.0, 262.0)",[1.5833333333333333],[0.398],1,5822.658
9,False,489,1.131,67,[],[],"[(1203, 865)]",[],[1],[48],[0.8],"[640.0, 512.0]",vertical,"(390.0, 262.0)",[0.7333333333333333],[0.754],1,5828.395
9,False,490,1.194,71,[],[],"[(1151, 865)]",[],[1],[38],[0.6333333333333333],"[640.0, 512.0]",vertical,"(890.0, 262.0)",[1.0833333333333333],[0.593],1,5833.147
9,False,491,1.049,62,[],[],"[(1160, 863)]",[],[1],[39],[0.65],"[640.0, 512.0]",vertical,"(890.0, 262.0)",[1.0],[0.607],1,5837.89
9,False,492,0.594,35,[],[],"[(1178, 860)]",[],[1],[34],[0.5666666666666667],"[640.0, 512.0]",horizontal,"(390.0, 262.0)",[0.7166666666666667],[0.522],1,5842.504
9,False,493,0.64,38,[],[],"[(1203, 872)]",[],[1],[34],[0.5666666666666667],"[640.0, 512.0]",horizontal,"(390.0, 762.0)",[0.5166666666666666],[0.524],1,5846.38
9,False,494,1.175,70,[],[],"[(1190, 875)]",[],[1],[34],[0.5666666666666667],"[640.0, 512.0]",vertical,"(390.0, 262.0)",[0.7333333333333333],[0.525],1,5850.115
9,False,495,0.599,35,[],[],"[(1107, 882)]",[],[1],[36],[0.6],"[640.0, 512.0]",vertical,"(390.0, 262.0)",[1.2],[0.557],1,5854.562
9,False,496,0.725,43,[],[],"[(1123, 890)]",[],[1],[36],[0.6],"[640.0, 512.0]",horizontal,"(390.0, 262.0)",[0.8166666666666667],[0.558],1,5858.901
9,False,497,0.731,43,[],[],"[(1142, 856)]",[],[1],[45],[0.75],"[640.0, 512.0]",horizontal,"(390.0, 262.0)",[1.6666666666666667],[0.7],1,5863.107
9,False,498,0.737,44,[],[],"[(1166, 865)]",[],[1],[32],[0.5333333333333333],"[640.0, 512.0]",vertical,"(390.0, 262.0)",[1.2666666666666666],[0.492],1,5868.052
9,False,499,0.552,33,[],[],"[(1178, 868)]",[],[1],[38],[0.6333333333333333],"[640.0, 512.0]",horizontal,"(890.0, 262.0)",[1.5166666666666666],[0.583],1,5872.583
9,False,500,0.874,52,[],[],"[(1148, 875)]",[],[1],[35],[0.5833333333333334],"[640.0, 512.0]",vertical,"(390.0, 262.0)",[1.3],[0.54],1,5877.331
9,False,501,0.733,43,[],[],"[(1203, 879)]",[],[1],[35],[0.5833333333333334],"[640.0, 512.0]",horizontal,"(890.0, 262.0)",[0.5166666666666666],[0.538],1,5882.069
9,False,502,0.741,44,[],[],"[(1146, 879)]",[],[1],[35],[0.5833333333333334],"[640.0, 512.0]",horizontal,"(390.0, 762.0)",[0.8],[0.54],1,5885.72
9,False,503,0.869,52,[],[],"[(1165, 866)]",[],[1],[33],[0.55],"[640.0, 512.0]",horizontal,"(890.0, 262.0)",[1.5],[0.511],1,5889.734
9,False,504,0.936,56,[],[],"[(1172, 855)]",[],[1],[35],[0.5833333333333334],"[640.0, 512.0]",vertical,"(390.0, 262.0)",[1.5333333333333332],[0.539],1,5894.518
9,False,505,0.756,45,[],[],"[(1157, 868)]",[],[1],[35],[0.5833333333333334],"[640.0, 512.0]",vertical,"(390.0, 762.0)",[1.6],[0.54],1,5899.437
9,False,506,0.946,56,[],[],"[(1168, 867)]",[],[1],[33],[0.55],"[640.0, 512.0]",horizontal,"(390.0, 262.0)",[0.8333333333333334],[0.507],1,5904.284
9,False,507,0.752,45,[],[],"[(1153, 878)]",[],[1],[38],[0.6333333333333333],"[640.0, 512.0]",vertical,"(390.0, 762.0)",[1.1833333333333333],[0.587],1,5908.583
9,False,508,0.808,48,[],[],"[(1172, 866)]",[],[1],[34],[0.5666666666666667],"[640.0, 512.0]",vertical,"(890.0, 762.0)",[1.1833333333333333],[0.52],1,5913.201
9,False,509,0.518,31,[],[],"[(1166, 864)]",[],[1],[31],[0.5166666666666666],"[640.0, 512.0]",horizontal,"(890.0, 262.0)",[1.35],[0.474],1,5917.715
9,False,510,0.721,43,[],[],"[(1162, 866)]",[],[1],[32],[0.5333333333333333],"[640.0, 512.0]",horizontal,"(390.0, 262.0)",[0.5666666666666667],[0.494],1,5922.085
9,False,511,0.721,43,[],[],"[(1123, 898)]",[],[1],[34],[0.5666666666666667],"[640.0, 512.0]",vertical,"(890.0, 262.0)",[0.8166666666666667],[0.524],1,5925.867
9,False,512,0.929,55,[],[],"[(1196, 861)]",[],[1],[36],[0.6],"[640.0, 512.0]",horizontal,"(890.0, 762.0)",[0.5],[0.556],1,5929.96
9,False,513,0.75,45,[],[],"[(1188, 852)]",[],[1],[37],[0.6166666666666667],"[640.0, 512.0]",horizontal,"(890.0, 262.0)",[1.6833333333333333],[0.575],1,5933.836
9,False,514,1.077,64,[],[],"[(1142, 852)]",[],[1],[41],[0.6833333333333333],"[640.0, 512.0]",horizontal,"(390.0, 762.0)",[0.5],[0.638],1,5938.708
9,False,515,1.132,67,[],[],"[(1142, 870)]",[],[1],[28],[0.4666666666666667],"[640.0, 512.0]",vertical,"(890.0, 262.0)",[1.3333333333333333],[0.426],1,5942.964
9,False,516,0.617,37,[],[],"[(1168, 867)]",[],[1],[36],[0.6],"[640.0, 512.0]",vertical,"(890.0, 262.0)",[0.85],[0.557],1,5947.768
9,False,517,0.58,34,[],[],"[(1146, 872)]",[],[1],[34],[0.5666666666666667],"[640.0, 512.0]",horizontal,"(390.0, 262.0)",[0.8333333333333334],[0.528],1,5951.786
9,False,518,1.096,65,[],[],"[(1156, 883)]",[],[1],[37],[0.6166666666666667],"[640.0, 512.0]",vertical,"(390.0, 762.0)",[0.5333333333333333],[0.575],1,5955.771
9,False,519,0.574,34,[],[],"[(1153, 863)]",[],[1],[34],[0.5666666666666667],"[640.0, 512.0]",horizontal,"(390.0, 262.0)",[0.5],[0.522],1,5960.037
9,False,520,0.894,53,[],[],"[(1152, 873)]",[],[1],[40],[0.6666666666666666],"[640.0, 512.0]",horizontal,"(890.0, 762.0)",[0.8166666666666667],[0.617],1,5963.639
9,False,521,0.616,36,[],[],"[(1180, 865)]",[],[1],[34],[0.5666666666666667],"[640.0, 512.0]",vertical,"(390.0, 762.0)",[1.5333333333333332],[0.526],1,5968.053
9,False,522,1.105,66,[],[],"[(1157, 871)]",[],[1],[36],[0.6],"[640.0, 512.0]",horizontal,"(890.0, 762.0)",[1.45],[0.553],1,5972.595
9,False,523,0.612,36,[],[],"[(1148, 865)]",[],[1],[37],[0.6166666666666667],"[640.0, 512.0]",horizontal,"(390.0, 262.0)",[1.5],[0.57],1,5977.686
9,False,524,0.589,35,[],[],"[(1153, 865)]",[],[1],[38],[0.6333333333333333],"[640.0, 512.0]",vertical,"(890.0, 762.0)",[1.65],[0.589],1,5982.437
9,False,525,1.054,63,[],[],"[(1156, 870)]",[],[1],[40],[0.6666666666666666],"[640.0, 512.0]",horizontal,"(390.0, 262.0)",[0.8],[0.626],1,5987.168
9,False,526,0.812,48,[],[],"[(1178, 877)]",[],[1],[35],[0.5833333333333334],"[640.0, 512.0]",vertical,"(890.0, 762.0)",[1.15],[0.54],1,5991.567
9,False,527,0.783,46,[],[],"[(1166, 878)]",[],[1],[37],[0.6166666666666667],"[640.0, 512.0]",vertical,"(390.0, 762.0)",[1.3666666666666667],[0.579],1,5996.216
9,False,528,0.637,38,[],[],"[(1202, 886)]",[],[1],[33],[0.55],"[640.0, 512.0]",vertical,"(890.0, 262.0)",[1.35],[0.508],1,6000.85
9,False,529,0.945,56,[],[],"[(1138, 859)]",[],[1],[32],[0.5333333333333333],"[640.0, 512.0]",horizontal,"(890.0, 762.0)",[0.55],[0.488],1,6005.396
9,False,530,1.104,66,[],[],"[(1157, 867)]",[],[1],[36],[0.6],"[640.0, 512.0]",vertical,"(890.0, 762.0)",[0.8833333333333333],[0.557],1,6009.255
9,False,531,0.808,48,[],[],"[(1183, 860)]",[],[1],[41],[0.6833333333333333],"[640.0, 512.0]",horizontal,"(390.0, 762.0)",[0.6833333333333333],[0.633],1,6013.816
9,False,532,0.921,55,[],[],"[(1184, 875)]",[],[1],[35],[0.5833333333333334],"[640.0, 512.0]",horizontal,"(390.0, 762.0)",[0.95],[0.542],1,6017.898
9,False,533,0.846,50,[],[],"[(1144, 865)]",[],[1],[40],[0.6666666666666666],"[640.0, 512.0]",horizontal,"(890.0, 762.0)",[0.9833333333333333],[0.619],1,6022.32
9,False,534,0.546,32,[],[],"[(1142, 864)]",[],[1],[35],[0.5833333333333334],"[640.0, 512.0]",horizontal,"(890.0, 262.0)",[0.5],[0.537],1,6026.816
9,False,535,1.079,64,[],[],"[(1129, 865)]",[],[1],[40],[0.6666666666666666],"[640.0, 512.0]",vertical,"(890.0, 762.0)",[1.5],[0.62],1,6030.451
9,False,536,0.746,44,[],[],"[(1129, 881)]",[],[1],[36],[0.6],"[640.0, 512.0]",horizontal,"(390.0, 262.0)",[0.8],[0.557],1,6035.609
9,False,537,0.814,48,[],[],"[(1142, 879)]",[],[1],[40],[0.6666666666666666],"[640.0, 512.0]",horizontal,"(890.0, 762.0)",[1.6],[0.626],1,6039.82
9,False,538,0.872,52,[],[],"[(1178, 859)]",[],[1],[33],[0.55],"[640.0, 512.0]",vertical,"(890.0, 262.0)",[0.7833333333333333],[0.507],1,6044.841
9,False,539,1.088,65,[],[],"[(1156, 867)]",[],[1],[36],[0.6],"[640.0, 512.0]",horizontal,"(890.0, 762.0)",[0.6],[0.553],1,6048.878
9,False,540,0.605,36,[],[],"[(1183, 854)]",[],[1],[35],[0.5833333333333334],"[640.0, 512.0]",horizontal,"(890.0, 762.0)",[0.55],[0.537],1,6053.001
10,False,541,0.666,39,[],[],"[(1178, 864)]",[],[1],[35],[0.5833333333333334],"[640.0, 512.0]",vertical,"(390.0, 262.0)",[0.6333333333333333],[0.543],1,6056.631
10,False,542,0.71,42,[],[],"[(1148, 876)]",[],[1],[38],[0.6333333333333333],"[640.0, 512.0]",vertical,"(890.0, 262.0)",[0.5833333333333334],[0.589],1,6060.613
10,False,543,0.843,50,[],[],"[(1184, 865)]",[],[1],[],[],"[640.0, 512.0]",horizontal,"(890.0, 762.0)",[],[0],0,6064.469
10,False,544,1.123,67,[],[],"[(1178, 862)]",[],[1],[33],[0.55],"[640.0, 512.0]",horizontal,"(390.0, 262.0)",[0.9166666666666666],[0.509],1,6068.571
10,False,545,1.129,67,[],[],"[(1193, 882)]",[],[1],[41],[0.6833333333333333],"[640.0, 512.0]",vertical,"(390.0, 262.0)",[1.0833333333333333],[0.637],1,6073.047
10,False,546,1.118,67,[],[],"[(1160, 868)]",[],[1],[33],[0.55],"[640.0, 512.0]",horizontal,"(890.0, 262.0)",[0.65],[0.506],1,6077.829
10,False,547,0.568,34,[],[],"[(1200, 875)]",[],[1],[38],[0.6333333333333333],"[640.0, 512.0]",horizontal,"(890.0, 262.0)",[0.7166666666666667],[0.589],1,6081.983
10,False,548,1.064,63,[],[],"[(1198, 870)]",[],[1],[34],[0.5666666666666667],"[640.0, 512.0]",horizontal,"(890.0, 262.0)",[1.4166666666666667],[0.531],1,6086.002
10,False,549,0.968,58,[],[],"[(1172, 863)]",[],[1],[32],[0.5333333333333333],"[640.0, 512.0]",vertical,"(390.0, 262.0)",[0.7],[0.493],1,6090.896
10,False,550,0.92,55,[],[],"[(1174, 876)]",[],[1],[37],[0.6166666666666667],"[640.0, 512.0]",horizontal,"(890.0, 762.0)",[1.0666666666666667],[0.571],1,6095.084
10,False,551,0.725,43,[],[],"[(1172, 860)]",[],[1],[31],[0.5166666666666666],"[640.0, 512.0]",vertical,"(890.0, 262.0)",[1.4666666666666666],[0.476],1,6099.614
10,False,552,1.095,65,[],[],"[(1153, 875)]",[],[1],[41],[0.6833333333333333],"[640.0, 512.0]",horizontal,"(390.0, 762.0)",[1.6333333333333333],[0.635],1,6104.402
10,False,553,0.61,36,[],[],"[(1142, 867)]",[],[1],[38],[0.6333333333333333],"[640.0, 512.0]",horizontal,"(890.0, 762.0)",[1.6333333333333333],[0.59],1,6109.846
10,False,554,1.049,62,[],[],"[(1168, 865)]",[],[1],[19],[0.31666666666666665],"[640.0, 512.0]",vertical,"(890.0, 262.0)",[0.85],[0.279],1,6114.667
10,False,555,1.116,66,[],[],"[(1154, 865)]",[],[1],[37],[0.6166666666666667],"[640.0, 512.0]",vertical,"(390.0, 762.0)",[0.6166666666666667],[0.574],1,6118.734
10,False,556,1.085,65,[],[],"[(1148, 868)]",[],[1],[34],[0.5666666666666667],"[640.0, 512.0]",vertical,"(390.0, 262.0)",[1.4333333333333333],[0.525],1,6122.923
10,False,557,0.602,36,[],[],"[(1186, 862)]",[],[1],[34],[0.5666666666666667],"[640.0, 512.0]",vertical,"(890.0, 762.0)",[0.75],[0.521],1,6128.018
10,False,558,1.188,71,[],[],"[(1155, 870)]",[],[1],[37],[0.6166666666666667],"[640.0, 512.0]",vertical,"(890.0, 762.0)",[1.55],[0.572],1,6131.97
10,False,559,0.559,33,[],[],"[(1196, 881)]",[],[1],[35],[0.5833333333333334],"[640.0, 512.0]",horizontal,"(890.0, 262.0)",[1.55],[0.544],1,6137.231
10,False,560,0.747,44,[],[],"[(1169, 864)]",[],[1],[39],[0.65],"[640.0, 512.0]",vertical,"(390.0, 762.0)",[1.5666666666666667],[0.605],1,6141.936
10,False,561,0.731,43,[],[],"[(1125, 884)]",[],[1],[44],[0.7333333333333333],"[640.0, 512.0]",vertical,"(390.0, 262.0)",[1.6666666666666667],[0.69],1,6146.88
10,False,562,1.141,68,[],[],"[(1163, 866)]",[],[1],[37],[0.6166666666666667],"[640.0, 512.0]",horizontal,"(390.0, 762.0)",[0.8166666666666667],[0.568],1,6151.947
10,False,563,0.582,34,[],[],"[(1142, 873)]",[],[1],[37],[0.6166666666666667],"[640.0, 512.0]",horizontal,"(390.0, 262.0)",[0.9666666666666667],[0.576],1,6156.57
10,False,564,1.04,62,[],[],"[(1153, 865)]",[],[1],[35],[0.5833333333333334],"[640.0, 512.0]",horizontal,"(890.0, 762.0)",[1.2666666666666666],[0.536],1,6160.681
10,False,565,1.169,70,[],[],"[(1082, 882)]",[],[1],[],[],"[640.0, 512.0]",horizontal,"(390.0, 262.0)",[],[0],0,6165.584
10,False,566,0.574,34,[],[],"[(1167, 867)]",[],[1],[34],[0.5666666666666667],"[640.0, 512.0]",horizontal,"(890.0, 762.0)",[0.5666666666666667],[0.522],1,6169.318
10,False,567,0.852,51,[],[],"[(1148, 868)]",[],[1],[37],[0.6166666666666667],"[640.0, 512.0]",horizontal,"(390.0, 762.0)",[0.7333333333333333],[0.574],1,6173.006
10,False,568,1.181,70,[],[],"[(1143, 880)]",[],[1],[18],[0.3],"[640.0, 512.0]",horizontal,"(890.0, 262.0)",[0.8833333333333333],[0.27],1,6177.08
10,False,569,0.853,51,[],[],"[(1130, 860)]",[],[1],[34],[0.5666666666666667],"[640.0, 512.0]",vertical,"(390.0, 762.0)",[1.6333333333333333],[0.522],1,6181.311
10,False,570,1.198,71,[],[],"[(1172, 873)]",[],[1],[35],[0.5833333333333334],"[640.0, 512.0]",horizontal,"(390.0, 262.0)",[1.3],[0.544],1,6186.381
10,False,571,0.708,42,[],[],"[(1122, 878)]",[],[1],[36],[0.6],"[640.0, 512.0]",horizontal,"(890.0, 762.0)",[1.25],[0.555],1,6191.262
10,False,572,0.732,43,[],[],"[(1149, 863)]",[],[1],[38],[0.6333333333333333],"[640.0, 512.0]",horizontal,"(390.0, 262.0)",[1.1833333333333333],[0.588],1,6199.19
10,False,573,0.798,47,[],[],"[(1150, 877)]",[],[1],[39],[0.65],"[640.0, 512.0]",vertical,"(890.0, 262.0)",[0.5166666666666666],[0.608],1,6203.763
10,False,574,0.658,39,[],[],"[(1167, 876)]",[],[1],[35],[0.5833333333333334],"[640.0, 512.0]",vertical,"(890.0, 762.0)",[1.1666666666666667],[0.54],1,6207.631
10,False,575,0.921,55,[],[],"[(1147, 862)]",[],[1],[35],[0.5833333333333334],"[640.0, 512.0]",vertical,"(890.0, 262.0)",[1.5333333333333332],[0.541],1,6212.012
10,False,576,0.915,54,[],[],"[(1142, 888)]",[],[1],[36],[0.6],"[640.0, 512.0]",vertical,"(890.0, 262.0)",[0.6],[0.559],1,6217.054
10,False,577,0.689,41,[],[],"[(1172, 865)]",[],[1],[35],[0.5833333333333334],"[640.0, 512.0]",horizontal,"(890.0, 762.0)",[0.7],[0.542],1,6221.048
10,False,578,0.721,43,[],[],"[(1186, 872)]",[],[1],[33],[0.55],"[640.0, 512.0]",vertical,"(890.0, 262.0)",[0.5166666666666666],[0.513],1,6224.931
10,False,579,0.763,45,[],[],"[(1129, 869)]",[],[1],[34],[0.5666666666666667],"[640.0, 512.0]",horizontal,"(890.0, 762.0)",[0.6166666666666667],[0.532],1,6228.757
10,False,580,1.162,69,[],[],"[(1203, 844)]",[],[1],[37],[0.6166666666666667],"[640.0, 512.0]",horizontal,"(890.0, 262.0)",[0.5333333333333333],[0.577],1,6232.713
10,False,581,0.957,57,[],[],"[(1117, 865)]",[],[1],[35],[0.5833333333333334],"[640.0, 512.0]",vertical,"(390.0, 762.0)",[1.05],[0.543],1,6236.935
10,False,582,0.567,34,[],[],"[(1153, 849)]",[],[1],[35],[0.5833333333333334],"[640.0, 512.0]",vertical,"(390.0, 262.0)",[0.8],[0.543],1,6241.502
10,False,583,0.944,56,[],[],"[(1147, 868)]",[],[1],[34],[0.5666666666666667],"[640.0, 512.0]",vertical,"(390.0, 262.0)",[0.9833333333333333],[0.524],1,6245.628
10,False,584,0.717,43,[],[],"[(1153, 871)]",[],[1],[38],[0.6333333333333333],"[640.0, 512.0]",horizontal,"(390.0, 262.0)",[0.9166666666666666],[0.587],1,6249.911
10,False,585,0.663,39,[],[],"[(1142, 878)]",[],[1],[35],[0.5833333333333334],"[640.0, 512.0]",vertical,"(890.0, 262.0)",[1.5833333333333333],[0.547],1,6254.139
10,False,586,1.028,61,[],[],"[(1119, 864)]",[],[1],[37],[0.6166666666666667],"[640.0, 512.0]",vertical,"(390.0, 762.0)",[1.1833333333333333],[0.574],1,6258.846
10,False,587,0.519,31,[],[],"[(1148, 879)]",[],[1],[39],[0.65],"[640.0, 512.0]",vertical,"(890.0, 762.0)",[0.9333333333333333],[0.609],1,6263.759
10,False,588,0.832,49,[],[],"[(1080, 850)]",[],[1],[34],[0.5666666666666667],"[640.0, 512.0]",vertical,"(390.0, 762.0)",[0.6],[0.524],1,6267.893
10,False,589,0.71,42,[],[],"[(1129, 878)]",[],[1],[38],[0.6333333333333333],"[640.0, 512.0]",vertical,"(390.0, 762.0)",[0.5333333333333333],[0.59],1,6271.837
10,False,590,0.683,40,[],[],"[(1129, 876)]",[],[1],[35],[0.5833333333333334],"[640.0, 512.0]",vertical,"(890.0, 262.0)",[1.5166666666666666],[0.543],1,6275.64
10,False,591,0.717,43,[],[],"[(1128, 878)]",[],[1],[37],[0.6166666666666667],"[640.0, 512.0]",horizontal,"(890.0, 762.0)",[0.5],[0.574],1,6280.392
10,False,592,0.734,44,[],[],"[(1148, 887)]",[],[1],[34],[0.5666666666666667],"[640.0, 512.0]",horizontal,"(890.0, 762.0)",[0.5],[0.529],1,6284.307
10,False,593,0.942,56,[],[],"[(1099, 887)]",[],[1],[39],[0.65],"[640.0, 512.0]",horizontal,"(390.0, 262.0)",[0.8833333333333333],[0.601],1,6288.028
10,False,594,0.726,43,[],[],"[(1146, 871)]",[],[1],[36],[0.6],"[640.0, 512.0]",vertical,"(890.0, 262.0)",[1.05],[0.549],1,6292.384
10,False,595,1.092,65,[],[],"[(1144, 879)]",[],[1],[37],[0.6166666666666667],"[640.0, 512.0]",vertical,"(390.0, 762.0)",[1.5833333333333333],[0.581],1,6296.607
10,False,596,0.549,32,[],[],"[(1148, 874)]",[],[1],[35],[0.5833333333333334],"[640.0, 512.0]",vertical,"(390.0, 262.0)",[0.65],[0.537],1,6301.979
10,False,597,1.128,67,[],[],"[(1114, 881)]",[],[1],[34],[0.5666666666666667],"[640.0, 512.0]",horizontal,"(390.0, 262.0)",[1.1333333333333333],[0.528],1,6305.646
10,False,598,0.653,39,[],[],"[(1148, 860)]",[],[1],[36],[0.6],"[640.0, 512.0]",horizontal,"(390.0, 262.0)",[0.9],[0.556],1,6310.464
10,False,599,0.518,31,[],[],"[(1117, 876)]",[],[1],[43],[0.7166666666666667],"[640.0, 512.0]",vertical,"(390.0, 762.0)",[1.3333333333333333],[0.67],1,6314.664
10,False,600,1.134,68,[],[],"[(1146, 874)]",[],[1],[36],[0.6],"[640.0, 512.0]",vertical,"(390.0, 762.0)",[0.75],[0.553],1,6319.149
11,False,601,0.965,57,[],[],"[(1123, 891)]",[],[1],[42],[0.7],"[640.0, 512.0]",vertical,"(890.0, 762.0)",[1.0833333333333333],[0.654],1,6323.649
11,False,602,0.624,37,[],[],"[(1129, 870)]",[],[1],[30],[0.5],"[640.0, 512.0]",vertical,"(390.0, 262.0)",[1.35],[0.457],1,6328.409
11,False,603,0.608,36,[],[],"[(1127, 860)]",[],[1],[36],[0.6],"[640.0, 512.0]",horizontal,"(390.0, 262.0)",[0.7166666666666667],[0.552],1,6332.744
11,False,604,0.694,41,[],[],"[(1153, 837)]",[],[1],[],[],"[640.0, 512.0]",horizontal,"(890.0, 262.0)",[],[0],0,6336.728
11,False,605,0.837,50,[],[],"[(1142, 863)]",[],[1],[34],[0.5666666666666667],"[640.0, 512.0]",horizontal,"(390.0, 762.0)",[0.8833333333333333],[0.528],1,6340.704
11,False,606,0.507,30,[],[],"[(1157, 857)]",[],[1],[33],[0.55],"[640.0, 512.0]",vertical,"(390.0, 262.0)",[0.9333333333333333],[0.506],1,6345.032
11,False,607,1.197,71,[],[],"[(1136, 869)]",[],[1],[34],[0.5666666666666667],"[640.0, 512.0]",vertical,"(390.0, 262.0)",[1.0666666666666667],[0.525],1,6348.924
11,False,608,0.661,39,[],[],"[(1196, 893)]",[],[1],[34],[0.5666666666666667],"[640.0, 512.0]",vertical,"(890.0, 262.0)",[1.4],[0.527],1,6353.736
11,False,609,0.835,50,[],[],"[(1151, 898)]",[],[1],[40],[0.6666666666666666],"[640.0, 512.0]",vertical,"(890.0, 262.0)",[0.8666666666666667],[0.623],1,6358.357
11,False,610,0.916,54,[],[],"[(1129, 876)]",[],[1],[34],[0.5666666666666667],"[640.0, 512.0]",horizontal,"(890.0, 262.0)",[0.75],[0.521],1,6362.717
11,False,611,0.87,52,[],[],"[(1143, 875)]",[],[1],[39],[0.65],"[640.0, 512.0]",vertical,"(390.0, 762.0)",[1.3333333333333333],[0.605],1,6367.002
11,False,612,1.096,65,[],[],"[(1109, 859)]",[],[1],[36],[0.6],"[640.0, 512.0]",vertical,"(890.0, 762.0)",[1.6833333333333333],[0.561],1,6371.803
11,False,613,1.017,61,[],[],"[(1170, 859)]",[],[1],[36],[0.6],"[640.0, 512.0]",vertical,"(390.0, 762.0)",[0.7166666666666667],[0.557],1,6377.049
11,False,614,1.12,67,[],[],"[(1190, 872)]",[],[1],[9],[0.15],"[640.0, 512.0]",horizontal,"(890.0, 262.0)",[1.05],[0.113],1,6381.454
11,False,615,0.716,42,[],[],"[(1129, 886)]",[],[1],[36],[0.6],"[640.0, 512.0]",vertical,"(890.0, 762.0)",[1.3833333333333333],[0.555],1,6385.771
11,False,616,1.185,71,[],[],"[(1142, 872)]",[],[1],[34],[0.5666666666666667],"[640.0, 512.0]",vertical,"(390.0, 262.0)",[0.55],[0.521],1,6390.569
11,False,617,1.153,69,[],[],"[(1167, 871)]",[],[1],[37],[0.6166666666666667],"[640.0, 512.0]",horizontal,"(390.0, 762.0)",[1.0833333333333333],[0.578],1,6394.818
11,False,618,0.603,36,[],[],"[(1150, 870)]",[],[1],[37],[0.6166666666666667],"[640.0, 512.0]",vertical,"(390.0, 762.0)",[1.3166666666666667],[0.574],1,6399.82
11,False,619,0.675,40,[],[],"[(1125, 875)]",[],[1],[36],[0.6],"[640.0, 512.0]",vertical,"(890.0, 762.0)",[0.9],[0.565],1,6404.353
11,False,620,0.511,30,[],[],"[(1148, 869)]",[],[1],[34],[0.5666666666666667],"[640.0, 512.0]",vertical,"(890.0, 262.0)",[1.0833333333333333],[0.531],1,6408.564
11,False,621,1.057,63,[],[],"[(1150, 883)]",[],[1],[37],[0.6166666666666667],"[640.0, 512.0]",vertical,"(390.0, 762.0)",[0.6833333333333333],[0.572],1,6412.598
11,False,622,1.072,64,[],[],"[(1138, 884)]",[],[1],[37],[0.6166666666666667],"[640.0, 512.0]",horizontal,"(390.0, 762.0)",[0.55],[0.571],1,6416.852
11,False,623,1.035,62,[],[],"[(1105, 889)]",[],[1],[42],[0.7],"[640.0, 512.0]",vertical,"(390.0, 762.0)",[0.6333333333333333],[0.649],1,6421.128
11,False,624,0.928,55,[],[],"[(1145, 883)]",[],[1],[35],[0.5833333333333334],"[640.0, 512.0]",vertical,"(390.0, 762.0)",[0.5333333333333333],[0.541],1,6425.665
11,False,625,1.048,62,[],[],"[(1142, 891)]",[],[1],[36],[0.6],"[640.0, 512.0]",horizontal,"(390.0, 762.0)",[0.8833333333333333],[0.553],1,6429.634
11,False,626,0.985,59,[],[],"[(1155, 875)]",[],[1],[33],[0.55],"[640.0, 512.0]",horizontal,"(890.0, 262.0)",[1.4166666666666667],[0.515],1,6434.204
11,False,627,0.781,46,[],[],"[(1133, 874)]",[],[1],[39],[0.65],"[640.0, 512.0]",vertical,"(890.0, 762.0)",[1.5],[0.613],1,6439.134
11,False,628,1.199,71,[],[],"[(1182, 877)]",[],[1],[42],[0.7],"[640.0, 512.0]",horizontal,"(390.0, 762.0)",[1.6166666666666667],[0.653],1,6443.972
11,False,629,1.168,70,[],[],"[(1146, 873)]",[],[1],[34],[0.5666666666666667],"[640.0, 512.0]",horizontal,"(890.0, 262.0)",[1.2333333333333334],[0.521],1,6449.487
11,False,630,1.187,71,[],[],"[(1117, 889)]",[],[1],[43],[0.7166666666666667],"[640.0, 512.0]",horizontal,"(890.0, 762.0)",[1.2166666666666666],[0.675],1,6454.32
11,False,631,1.078,64,[],[],"[(1154, 886)]",[],[1],[37],[0.6166666666666667],"[640.0, 512.0]",horizontal,"(390.0, 762.0)",[1.6333333333333333],[0.575],1,6560.025
11,False,632,0.902,54,[],[],"[(1150, 876)]",[],[1],[36],[0.6],"[640.0, 512.0]",horizontal,"(390.0, 762.0)",[1.45],[0.56],1,6565.316
11,False,633,0.819,49,[],[],"[(1136, 875)]",[],[1],[37],[0.6166666666666667],"[640.0, 512.0]",vertical,"(390.0, 762.0)",[1.4],[0.582],1,6570.253
11,False,634,1.158,69,[],[],"[(1172, 872)]",[],[1],[32],[0.5333333333333333],"[640.0, 512.0]",vertical,"(390.0, 262.0)",[0.55],[0.496],1,6575.027
11,False,635,0.746,44,[],[],"[(1136, 886)]",[],[1],[36],[0.6],"[640.0, 512.0]",horizontal,"(390.0, 762.0)",[0.7166666666666667],[0.558],1,6579.23
11,False,636,0.546,32,[],[],"[(1183, 864)]",[],[1],[32],[0.5333333333333333],"[640.0, 512.0]",vertical,"(390.0, 262.0)",[0.95],[0.49],1,6583.198
11,False,637,0.972,58,[],[],"[(1142, 860)]",[],[1],[34],[0.5666666666666667],"[640.0, 512.0]",vertical,"(390.0, 262.0)",[0.55],[0.533],1,6587.165
11,False,638,0.848,50,[],[],"[(1178, 886)]",[],[1],[32],[0.5333333333333333],"[640.0, 512.0]",vertical,"(890.0, 262.0)",[1.2],[0.494],1,6591.351
11,False,639,0.502,30,[],[],"[(1203, 875)]",[],[1],[35],[0.5833333333333334],"[640.0, 512.0]",horizontal,"(890.0, 262.0)",[0.95],[0.546],1,6595.765
11,False,640,0.7,42,[],[],"[(1163, 869)]",[],[1],[45],[0.75],"[640.0, 512.0]",vertical,"(890.0, 262.0)",[0.8166666666666667],[0.711],1,6599.833
11,False,641,1.05,63,[],[],"[(1163, 872)]",[],[1],[30],[0.5],"[640.0, 512.0]",vertical,"(890.0, 262.0)",[0.7333333333333333],[0.457],1,6604.125
11,False,642,1.031,61,[],[],"[(1150, 868)]",[],[1],[36],[0.6],"[640.0, 512.0]",vertical,"(390.0, 262.0)",[1.3333333333333333],[0.557],1,6608.401
11,False,643,0.572,34,[],[],"[(1184, 870)]",[],[1],[32],[0.5333333333333333],"[640.0, 512.0]",vertical,"(390.0, 262.0)",[1.6],[0.487],1,6613.412
11,False,644,0.819,49,[],[],"[(1192, 866)]",[],[1],[30],[0.5],"[640.0, 512.0]",vertical,"(390.0, 262.0)",[0.9333333333333333],[0.463],1,6617.965
11,False,645,0.596,35,[],[],"[(1123, 881)]",[],[1],[32],[0.5333333333333333],"[640.0, 512.0]",vertical,"(390.0, 262.0)",[0.85],[0.495],1,6622.189
11,False,646,0.523,31,[],[],"[(1166, 870)]",[],[1],[34],[0.5666666666666667],"[640.0, 512.0]",vertical,"(390.0, 262.0)",[1.5666666666666667],[0.526],1,6626.214
11,False,647,1.151,69,[],[],"[(1130, 889)]",[],[1],[37],[0.6166666666666667],"[640.0, 512.0]",horizontal,"(890.0, 762.0)",[1.1833333333333333],[0.573],1,6630.797
11,False,648,0.615,36,[],[],"[(1105, 863)]",[],[1],[35],[0.5833333333333334],"[640.0, 512.0]",vertical,"(390.0, 262.0)",[1.0333333333333332],[0.548],1,6635.762
11,False,649,0.896,53,[],[],"[(1145, 873)]",[],[1],[39],[0.65],"[640.0, 512.0]",vertical,"(890.0, 762.0)",[0.55],[0.607],1,6639.972
11,False,650,0.949,56,[],[],"[(1142, 873)]",[],[1],[51],[0.85],"[640.0, 512.0]",vertical,"(390.0, 262.0)",[1.6],[0.806],0,6644.113
11,False,651,0.892,53,[],[],"[(1181, 875)]",[],[1],[34],[0.5666666666666667],"[640.0, 512.0]",horizontal,"(890.0, 262.0)",[0.6666666666666666],[0.526],1,6649.432
11,False,652,1.095,65,[],[],"[(1188, 884)]",[],[1],[35],[0.5833333333333334],"[640.0, 512.0]",vertical,"(890.0, 762.0)",[0.5166666666666666],[0.542],1,6653.76
11,False,653,0.724,43,[],[],"[(1172, 883)]",[],[1],[35],[0.5833333333333334],"[640.0, 512.0]",horizontal,"(390.0, 762.0)",[0.75],[0.545],1,6657.867
11,False,654,0.914,54,[],[],"[(1196, 884)]",[],[1],[42],[0.7],"[640.0, 512.0]",vertical,"(390.0, 762.0)",[1.25],[0.656],1,6662.104
11,False,655,1.038,62,[],[],"[(1208, 886)]",[],[1],[32],[0.5333333333333333],"[640.0, 512.0]",vertical,"(390.0, 262.0)",[1.1166666666666667],[0.498],1,6666.961
11,False,656,1.161,69,[],[],"[(1170, 872)]",[],[1],[],[],"[640.0, 512.0]",horizontal,"(390.0, 262.0)",[],[0],0,6671.768
11,False,657,1.19,71,[],[],"[(1143, 875)]",[],[1],[36],[0.6],"[640.0, 512.0]",vertical,"(390.0, 262.0)",[0.5],[0.553],1,6675.639
11,False,658,0.527,31,[],[],"[(1193, 876)]",[],[1],[39],[0.65],"[640.0, 512.0]",vertical,"(390.0, 262.0)",[1.0333333333333332],[0.603],1,6680.27
11,False,659,1.178,70,[],[],"[(1184, 898)]",[],[1],[35],[0.5833333333333334],"[640.0, 512.0]",horizontal,"(390.0, 762.0)",[1.2833333333333332],[0.539],1,6684.442
11,False,660,1.023,61,[],[],"[(1148, 887)]",[],[1],[36],[0.6],"[640.0, 512.0]",horizontal,"(390.0, 762.0)",[0.8666666666666667],[0.56],1,6689.405
12,False,661,1.119,67,[],[],"[(1160, 866)]",[],[1],[38],[0.6333333333333333],"[640.0, 512.0]",vertical,"(390.0, 762.0)",[0.5166666666666666],[0.59],1,6693.767
