block,practice,trial,change_interval_s,change_interval_frames,taps_start_time_during_fix,taps_end_time_during_fix,taps_start_loc_during_fix,taps_end_loc_during_fix,taps_on_lever_during_fix,taps_on_lever_frame_during_fix,taps_on_lever_s_during_fix,fix_xy,bar_orientation,target_xy,cti,rt,acc,time
1,True,1,1.045,62,[],[59810],"[(1124, 875)]","[(1139, 902)]",[1],[31],[0.5166666666666666],"[640.0, 512.0]",vertical,"(390.0, 262.0)",[],[0],0,0.359
1,True,2,0.71,42,[],[],"[(1218, 923)]",[],[1],[34],[0.5666666666666667],"[640.0, 512.0]",horizontal,"(390.0, 762.0)",[0.5333333333333333],[0.522],1,44.942
1,True,3,1.122,67,[],[],"[(1099, 885)]",[],[1],[35],[0.5833333333333334],"[640.0, 512.0]",vertical,"(390.0, 762.0)",[1.1833333333333333],[0.54],1,50.139
1,True,4,0.596,35,[],[],"[(1123, 229), (1194, 928)]",[],"[0, 1]",[31],[0.5166666666666666],"[640.0, 512.0]",horizontal,"(890.0, 762.0)",[1.4],[0.473],1,55.206
1,False,1,1.067,64,[],[],"[(1172, 880)]",[],[1],[34],[0.5666666666666667],"[640.0, 512.0]",horizontal,"(890.0, 762.0)",[0.95],[0.528],1,135.627
1,False,2,0.517,31,[],[],"[(188, 875), (261, 999), (172, 877), (172, 898), (543, 923), (555, 784), (150, 918), (1167, 920)]",[],"[0, 0, 0, 0, 0, 0, 0, 1]",[51],[0.85],"[640.0, 512.0]",horizontal,"(390.0, 262.0)",[1.4833333333333334],[0.803],0,141.036
1,False,3,0.919,55,[],[],"[(145, 813), (147, 937), (1183, 940)]",[],"[0, 0, 1]",[36],[0.6],"[640.0, 512.0]",vertical,"(890.0, 262.0)",[0.65],[0.565],1,242.769
1,False,4,0.623,37,[],[],"[(153, 937), (1044, 908)]",[],"[0, 1]",[33],[0.55],"[640.0, 512.0]",vertical,"(390.0, 762.0)",[1.2166666666666666],[0.51],1,260.677
1,False,5,0.516,30,[],[],"[(1095, 894)]",[],[1],[33],[0.55],"[640.0, 512.0]",vertical,"(390.0, 262.0)",[0.5833333333333334],[0.512],1,267.06
1,False,6,0.99,59,[],[],"[(1113, 889)]",[],[1],[51],[0.85],"[640.0, 512.0]",vertical,"(890.0, 262.0)",[0.6666666666666666],[0.799],0,270.863
1,False,7,1.194,71,[],[],"[(1120, 881)]",[],[1],[51],[0.85],"[640.0, 512.0]",vertical,"(890.0, 762.0)",[0.6833333333333333],[0.8],0,275.442
1,False,8,0.722,43,[],[],"[(115, 924), (1148, 911)]",[],"[0, 1]",[],[],"[640.0, 512.0]",vertical,"(890.0, 262.0)",[],[0],0,280.053
1,False,9,0.664,39,[],[],"[(1111, 894)]",[],[1],[51],[0.85],"[640.0, 512.0]",vertical,"(390.0, 262.0)",[1.45],[0.809],0,287.67
1,False,10,0.986,59,[],[],"[(897, 71), (593, 426), (605, 29), (1136, 904)]",[],"[0, 0, 0, 1]",[51],[0.85],"[640.0, 512.0]",vertical,"(390.0, 762.0)",[1.55],[0.8],0,293.627
1,False,11,0.635,38,[],[],"[(1093, 899)]",[],[1],[37],[0.6166666666666667],"[640.0, 512.0]",horizontal,"(390.0, 262.0)",[1.1333333333333333],[0.586],1,313.681
1,False,12,0.916,54,[],[],"[(1118, 895)]",[],[1],[35],[0.5833333333333334],"[640.0, 512.0]",horizontal,"(890.0, 262.0)",[1.0666666666666667],[0.542],1,319.525
1,False,13,0.907,54,[],[],"[(1123, 880)]",[],[1],[36],[0.6],"[640.0, 512.0]",horizontal,"(890.0, 762.0)",[1.5833333333333333],[0.556],1,324.008
1,False,14,1.04,62,[],[],"[(1075, 885)]",[],[1],[51],[0.85],"[640.0, 512.0]",vertical,"(390.0, 762.0)",[0.8],[0.8],0,329.065
1,False,15,0.555,33,[],[],"[(1123, 871)]",[],[1],[33],[0.55],"[640.0, 512.0]",horizontal,"(390.0, 762.0)",[1.1333333333333333],[0.501],1,334.651
1,False,16,0.856,51,[],[],"[(1091, 880)]",[],[1],[40],[0.6666666666666666],"[640.0, 512.0]",vertical,"(390.0, 762.0)",[0.5833333333333334],[0.625],1,342.98
1,False,17,0.532,31,[],[],"[(1100, 866)]",[],[1],[51],[0.85],"[640.0, 512.0]",vertical,"(890.0, 262.0)",[0.9666666666666667],[0.801],0,347.056
1,False,18,0.723,43,[],[],"[(1136, 898)]",[],[1],[41],[0.6833333333333333],"[640.0, 512.0]",horizontal,"(890.0, 262.0)",[0.7166666666666667],[0.642],1,351.465
1,False,19,1.14,68,[],[],"[(1123, 875)]",[],[1],[51],[0.85],"[640.0, 512.0]",vertical,"(890.0, 762.0)",[1.2],[0.801],0,355.611
1,False,20,0.587,35,[],[],"[(1099, 882)]",[],[1],[35],[0.5833333333333334],"[640.0, 512.0]",horizontal,"(890.0, 762.0)",[1.4333333333333333],[0.543],1,360.825
1,False,21,0.79,47,[],[],"[(1117, 885)]",[],[1],[],[],"[640.0, 512.0]",horizontal,"(390.0, 762.0)",[],[0],0,365.394
1,False,22,0.619,37,[],[],"[(1158, 881)]",[],[1],[51],[0.85],"[640.0, 512.0]",vertical,"(390.0, 762.0)",[1.6166666666666667],[0.801],0,369.364
1,False,23,0.829,49,[],[],"[(1093, 866)]",[],[1],[51],[0.85],"[640.0, 512.0]",horizontal,"(390.0, 762.0)",[1.4],[0.809],0,374.913
1,False,24,1.198,71,[],[],"[(1145, 883)]",[],[1],[],[],"[640.0, 512.0]",horizontal,"(390.0, 762.0)",[],[0],0,380.612
1,False,25,0.907,54,[],[],"[(1129, 870)]",[],[1],[36],[0.6],"[640.0, 512.0]",vertical,"(390.0, 262.0)",[1.3166666666666667],[0.556],1,382.496
1,False,26,0.738,44,[],[],"[(1117, 856)]",[],[1],[51],[0.85],"[640.0, 512.0]",horizontal,"(390.0, 262.0)",[1.0666666666666667],[0.796],0,387.375
1,False,27,0.534,32,[],[],"[(1080, 900)]",[],[1],[33],[0.55],"[640.0, 512.0]",horizontal,"(390.0, 762.0)",[1.1],[0.511],1,392.001
1,False,28,0.928,55,[],[],"[(1125, 885)]",[],[1],[33],[0.55],"[640.0, 512.0]",horizontal,"(390.0, 762.0)",[1.5],[0.504],1,396.261
1,False,29,0.634,38,[],[],"[(1120, 867)]",[],[1],[30],[0.5],"[640.0, 512.0]",vertical,"(390.0, 262.0)",[1.25],[0.466],1,401.18
1,False,30,0.509,30,[],[],"[(1099, 889)]",[],[1],[51],[0.85],"[640.0, 512.0]",vertical,"(390.0, 762.0)",[1.1666666666666667],[0.799],0,405.461
1,False,31,1.056,63,[],[],"[(1129, 870)]",[],[1],[34],[0.5666666666666667],"[640.0, 512.0]",vertical,"(890.0, 262.0)",[0.55],[0.527],1,409.947
1,False,32,0.589,35,[],[],"[(1125, 875)]",[],[1],[47],[0.7833333333333333],"[640.0, 512.0]",horizontal,"(390.0, 262.0)",[0.6333333333333333],[0.734],1,414.055
1,False,33,0.549,32,[],[],"[(1110, 864)]",[],[1],[51],[0.85],"[640.0, 512.0]",vertical,"(390.0, 762.0)",[1.5666666666666667],[0.807],0,418.053
1,False,34,0.756,45,[],[],"[(1120, 869)]",[],[1],[51],[0.85],"[640.0, 512.0]",horizontal,"(890.0, 762.0)",[0.9666666666666667],[0.807],0,422.91
1,False,35,1.025,61,[],[],"[(1093, 873)]",[],[1],[47],[0.7833333333333333],"[640.0, 512.0]",horizontal,"(890.0, 262.0)",[1.2666666666666666],[0.738],1,427.447
1,False,36,1.197,71,[],[],"[(1117, 882)]",[],[1],[51],[0.85],"[640.0, 512.0]",horizontal,"(390.0, 262.0)",[0.9666666666666667],[0.798],0,432.624
1,False,37,0.949,56,[],[],"[(1105, 865)]",[],[1],[35],[0.5833333333333334],"[640.0, 512.0]",vertical,"(390.0, 262.0)",[1.0833333333333333],[0.538],1,437.577
1,False,38,1.127,67,[],[],"[(1121, 863)]",[],[1],[32],[0.5333333333333333],"[640.0, 512.0]",horizontal,"(390.0, 262.0)",[1.15],[0.489],1,442.84
1,False,39,1.179,70,[],[],"[(1123, 880)]",[],[1],[35],[0.5833333333333334],"[640.0, 512.0]",horizontal,"(890.0, 262.0)",[1.2333333333333334],[0.545],1,447.681
1,False,40,1.163,69,[],[],"[(1123, 870)]",[],[1],[44],[0.7333333333333333],"[640.0, 512.0]",horizontal,"(890.0, 762.0)",[0.85],[0.685],1,452.699
1,False,41,0.759,45,[],[],"[(1087, 865)]",[],[1],[34],[0.5666666666666667],"[640.0, 512.0]",horizontal,"(390.0, 762.0)",[0.8666666666666667],[0.526],1,457.397
1,False,42,0.51,30,[],[],"[(1142, 859)]",[],[1],[51],[0.85],"[640.0, 512.0]",horizontal,"(390.0, 762.0)",[1.3],[0.797],0,461.647
1,False,43,0.941,56,[],[],"[(1160, 899)]",[],[1],[],[],"[640.0, 512.0]",horizontal,"(890.0, 762.0)",[],[0],0,466.303
1,False,44,0.554,33,[],[],"[(1119, 870)]",[],[1],[51],[0.85],"[640.0, 512.0]",vertical,"(390.0, 762.0)",[1.1],[0.795],0,470.274
1,False,45,0.853,51,[],[],"[(1099, 880)]",[],[1],[40],[0.6666666666666666],"[640.0, 512.0]",vertical,"(890.0, 762.0)",[1.1333333333333333],[0.624],1,475.469
1,False,46,0.528,31,[],[],"[(1105, 869)]",[],[1],[36],[0.6],"[640.0, 512.0]",horizontal,"(390.0, 762.0)",[1.55],[0.555],1,480.792
1,False,47,0.683,40,[],[],"[(1125, 860)]",[],[1],[33],[0.55],"[640.0, 512.0]",horizontal,"(890.0, 262.0)",[0.6833333333333333],[0.504],1,485.459
1,False,48,0.879,52,[],[],"[(1130, 880)]",[],[1],[34],[0.5666666666666667],"[640.0, 512.0]",vertical,"(390.0, 762.0)",[1.5],[0.521],1,489.424
1,False,49,0.629,37,[],[],"[(1106, 873)]",[],[1],[33],[0.55],"[640.0, 512.0]",horizontal,"(390.0, 262.0)",[0.9333333333333333],[0.502],1,494.296
1,False,50,1.025,61,[],[],"[(1123, 886)]",[],[1],[51],[0.85],"[640.0, 512.0]",horizontal,"(890.0, 262.0)",[1.3],[0.8],0,498.51
1,False,51,1.101,66,[],[],"[(1166, 890)]",[],[1],[33],[0.55],"[640.0, 512.0]",horizontal,"(390.0, 762.0)",[0.9833333333333333],[0.503],1,503.631
1,False,52,1.106,66,[],[],"[(1099, 884)]",[],[1],[30],[0.5],"[640.0, 512.0]",horizontal,"(390.0, 262.0)",[0.9333333333333333],[0.465],1,516.665
1,False,53,1.009,60,[],[],"[(1099, 875)]",[],[1],[38],[0.6333333333333333],"[640.0, 512.0]",horizontal,"(890.0, 262.0)",[0.6],[0.59],1,521.214
1,False,54,0.856,51,[],[],"[(1142, 872)]",[],[1],[40],[0.6666666666666666],"[640.0, 512.0]",vertical,"(890.0, 762.0)",[1.4333333333333333],[0.619],1,525.64
1,False,55,1.152,69,[],[],"[(1121, 875)]",[],[1],[40],[0.6666666666666666],"[640.0, 512.0]",vertical,"(390.0, 762.0)",[1.4166666666666667],[0.619],1,530.61
1,False,56,1.101,66,[],[],"[(1080, 889)]",[],[1],[51],[0.85],"[640.0, 512.0]",horizontal,"(390.0, 762.0)",[0.5333333333333333],[0.801],0,535.893
1,False,57,0.814,48,[],[],"[(1098, 880)]",[],[1],[38],[0.6333333333333333],"[640.0, 512.0]",horizontal,"(390.0, 262.0)",[1.6],[0.589],1,540.46
1,False,58,0.731,43,[],[],"[(1093, 889)]",[],[1],[34],[0.5666666666666667],"[640.0, 512.0]",horizontal,"(890.0, 262.0)",[1.2833333333333332],[0.52],1,546.283
1,False,59,1.169,70,[],[],"[(1123, 888)]",[],[1],[36],[0.6],"[640.0, 512.0]",horizontal,"(890.0, 762.0)",[1.4166666666666667],[0.555],1,550.826
1,False,60,0.958,57,[],[],"[(1103, 881)]",[],[1],[35],[0.5833333333333334],"[640.0, 512.0]",vertical,"(890.0, 262.0)",[1.0333333333333332],[0.542],1,555.978
2,False,61,0.54,32,[],[],"[(1117, 884)]",[],[1],[35],[0.5833333333333334],"[640.0, 512.0]",horizontal,"(390.0, 262.0)",[1.2833333333333332],[0.535],1,560.725
2,False,62,0.673,40,[],[],"[(1081, 873)]",[],[1],[37],[0.6166666666666667],"[640.0, 512.0]",horizontal,"(890.0, 262.0)",[1.0666666666666667],[0.573],1,565.159
2,False,63,0.614,36,[],[],"[(1126, 871)]",[],[1],[33],[0.55],"[640.0, 512.0]",vertical,"(890.0, 262.0)",[1.1666666666666667],[0.509],1,569.661
2,False,64,1.172,70,[],[],"[(1080, 877)]",[],[1],[45],[0.75],"[640.0, 512.0]",vertical,"(890.0, 762.0)",[0.9666666666666667],[0.702],1,574.057
2,False,65,0.823,49,[],[],"[(1081, 866)]",[],[1],[36],[0.6],"[640.0, 512.0]",horizontal,"(390.0, 762.0)",[0.9666666666666667],[0.556],1,578.783
2,False,66,0.772,46,[],[],"[(1080, 862)]",[],[1],[42],[0.7],"[640.0, 512.0]",horizontal,"(390.0, 762.0)",[0.9666666666666667],[0.657],1,583.081
2,False,67,0.504,30,[],[],"[(1077, 877)]",[],[1],[36],[0.6],"[640.0, 512.0]",horizontal,"(890.0, 262.0)",[1.0333333333333332],[0.559],1,587.524
2,False,68,0.536,32,[],[],"[(1084, 880)]",[],[1],[33],[0.55],"[640.0, 512.0]",horizontal,"(890.0, 262.0)",[0.6666666666666666],[0.511],1,591.667
2,False,69,1.11,66,[],[],"[(1100, 894)]",[],[1],[33],[0.55],"[640.0, 512.0]",horizontal,"(890.0, 262.0)",[0.8833333333333333],[0.507],1,595.479
2,False,70,0.99,59,[],[],"[(1126, 895)]",[],[1],[36],[0.6],"[640.0, 512.0]",vertical,"(390.0, 762.0)",[1.2333333333333334],[0.56],1,600.04
2,False,71,1.166,69,[],[],"[(1081, 893)]",[],[1],[43],[0.7166666666666667],"[640.0, 512.0]",horizontal,"(890.0, 262.0)",[1.2666666666666666],[0.667],1,604.825
2,False,72,0.513,30,[],[],"[(1099, 886)]",[],[1],[34],[0.5666666666666667],"[640.0, 512.0]",horizontal,"(890.0, 762.0)",[0.5],[0.529],1,609.978
2,False,73,0.691,41,[],[],"[(1099, 865)]",[],[1],[32],[0.5333333333333333],"[640.0, 512.0]",vertical,"(890.0, 262.0)",[1.4166666666666667],[0.5],1,613.462
2,False,74,0.567,34,[],[],"[(1093, 886)]",[],[1],[36],[0.6],"[640.0, 512.0]",horizontal,"(890.0, 762.0)",[0.9166666666666666],[0.559],1,618.175
2,False,75,0.769,46,[],[],"[(1117, 882)]",[],[1],[34],[0.5666666666666667],"[640.0, 512.0]",horizontal,"(890.0, 262.0)",[1.4166666666666667],[0.526],1,622.25
2,False,76,0.623,37,[],[],"[(1116, 860)]",[],[1],[35],[0.5833333333333334],"[640.0, 512.0]",vertical,"(390.0, 262.0)",[0.7833333333333333],[0.536],1,627.029
2,False,77,0.808,48,[],[],"[(1124, 893)]",[],[1],[34],[0.5666666666666667],"[640.0, 512.0]",vertical,"(890.0, 762.0)",[0.9],[0.526],1,630.947
2,False,78,0.577,34,[],[],"[(1122, 871)]",[],[1],[51],[0.85],"[640.0, 512.0]",vertical,"(890.0, 262.0)",[0.5333333333333333],[0.804],0,635.245
2,False,79,0.588,35,[],[],"[(1078, 880)]",[],[1],[34],[0.5666666666666667],"[640.0, 512.0]",horizontal,"(890.0, 262.0)",[0.9],[0.524],1,639.099
2,False,80,1.096,65,[],[],"[(1085, 870)]",[],[1],[34],[0.5666666666666667],"[640.0, 512.0]",vertical,"(390.0, 262.0)",[1.2666666666666666],[0.521],1,643.78
2,False,81,0.95,57,[],[],"[(1080, 859)]",[],[1],[35],[0.5833333333333334],"[640.0, 512.0]",vertical,"(890.0, 762.0)",[0.9166666666666666],[0.539],1,648.732
2,False,82,0.592,35,[],[],"[(1080, 866)]",[],[1],[34],[0.5666666666666667],"[640.0, 512.0]",vertical,"(390.0, 762.0)",[1.2333333333333334],[0.522],1,654.43
2,False,83,0.622,37,[],[],"[(1087, 889)]",[],[1],[36],[0.6],"[640.0, 512.0]",horizontal,"(390.0, 762.0)",[0.85],[0.553],1,658.851
2,False,84,1.188,71,[],[],"[(1082, 870)]",[],[1],[36],[0.6],"[640.0, 512.0]",vertical,"(890.0, 262.0)",[0.5],[0.554],1,662.783
2,False,85,1.108,66,[],[],"[(1074, 890)]",[],[1],[40],[0.6666666666666666],"[640.0, 512.0]",horizontal,"(390.0, 762.0)",[0.8],[0.621],1,667.113
2,False,86,0.73,43,[],[],"[(1081, 905)]",[],[1],[34],[0.5666666666666667],"[640.0, 512.0]",vertical,"(890.0, 262.0)",[0.5666666666666667],[0.52],1,671.679
2,False,87,0.839,50,[],[],"[(1080, 884)]",[],[1],[36],[0.6],"[640.0, 512.0]",horizontal,"(890.0, 762.0)",[1.05],[0.567],1,675.555
2,False,88,0.764,45,[],[],"[(1080, 870)]",[],[1],[44],[0.7333333333333333],"[640.0, 512.0]",horizontal,"(890.0, 762.0)",[1.3833333333333333],[0.689],1,679.951
2,False,89,1.016,60,[],[],"[(1083, 886)]",[],[1],[32],[0.5333333333333333],"[640.0, 512.0]",vertical,"(890.0, 262.0)",[1.4666666666666666],[0.493],1,684.962
2,False,90,0.647,38,[],[],"[(1099, 876)]",[],[1],[34],[0.5666666666666667],"[640.0, 512.0]",horizontal,"(890.0, 262.0)",[1.0],[0.524],1,689.933
2,False,91,1.058,63,[],[],"[(1080, 880)]",[],[1],[36],[0.6],"[640.0, 512.0]",vertical,"(390.0, 262.0)",[1.35],[0.556],1,694.034
2,False,92,0.719,43,[],[],"[(1087, 873)]",[],[1],[40],[0.6666666666666666],"[640.0, 512.0]",vertical,"(890.0, 262.0)",[1.2666666666666666],[0.615],1,699.058
2,False,93,0.831,49,[],[],"[(1093, 869)]",[],[1],[36],[0.6],"[640.0, 512.0]",vertical,"(390.0, 762.0)",[1.5],[0.553],1,703.674
2,False,94,1.174,70,[],[],"[(1074, 885)]",[],[1],[23],[0.3833333333333333],"[640.0, 512.0]",vertical,"(390.0, 262.0)",[1.15],[0.342],1,708.622
2,False,95,1.159,69,[],[],"[(540, 742), (540, 838), (535, 856), (288, 856), (1170, 889)]",[],"[0, 0, 0, 0, 1]",[36],[0.6],"[640.0, 512.0]",vertical,"(390.0, 262.0)",[0.65],[0.563],1,713.314
2,False,96,0.73,43,[],[],"[(1106, 866)]",[],[1],[34],[0.5666666666666667],"[640.0, 512.0]",vertical,"(390.0, 762.0)",[1.1],[0.526],1,767.748
2,False,97,1.136,68,[],[],"[(1121, 873)]",[],[1],[38],[0.6333333333333333],"[640.0, 512.0]",horizontal,"(890.0, 762.0)",[1.35],[0.586],1,772.121
2,False,98,0.757,45,[],[],"[(1098, 884)]",[],[1],[51],[0.85],"[640.0, 512.0]",vertical,"(890.0, 262.0)",[0.5166666666666666],[0.796],0,777.117
2,False,99,1.0,60,[],[],"[(1080, 861)]",[],[1],[41],[0.6833333333333333],"[640.0, 512.0]",horizontal,"(890.0, 262.0)",[1.0666666666666667],[0.642],1,781.148
2,False,100,0.945,56,[],[],"[(1080, 880)]",[],[1],[36],[0.6],"[640.0, 512.0]",horizontal,"(890.0, 762.0)",[0.6833333333333333],[0.556],1,786.177
2,False,101,0.677,40,[],[],"[(1080, 863)]",[],[1],[51],[0.85],"[640.0, 512.0]",horizontal,"(390.0, 262.0)",[1.4333333333333333],[0.809],0,790.398
2,False,102,1.079,64,[],[],"[(1143, 902)]",[],[1],[39],[0.65],"[640.0, 512.0]",horizontal,"(390.0, 762.0)",[1.0333333333333332],[0.602],1,795.345
2,False,103,0.519,31,[],[],"[(1080, 880)]",[],[1],[34],[0.5666666666666667],"[640.0, 512.0]",horizontal,"(890.0, 262.0)",[0.8666666666666667],[0.524],1,900.461
2,False,104,0.772,46,[],[],"[(1115, 879)]",[],[1],[36],[0.6],"[640.0, 512.0]",vertical,"(890.0, 262.0)",[1.6],[0.561],1,904.513
2,False,105,0.776,46,[],[],"[(1105, 880)]",[],[1],[42],[0.7],"[640.0, 512.0]",vertical,"(890.0, 262.0)",[0.6166666666666667],[0.653],1,909.5
2,False,106,0.746,44,[],[],"[(1115, 885)]",[],[1],[35],[0.5833333333333334],"[640.0, 512.0]",vertical,"(890.0, 262.0)",[0.55],[0.544],1,913.483
2,False,107,0.939,56,[],[],"[(1116, 894)]",[],[1],[35],[0.5833333333333334],"[640.0, 512.0]",vertical,"(390.0, 762.0)",[1.0],[0.546],1,917.264
2,False,108,0.871,52,[],[],"[(1109, 880)]",[],[1],[34],[0.5666666666666667],"[640.0, 512.0]",vertical,"(390.0, 762.0)",[0.9333333333333333],[0.523],1,921.7
2,False,109,0.771,46,[],[],"[(1122, 884)]",[],[1],[37],[0.6166666666666667],"[640.0, 512.0]",horizontal,"(890.0, 262.0)",[0.9833333333333333],[0.573],1,926.177
2,False,110,0.84,50,[],[],"[(1179, 885)]",[],[1],[34],[0.5666666666666667],"[640.0, 512.0]",vertical,"(890.0, 762.0)",[1.6333333333333333],[0.525],1,930.495
2,False,111,0.529,31,[],[],"[(1082, 875)]",[],[1],[37],[0.6166666666666667],"[640.0, 512.0]",horizontal,"(390.0, 262.0)",[1.2333333333333334],[0.568],1,937.864
2,False,112,0.526,31,[],[],"[(1116, 848)]",[],[1],[36],[0.6],"[640.0, 512.0]",vertical,"(890.0, 262.0)",[1.0166666666666666],[0.556],1,942.333
2,False,113,0.642,38,[],[],"[(1137, 877)]",[],[1],[34],[0.5666666666666667],"[640.0, 512.0]",horizontal,"(390.0, 762.0)",[1.45],[0.523],1,947.599
2,False,114,0.769,46,[],[],"[(1123, 882)]",[],[1],[36],[0.6],"[640.0, 512.0]",horizontal,"(390.0, 762.0)",[1.2333333333333334],[0.557],1,953.036
2,False,115,1.189,71,[],[],"[(1127, 909)]",[],[1],[37],[0.6166666666666667],"[640.0, 512.0]",vertical,"(890.0, 762.0)",[1.4166666666666667],[0.573],1,957.627
2,False,116,0.977,58,[],[],"[(1105, 873)]",[],[1],[38],[0.6333333333333333],"[640.0, 512.0]",vertical,"(390.0, 262.0)",[1.2166666666666666],[0.591],1,963.06
2,False,117,0.93,55,[],[],"[(1107, 885)]",[],[1],[37],[0.6166666666666667],"[640.0, 512.0]",vertical,"(890.0, 262.0)",[0.9833333333333333],[0.573],1,967.868
2,False,118,1.188,71,[],[],"[(1081, 880)]",[],[1],[35],[0.5833333333333334],"[640.0, 512.0]",vertical,"(890.0, 262.0)",[0.7666666666666666],[0.542],1,972.401
2,False,119,0.632,37,[],[],"[(1103, 880)]",[],[1],[40],[0.6666666666666666],"[640.0, 512.0]",vertical,"(890.0, 762.0)",[1.1666666666666667],[0.619],1,976.784
2,False,120,0.895,53,[],[],"[(1080, 897)]",[],[1],[37],[0.6166666666666667],"[640.0, 512.0]",horizontal,"(390.0, 762.0)",[1.25],[0.573],1,981.35
3,False,121,0.726,43,[],[],"[(1106, 872)]",[],[1],[36],[0.6],"[640.0, 512.0]",vertical,"(390.0, 762.0)",[1.2666666666666666],[0.559],1,986.203
3,False,122,0.874,52,[],[],"[(1105, 880)]",[],[1],[36],[0.6],"[640.0, 512.0]",vertical,"(890.0, 762.0)",[1.5666666666666667],[0.56],1,990.707
3,False,123,0.557,33,[],[],"[(1112, 864)]",[],[1],[36],[0.6],"[640.0, 512.0]",vertical,"(890.0, 762.0)",[1.6333333333333333],[0.555],1,995.732
3,False,124,1.197,71,[],[],"[(1116, 875)]",[],[1],[37],[0.6166666666666667],"[640.0, 512.0]",vertical,"(890.0, 762.0)",[1.5833333333333333],[0.578],1,1000.484
3,False,125,1.13,67,[],[],"[(1075, 856)]",[],[1],[35],[0.5833333333333334],"[640.0, 512.0]",horizontal,"(390.0, 262.0)",[1.65],[0.544],1,1006.139
3,False,126,0.954,57,[],[],"[(1099, 866)]",[],[1],[36],[0.6],"[640.0, 512.0]",vertical,"(390.0, 762.0)",[1.4333333333333333],[0.558],1,1011.523
3,False,127,0.521,31,[],[],"[(1105, 895)]",[],[1],[41],[0.6833333333333333],"[640.0, 512.0]",vertical,"(890.0, 762.0)",[1.2833333333333332],[0.637],1,1016.344
3,False,128,0.796,47,[],[],"[(1081, 868)]",[],[1],[51],[0.85],"[640.0, 512.0]",vertical,"(890.0, 262.0)",[0.65],[0.807],0,1020.801
3,False,129,1.048,62,[],[],"[(1182, 885)]",[],[1],[43],[0.7166666666666667],"[640.0, 512.0]",horizontal,"(890.0, 262.0)",[0.6],[0.675],1,1025.168
3,False,130,0.585,35,[],[],"[(1111, 870)]",[],[1],[42],[0.7],"[640.0, 512.0]",vertical,"(390.0, 762.0)",[1.1],[0.66],1,1034.539
3,False,131,1.169,70,[],[],"[(1121, 870)]",[],[1],[32],[0.5333333333333333],"[640.0, 512.0]",vertical,"(890.0, 262.0)",[1.6833333333333333],[0.494],1,1038.988
3,False,132,0.975,58,[],[],"[(1106, 850)]",[],[1],[41],[0.6833333333333333],"[640.0, 512.0]",vertical,"(390.0, 262.0)",[0.9666666666666667],[0.643],1,1044.352
3,False,133,0.871,52,[],[],"[(1099, 859)]",[],[1],[40],[0.6666666666666666],"[640.0, 512.0]",horizontal,"(390.0, 762.0)",[0.6],[0.628],1,1048.903
3,False,134,0.797,47,[],[],"[(1129, 866)]",[],[1],[35],[0.5833333333333334],"[640.0, 512.0]",horizontal,"(390.0, 762.0)",[1.05],[0.545],1,1053.071
3,False,135,1.122,67,[],[],"[(1104, 856)]",[],[1],[43],[0.7166666666666667],"[640.0, 512.0]",horizontal,"(890.0, 262.0)",[0.5],[0.674],1,1057.492
3,False,136,1.008,60,[],[],"[(1080, 870)]",[],[1],[36],[0.6],"[640.0, 512.0]",horizontal,"(890.0, 262.0)",[0.6833333333333333],[0.559],1,1061.768
3,False,137,0.808,48,[],[],"[(1081, 851)]",[],[1],[37],[0.6166666666666667],"[640.0, 512.0]",horizontal,"(390.0, 762.0)",[1.4333333333333333],[0.577],1,1066.052
3,False,138,0.541,32,[],[],"[(1076, 872)]",[],[1],[36],[0.6],"[640.0, 512.0]",vertical,"(390.0, 262.0)",[1.1166666666666667],[0.559],1,1070.985
3,False,139,0.529,31,[],[],"[(1099, 866)]",[],[1],[36],[0.6],"[640.0, 512.0]",vertical,"(390.0, 762.0)",[1.6],[0.558],1,1075.15
3,False,140,1.039,62,[],[],"[(1099, 861)]",[],[1],[35],[0.5833333333333334],"[640.0, 512.0]",vertical,"(390.0, 762.0)",[1.4],[0.538],1,1079.735
3,False,141,0.758,45,[],[],"[(1117, 855)]",[],[1],[36],[0.6],"[640.0, 512.0]",horizontal,"(390.0, 262.0)",[0.8833333333333333],[0.558],1,1084.864
3,False,142,0.672,40,[],[],"[(1087, 864)]",[],[1],[35],[0.5833333333333334],"[640.0, 512.0]",horizontal,"(890.0, 762.0)",[1.0833333333333333],[0.541],1,1089.178
3,False,143,0.808,48,[],[],"[(1093, 842)]",[],[1],[33],[0.55],"[640.0, 512.0]",horizontal,"(390.0, 262.0)",[1.1833333333333333],[0.51],1,1093.51
3,False,144,0.775,46,[],[],"[(1085, 856)]",[],[1],[36],[0.6],"[640.0, 512.0]",horizontal,"(890.0, 762.0)",[0.7333333333333333],[0.554],1,1098.114
3,False,145,0.595,35,[],[],"[(1074, 876)]",[],[1],[45],[0.75],"[640.0, 512.0]",vertical,"(890.0, 262.0)",[0.8333333333333334],[0.71],1,1102.352
3,False,146,0.54,32,[],[],"[(1090, 863)]",[],[1],[35],[0.5833333333333334],"[640.0, 512.0]",vertical,"(390.0, 762.0)",[1.6666666666666667],[0.54],1,1106.551
3,False,147,0.866,51,[],[],"[(1080, 880)]",[],[1],[35],[0.5833333333333334],"[640.0, 512.0]",vertical,"(890.0, 762.0)",[1.4166666666666667],[0.542],1,1111.371
3,False,148,0.948,56,[],[],"[(1076, 875)]",[],[1],[38],[0.6333333333333333],"[640.0, 512.0]",vertical,"(890.0, 762.0)",[0.6166666666666667],[0.595],1,1116.224
3,False,149,1.151,69,[],[],"[(1123, 861)]",[],[1],[39],[0.65],"[640.0, 512.0]",horizontal,"(390.0, 262.0)",[0.8333333333333334],[0.612],1,1120.548
3,False,150,0.704,42,[],[],"[(1117, 863)]",[],[1],[39],[0.65],"[640.0, 512.0]",vertical,"(890.0, 762.0)",[1.6666666666666667],[0.608],1,1125.117
3,False,151,0.591,35,[],[],"[(1124, 846)]",[],[1],[36],[0.6],"[640.0, 512.0]",horizontal,"(390.0, 762.0)",[0.55],[0.558],1,1130.895
3,False,152,0.884,53,[],[],"[(1105, 858)]",[],[1],[51],[0.85],"[640.0, 512.0]",horizontal,"(390.0, 762.0)",[1.0833333333333333],[0.804],0,1134.695
3,False,153,1.092,65,[],[],"[(1173, 906)]",[],[1],[42],[0.7],"[640.0, 512.0]",vertical,"(390.0, 762.0)",[1.3],[0.654],1,1142.034
3,False,154,0.787,47,[],[],"[(1117, 864)]",[],[1],[36],[0.6],"[640.0, 512.0]",horizontal,"(890.0, 762.0)",[1.55],[0.565],1,1173.838
3,False,155,0.775,46,[],[],"[(1121, 893)]",[],[1],[33],[0.55],"[640.0, 512.0]",vertical,"(390.0, 262.0)",[1.0166666666666666],[0.508],1,1178.733
3,False,156,0.663,39,[],[],"[(1090, 861)]",[],[1],[37],[0.6166666666666667],"[640.0, 512.0]",vertical,"(390.0, 762.0)",[1.2666666666666666],[0.574],1,1183.118
3,False,157,0.664,39,[],[],"[(1111, 870)]",[],[1],[44],[0.7333333333333333],"[640.0, 512.0]",vertical,"(890.0, 762.0)",[1.4333333333333333],[0.69],1,1187.66
3,False,158,0.624,37,[],[],"[(1096, 859)]",[],[1],[35],[0.5833333333333334],"[640.0, 512.0]",horizontal,"(390.0, 262.0)",[1.0833333333333333],[0.541],1,1192.497
3,False,159,1.199,71,[],[],"[(1105, 863)]",[],[1],[35],[0.5833333333333334],"[640.0, 512.0]",vertical,"(890.0, 762.0)",[1.0166666666666666],[0.543],1,1196.828
3,False,160,1.087,65,[],[],"[(1081, 861)]",[],[1],[38],[0.6333333333333333],"[640.0, 512.0]",horizontal,"(890.0, 762.0)",[1.0],[0.592],1,1201.565
3,False,161,0.822,49,[],[],"[(1093, 865)]",[],[1],[39],[0.65],"[640.0, 512.0]",vertical,"(390.0, 762.0)",[1.6],[0.606],1,1206.318
3,False,162,0.884,53,[],[],"[(1092, 885)]",[],[1],[44],[0.7333333333333333],"[640.0, 512.0]",vertical,"(890.0, 762.0)",[0.6333333333333333],[0.694],1,1211.479
3,False,163,0.811,48,[],[],"[(1093, 845)]",[],[1],[45],[0.75],"[640.0, 512.0]",vertical,"(390.0, 262.0)",[1.4666666666666666],[0.717],1,1215.697
3,False,164,0.906,54,[],[],"[(1091, 866)]",[],[1],[43],[0.7166666666666667],"[640.0, 512.0]",horizontal,"(390.0, 762.0)",[0.6833333333333333],[0.675],1,1220.72
3,False,165,0.927,55,[],[],"[(1078, 857)]",[],[1],[37],[0.6166666666666667],"[640.0, 512.0]",vertical,"(890.0, 762.0)",[0.7833333333333333],[0.581],1,1224.862
3,False,166,0.899,53,[],[],"[(1099, 855)]",[],[1],[43],[0.7166666666666667],"[640.0, 512.0]",horizontal,"(390.0, 762.0)",[0.8166666666666667],[0.669],1,1229.199
3,False,167,1.183,70,[],[],"[(1091, 854)]",[],[1],[35],[0.5833333333333334],"[640.0, 512.0]",horizontal,"(890.0, 262.0)",[1.6666666666666667],[0.536],1,1233.736
3,False,168,0.858,51,[],[],"[(1102, 861)]",[],[1],[36],[0.6],"[640.0, 512.0]",horizontal,"(890.0, 762.0)",[0.8333333333333334],[0.557],1,1239.136
3,False,169,0.783,46,[],[],"[(1078, 860)]",[],[1],[46],[0.7666666666666666],"[640.0, 512.0]",vertical,"(390.0, 762.0)",[0.5666666666666667],[0.72],1,1243.469
3,False,170,0.979,58,[],[],"[(1080, 858)]",[],[1],[35],[0.5833333333333334],"[640.0, 512.0]",vertical,"(890.0, 262.0)",[0.9833333333333333],[0.542],1,1247.551
3,False,171,0.534,32,[],[],"[(1125, 875)]",[],[1],[38],[0.6333333333333333],"[640.0, 512.0]",vertical,"(890.0, 762.0)",[1.6],[0.592],1,1252.653
3,False,172,0.772,46,[],[],"[(1080, 861)]",[],[1],[37],[0.6166666666666667],"[640.0, 512.0]",horizontal,"(390.0, 762.0)",[1.5333333333333332],[0.575],1,1257.434
3,False,173,0.985,59,[],[],"[(1105, 885)]",[],[1],[42],[0.7],"[640.0, 512.0]",vertical,"(390.0, 762.0)",[0.6666666666666666],[0.657],1,1262.251
3,False,174,0.764,45,[],[],"[(1080, 867)]",[],[1],[51],[0.85],"[640.0, 512.0]",horizontal,"(390.0, 262.0)",[0.5333333333333333],[0.801],0,1266.948
3,False,175,0.596,35,[],[],"[(1136, 880)]",[],[1],[36],[0.6],"[640.0, 512.0]",vertical,"(390.0, 262.0)",[1.6833333333333333],[0.558],1,1271.219
3,False,176,0.756,45,[],[],"[(1078, 861)]",[],[1],[39],[0.65],"[640.0, 512.0]",vertical,"(390.0, 762.0)",[0.8333333333333334],[0.61],1,1276.167
3,False,177,0.851,51,[],[],"[(1117, 868)]",[],[1],[41],[0.6833333333333333],"[640.0, 512.0]",horizontal,"(890.0, 762.0)",[0.85],[0.642],1,1280.267
3,False,178,0.536,32,[],[],"[(1095, 870)]",[],[1],[35],[0.5833333333333334],"[640.0, 512.0]",vertical,"(890.0, 262.0)",[1.2666666666666666],[0.544],1,1284.714
3,False,179,0.912,54,[],[],"[(1081, 855)]",[],[1],[31],[0.5166666666666666],"[640.0, 512.0]",horizontal,"(890.0, 262.0)",[1.6833333333333333],[0.48],1,1289.059
3,False,180,1.13,67,[],[],"[(1103, 848)]",[],[1],[37],[0.6166666666666667],"[640.0, 512.0]",vertical,"(390.0, 762.0)",[1.45],[0.585],1,1294.348
4,False,181,1.118,67,[],[],"[(1103, 862)]",[],[1],[40],[0.6666666666666666],"[640.0, 512.0]",vertical,"(890.0, 262.0)",[1.0166666666666666],[0.63],1,1299.535
4,False,182,0.604,36,[],[],"[(1097, 855)]",[],[1],[46],[0.7666666666666666],"[640.0, 512.0]",vertical,"(390.0, 262.0)",[1.5],[0.718],1,1304.28
4,False,183,0.647,38,[],[],"[(1080, 872)]",[],[1],[51],[0.85],"[640.0, 512.0]",horizontal,"(890.0, 262.0)",[0.85],[0.799],0,1310.603
4,False,184,0.85,51,[],[],"[(1142, 888)]",[],[1],[38],[0.6333333333333333],"[640.0, 512.0]",vertical,"(390.0, 262.0)",[1.6166666666666667],[0.598],1,1314.91
4,False,185,0.832,49,[],[],"[(1099, 870)]",[],[1],[34],[0.5666666666666667],"[640.0, 512.0]",horizontal,"(890.0, 262.0)",[0.7833333333333333],[0.527],1,1321.886
4,False,186,1.137,68,[],[],"[(1105, 875)]",[],[1],[37],[0.6166666666666667],"[640.0, 512.0]",vertical,"(890.0, 262.0)",[1.3],[0.569],1,1326.026
4,False,187,0.58,34,[],[],"[(1117, 859)]",[],[1],[46],[0.7666666666666666],"[640.0, 512.0]",horizontal,"(890.0, 262.0)",[1.05],[0.723],1,1331.028
4,False,188,0.636,38,[],[],"[(1080, 876)]",[],[1],[34],[0.5666666666666667],"[640.0, 512.0]",horizontal,"(890.0, 762.0)",[1.4166666666666667],[0.541],1,1335.42
4,False,189,0.55,33,[],[],"[(1083, 852)]",[],[1],[36],[0.6],"[640.0, 512.0]",vertical,"(390.0, 762.0)",[0.9333333333333333],[0.556],1,1340.215
4,False,190,1.185,71,[],[],"[(1050, 875)]",[],[1],[37],[0.6166666666666667],"[640.0, 512.0]",horizontal,"(390.0, 762.0)",[0.6666666666666666],[0.569],1,1344.713
4,False,191,0.791,47,[],[],"[(1080, 858)]",[],[1],[36],[0.6],"[640.0, 512.0]",vertical,"(890.0, 262.0)",[1.6666666666666667],[0.559],1,1349.247
4,False,192,1.142,68,[],[],"[(1100, 861)]",[],[1],[38],[0.6333333333333333],"[640.0, 512.0]",horizontal,"(890.0, 762.0)",[0.7333333333333333],[0.597],1,1354.191
4,False,193,1.182,70,[],[],"[(1103, 880)]",[],[1],[51],[0.85],"[640.0, 512.0]",vertical,"(390.0, 262.0)",[0.5],[0.798],0,1358.632
4,False,194,0.631,37,[],[],"[(1119, 849)]",[],[1],[35],[0.5833333333333334],"[640.0, 512.0]",vertical,"(890.0, 262.0)",[0.8],[0.54],1,1363.008
4,False,195,1.166,69,[],[],"[(1080, 875)]",[],[1],[33],[0.55],"[640.0, 512.0]",horizontal,"(390.0, 262.0)",[1.5166666666666666],[0.508],1,1367.148
4,False,196,0.974,58,[],[],"[(1093, 857)]",[],[1],[43],[0.7166666666666667],"[640.0, 512.0]",vertical,"(390.0, 762.0)",[1.5],[0.666],1,1372.285
4,False,197,0.646,38,[],[],"[(1100, 858)]",[],[1],[36],[0.6],"[640.0, 512.0]",horizontal,"(390.0, 262.0)",[1.3666666666666667],[0.556],1,1377.418
4,False,198,0.569,34,[],[],"[(1080, 867)]",[],[1],[45],[0.75],"[640.0, 512.0]",horizontal,"(390.0, 762.0)",[1.6],[0.701],1,1381.929
4,False,199,0.591,35,[],[],"[(1085, 866)]",[],[1],[36],[0.6],"[640.0, 512.0]",vertical,"(390.0, 762.0)",[1.4166666666666667],[0.557],1,1386.82
4,False,200,0.713,42,[],[],"[(1080, 864)]",[],[1],[33],[0.55],"[640.0, 512.0]",horizontal,"(890.0, 262.0)",[1.0],[0.514],1,1391.547
4,False,201,0.585,35,[],[],"[(1020, 902), (1093, 866)]",[],"[0, 1]",[40],[0.6666666666666666],"[640.0, 512.0]",horizontal,"(890.0, 762.0)",[0.9666666666666667],[0.623],1,1395.9
4,False,202,1.188,71,[],[],"[(1080, 826)]",[],[1],[35],[0.5833333333333334],"[640.0, 512.0]",vertical,"(390.0, 262.0)",[1.3],[0.539],1,1430.051
4,False,203,0.94,56,[],[],"[(1123, 854)]",[],[1],[36],[0.6],"[640.0, 512.0]",vertical,"(390.0, 762.0)",[0.7333333333333333],[0.56],1,1435.106
4,False,204,0.723,43,[],[],"[(1085, 861)]",[],[1],[39],[0.65],"[640.0, 512.0]",horizontal,"(390.0, 762.0)",[1.6666666666666667],[0.606],1,1439.403
4,False,205,0.873,52,[],[],"[(1099, 861)]",[],[1],[35],[0.5833333333333334],"[640.0, 512.0]",vertical,"(890.0, 262.0)",[1.3833333333333333],[0.544],1,1444.382
4,False,206,0.646,38,[],[],"[(1057, 853)]",[],[1],[35],[0.5833333333333334],"[640.0, 512.0]",vertical,"(390.0, 262.0)",[1.3833333333333333],[0.537],1,1449.148
4,False,207,0.665,39,[],[],"[(1136, 851)]",[],[1],[48],[0.8],"[640.0, 512.0]",horizontal,"(390.0, 262.0)",[1.2166666666666666],[0.76],1,1453.871
4,False,208,0.944,56,[],[],"[(1074, 857)]",[],[1],[41],[0.6833333333333333],"[640.0, 512.0]",vertical,"(390.0, 762.0)",[0.8166666666666667],[0.637],1,1458.364
4,False,209,0.929,55,[],[],"[(1012, 833), (1117, 846)]",[],"[0, 1]",[39],[0.65],"[640.0, 512.0]",horizontal,"(890.0, 262.0)",[1.3166666666666667],[0.614],1,1464.669
4,False,210,0.983,58,[],[],"[(1128, 856)]",[],[1],[34],[0.5666666666666667],"[640.0, 512.0]",horizontal,"(390.0, 762.0)",[0.65],[0.526],1,1475.18
4,False,211,0.502,30,[],[],"[(1100, 885)]",[],[1],[45],[0.75],"[640.0, 512.0]",vertical,"(390.0, 762.0)",[1.3],[0.704],1,1479.285
4,False,212,0.891,53,[],[],"[(1093, 856)]",[],[1],[35],[0.5833333333333334],"[640.0, 512.0]",horizontal,"(390.0, 262.0)",[1.1666666666666667],[0.541],1,1483.781
4,False,213,0.739,44,[],[],"[(1109, 873)]",[],[1],[35],[0.5833333333333334],"[640.0, 512.0]",horizontal,"(890.0, 762.0)",[0.7666666666666666],[0.539],1,1488.421
4,False,214,0.794,47,[],[],"[(1093, 861)]",[],[1],[34],[0.5666666666666667],"[640.0, 512.0]",horizontal,"(890.0, 262.0)",[0.8333333333333334],[0.525],1,1492.501
4,False,215,0.967,58,[],[],"[(1080, 862)]",[],[1],[13],[0.21666666666666667],"[640.0, 512.0]",vertical,"(390.0, 262.0)",[1.2333333333333334],[0.182],1,1496.748
4,False,216,1.054,63,[],[],"[(1143, 867)]",[],[1],[47],[0.7833333333333333],"[640.0, 512.0]",horizontal,"(890.0, 762.0)",[1.4166666666666667],[0.737],1,1501.064
4,False,217,1.052,63,[],[],"[(745, 393), (470, 530), (397, 590), (1168, 906)]",[],"[0, 0, 0, 1]",[35],[0.5833333333333334],"[640.0, 512.0]",horizontal,"(390.0, 762.0)",[1.2166666666666666],[0.54],1,1506.434
4,False,218,0.536,32,[],[],"[(1060, 882)]",[],[1],[37],[0.6166666666666667],"[640.0, 512.0]",horizontal,"(390.0, 262.0)",[0.7666666666666666],[0.572],1,2626.904
4,False,219,0.611,36,[],[],"[(1002, 900), (1130, 885)]",[],"[0, 1]",[51],[0.85],"[640.0, 512.0]",horizontal,"(390.0, 762.0)",[0.6],[0.803],0,2630.881
4,False,220,0.802,48,[],[],"[(1148, 885)]",[],[1],[51],[0.85],"[640.0, 512.0]",vertical,"(890.0, 262.0)",[1.15],[0.807],0,2642.792
4,False,221,1.161,69,[],[],"[(1081, 875)]",[],[1],[43],[0.7166666666666667],"[640.0, 512.0]",vertical,"(890.0, 262.0)",[1.3666666666666667],[0.672],1,2647.542
4,False,222,0.658,39,[],[],"[(1099, 857)]",[],[1],[51],[0.85],"[640.0, 512.0]",vertical,"(890.0, 762.0)",[1.3],[0.802],0,2652.694
4,False,223,0.701,42,[],[],"[(1119, 880)]",[],[1],[51],[0.85],"[640.0, 512.0]",vertical,"(890.0, 262.0)",[0.7666666666666666],[0.799],0,2657.543
4,False,224,0.999,59,[],[],"[(1089, 852)]",[],[1],[36],[0.6],"[640.0, 512.0]",vertical,"(390.0, 762.0)",[1.1666666666666667],[0.558],1,2661.891
4,False,225,0.885,53,[],[],"[(1113, 870)]",[],[1],[36],[0.6],"[640.0, 512.0]",vertical,"(390.0, 262.0)",[0.6833333333333333],[0.562],1,2667.115
4,False,226,1.114,66,[],[],"[(1117, 800)]",[],[1],[51],[0.85],"[640.0, 512.0]",horizontal,"(890.0, 262.0)",[1.1166666666666667],[0.801],0,2671.322
4,False,227,0.744,44,[],[],"[(1116, 879)]",[],[1],[48],[0.8],"[640.0, 512.0]",vertical,"(390.0, 262.0)",[1.2166666666666666],[0.746],1,2676.376
4,False,228,1.19,71,[],[],"[(1086, 884)]",[],[1],[35],[0.5833333333333334],"[640.0, 512.0]",vertical,"(390.0, 762.0)",[0.7333333333333333],[0.54],1,2681.042
4,False,229,0.931,55,[],[],"[(1121, 866)]",[],[1],[51],[0.85],"[640.0, 512.0]",horizontal,"(890.0, 262.0)",[0.6833333333333333],[0.804],0,2685.575
4,False,230,1.199,71,[],[],"[(1093, 860)]",[],[1],[37],[0.6166666666666667],"[640.0, 512.0]",horizontal,"(890.0, 762.0)",[1.0166666666666666],[0.574],1,2690.06
4,False,231,0.65,39,[],[],"[(1129, 881)]",[],[1],[31],[0.5166666666666666],"[640.0, 512.0]",vertical,"(890.0, 262.0)",[0.7833333333333333],[0.474],1,2694.919
4,False,232,0.606,36,[],[],"[(1129, 893)]",[],[1],[],[],"[640.0, 512.0]",horizontal,"(890.0, 262.0)",[],[0],0,2698.729
4,False,233,0.594,35,[],[],"[(500, 532), (1092, 894)]",[],"[0, 1]",[36],[0.6],"[640.0, 512.0]",horizontal,"(390.0, 262.0)",[0.8166666666666667],[0.561],1,2702.654
4,False,234,0.72,43,[],[],"[(1136, 870)]",[],[1],[51],[0.85],"[640.0, 512.0]",vertical,"(890.0, 762.0)",[1.5166666666666666],[0.798],0,2708.152
4,False,235,0.959,57,[],[],"[(1166, 880)]",[],[1],[35],[0.5833333333333334],"[640.0, 512.0]",horizontal,"(890.0, 762.0)",[1.2],[0.539],1,2713.25
4,False,236,0.596,35,[],[],"[(1122, 862)]",[],[1],[51],[0.85],"[640.0, 512.0]",vertical,"(890.0, 262.0)",[1.3333333333333333],[0.802],0,2718.399
4,False,237,0.827,49,[],[],"[(1080, 850)]",[],[1],[47],[0.7833333333333333],"[640.0, 512.0]",vertical,"(390.0, 262.0)",[0.65],[0.735],1,2723.168
4,False,238,0.945,56,[],[],"[(1080, 889)]",[],[1],[32],[0.5333333333333333],"[640.0, 512.0]",horizontal,"(890.0, 262.0)",[0.9333333333333333],[0.492],1,2729.842
4,False,239,0.809,48,[],[],"[(1107, 866)]",[],[1],[35],[0.5833333333333334],"[640.0, 512.0]",horizontal,"(890.0, 262.0)",[0.5],[0.54],1,2734.108
4,False,240,0.773,46,[],[],"[(1120, 878)]",[],[1],[30],[0.5],"[640.0, 512.0]",horizontal,"(390.0, 762.0)",[1.3333333333333333],[0.462],1,2738.007
5,False,241,0.945,56,[],[],"[(1080, 872)]",[],[1],[51],[0.85],"[640.0, 512.0]",vertical,"(890.0, 262.0)",[1.6833333333333333],[0.802],0,2742.46
5,False,242,0.765,45,[],[],"[(1035, 867)]",[],[1],[49],[0.8166666666666667],"[640.0, 512.0]",horizontal,"(890.0, 262.0)",[1.35],[0.764],1,2748.705
5,False,243,0.72,43,[],[],"[(1093, 880)]",[],[1],[36],[0.6],"[640.0, 512.0]",vertical,"(890.0, 762.0)",[0.9833333333333333],[0.552],1,2757.09
5,False,244,0.787,47,[],[],"[(1098, 863)]",[],[1],[34],[0.5666666666666667],"[640.0, 512.0]",horizontal,"(390.0, 262.0)",[0.7833333333333333],[0.528],1,2761.81
5,False,245,0.979,58,[],[],"[(1080, 885)]",[],[1],[42],[0.7],"[640.0, 512.0]",vertical,"(890.0, 262.0)",[0.8666666666666667],[0.658],1,2767.154
5,False,246,0.897,53,[],[],"[(1080, 867)]",[],[1],[35],[0.5833333333333334],"[640.0, 512.0]",horizontal,"(890.0, 762.0)",[1.4666666666666666],[0.542],1,2771.609
5,False,247,0.907,54,[],[],"[(1026, 856), (1124, 870)]",[],"[0, 1]",[39],[0.65],"[640.0, 512.0]",vertical,"(390.0, 762.0)",[0.9833333333333333],[0.605],1,2776.479
5,False,248,1.003,60,[],[],"[(1105, 880)]",[],[1],[35],[0.5833333333333334],"[640.0, 512.0]",vertical,"(890.0, 762.0)",[0.8666666666666667],[0.535],1,2787.87
5,False,249,0.854,51,[],[],"[(1087, 875)]",[],[1],[33],[0.55],"[640.0, 512.0]",horizontal,"(390.0, 262.0)",[1.4],[0.507],1,2792.22
5,False,250,1.146,68,[],[],"[(1093, 871)]",[],[1],[33],[0.55],"[640.0, 512.0]",horizontal,"(390.0, 762.0)",[1.6666666666666667],[0.505],1,2796.855
5,False,251,0.993,59,[],[],"[(1069, 880)]",[],[1],[41],[0.6833333333333333],"[640.0, 512.0]",vertical,"(390.0, 262.0)",[1.15],[0.634],1,2802.251
5,False,252,0.818,49,[],[],"[(1082, 885)]",[],[1],[34],[0.5666666666666667],"[640.0, 512.0]",horizontal,"(890.0, 262.0)",[0.8666666666666667],[0.524],1,2806.913
5,False,253,1.069,64,[],[],"[(1081, 868)]",[],[1],[34],[0.5666666666666667],"[640.0, 512.0]",horizontal,"(390.0, 762.0)",[1.2666666666666666],[0.524],1,2811.114
5,False,254,0.777,46,[],[],"[(1080, 882)]",[],[1],[32],[0.5333333333333333],"[640.0, 512.0]",horizontal,"(390.0, 262.0)",[1.5166666666666666],[0.495],1,2815.926
5,False,255,0.923,55,[],[],"[(1099, 881)]",[],[1],[41],[0.6833333333333333],"[640.0, 512.0]",vertical,"(890.0, 762.0)",[0.5833333333333334],[0.635],1,2820.672
5,False,256,0.846,50,[],[],"[(1080, 861)]",[],[1],[36],[0.6],"[640.0, 512.0]",horizontal,"(890.0, 762.0)",[1.0833333333333333],[0.553],1,2824.735
5,False,257,1.047,62,[],[],"[(1080, 859)]",[],[1],[34],[0.5666666666666667],"[640.0, 512.0]",vertical,"(890.0, 762.0)",[1.0166666666666666],[0.525],1,2829.183
5,False,258,1.101,66,[],[],"[(1080, 890)]",[],[1],[31],[0.5166666666666666],"[640.0, 512.0]",vertical,"(890.0, 262.0)",[0.6],[0.477],1,2833.776
5,False,259,0.805,48,[],[],"[(1096, 871)]",[],[1],[32],[0.5333333333333333],"[640.0, 512.0]",horizontal,"(390.0, 762.0)",[0.7],[0.491],1,2838.084
5,False,260,0.96,57,[],[],"[(1075, 886)]",[],[1],[35],[0.5833333333333334],"[640.0, 512.0]",horizontal,"(390.0, 762.0)",[1.1333333333333333],[0.537],1,2842.012
5,False,261,1.099,65,[],[],"[(1080, 867)]",[],[1],[43],[0.7166666666666667],"[640.0, 512.0]",vertical,"(890.0, 262.0)",[1.45],[0.672],1,2846.577
5,False,262,1.002,60,[],[],"[(1080, 875)]",[],[1],[35],[0.5833333333333334],"[640.0, 512.0]",vertical,"(890.0, 762.0)",[1.3833333333333333],[0.539],1,2852.309
5,False,263,0.831,49,[],[],"[(1080, 859)]",[],[1],[34],[0.5666666666666667],"[640.0, 512.0]",vertical,"(890.0, 262.0)",[0.6],[0.526],1,2857.304
5,False,264,0.826,49,[],[],"[(1080, 869)]",[],[1],[37],[0.6166666666666667],"[640.0, 512.0]",horizontal,"(890.0, 762.0)",[1.2],[0.572],1,2861.137
5,False,265,1.079,64,[],[],"[(1081, 870)]",[],[1],[34],[0.5666666666666667],"[640.0, 512.0]",vertical,"(890.0, 762.0)",[1.0166666666666666],[0.523],1,2865.716
5,False,266,0.638,38,[],[],"[(1083, 864)]",[],[1],[36],[0.6],"[640.0, 512.0]",vertical,"(890.0, 762.0)",[1.4666666666666666],[0.559],1,2870.304
5,False,267,1.17,70,[],[],"[(1078, 870)]",[],[1],[44],[0.7333333333333333],"[640.0, 512.0]",horizontal,"(890.0, 762.0)",[1.1333333333333333],[0.687],1,2874.925
5,False,268,0.751,45,[],[],"[(1080, 880)]",[],[1],[34],[0.5666666666666667],"[640.0, 512.0]",horizontal,"(890.0, 262.0)",[0.6833333333333333],[0.52],1,2879.784
5,False,269,0.632,37,[],[],"[(1099, 856)]",[],[1],[38],[0.6333333333333333],"[640.0, 512.0]",vertical,"(390.0, 262.0)",[1.5333333333333332],[0.587],1,2883.693
5,False,270,1.075,64,[],[],"[(1080, 861)]",[],[1],[35],[0.5833333333333334],"[640.0, 512.0]",vertical,"(390.0, 762.0)",[1.05],[0.541],1,2888.404
5,False,271,1.083,64,[],[],"[(1084, 875)]",[],[1],[34],[0.5666666666666667],"[640.0, 512.0]",vertical,"(390.0, 762.0)",[1.6666666666666667],[0.533],1,2892.972
5,False,272,0.775,46,[],[],"[(1096, 868)]",[],[1],[10],[0.16666666666666666],"[640.0, 512.0]",horizontal,"(390.0, 762.0)",[1.0666666666666667],[0.133],1,2898.32
5,False,273,0.919,55,[],[],"[(1111, 877)]",[],[1],[34],[0.5666666666666667],"[640.0, 512.0]",horizontal,"(890.0, 762.0)",[1.45],[0.522],1,2902.358
5,False,274,0.768,46,[],[],"[(1086, 870)]",[],[1],[38],[0.6333333333333333],"[640.0, 512.0]",vertical,"(890.0, 262.0)",[1.45],[0.592],1,2907.338
5,False,275,0.955,57,[],[],"[(1074, 875)]",[],[1],[35],[0.5833333333333334],"[640.0, 512.0]",horizontal,"(890.0, 262.0)",[1.2333333333333334],[0.54],1,2914.061
5,False,276,0.805,48,[],[],"[(1080, 861)]",[],[1],[40],[0.6666666666666666],"[640.0, 512.0]",horizontal,"(890.0, 762.0)",[1.2],[0.629],1,2918.837
5,False,277,0.67,40,[],[],"[(1076, 865)]",[],[1],[35],[0.5833333333333334],"[640.0, 512.0]",vertical,"(890.0, 262.0)",[1.6],[0.539],1,2923.475
5,False,278,1.07,64,[],[],"[(1100, 866)]",[],[1],[42],[0.7],"[640.0, 512.0]",vertical,"(890.0, 762.0)",[1.5333333333333332],[0.656],1,2928.449
5,False,279,0.588,35,[],[],"[(1080, 868)]",[],[1],[34],[0.5666666666666667],"[640.0, 512.0]",vertical,"(890.0, 262.0)",[0.9],[0.524],1,2933.692
5,False,280,1.092,65,[],[],"[(1079, 857)]",[],[1],[34],[0.5666666666666667],"[640.0, 512.0]",horizontal,"(390.0, 762.0)",[0.5166666666666666],[0.526],1,2937.6
5,False,281,0.824,49,[],[],"[(1072, 865)]",[],[1],[27],[0.45],"[640.0, 512.0]",horizontal,"(390.0, 762.0)",[1.1333333333333333],[0.409],1,2941.761
5,False,282,0.829,49,[],[],"[(1080, 873)]",[],[1],[14],[0.23333333333333334],"[640.0, 512.0]",horizontal,"(890.0, 762.0)",[1.15],[0.2],1,2945.995
5,False,283,0.77,46,[],[],"[(1084, 857)]",[],[1],[38],[0.6333333333333333],"[640.0, 512.0]",vertical,"(390.0, 762.0)",[0.9],[0.588],1,2950.027
5,False,284,1.065,63,[],[],"[(1080, 862)]",[],[1],[35],[0.5833333333333334],"[640.0, 512.0]",vertical,"(390.0, 262.0)",[1.0],[0.548],1,2955.777
5,False,285,0.752,45,[],[],"[(1100, 863)]",[],[1],[37],[0.6166666666666667],"[640.0, 512.0]",horizontal,"(890.0, 262.0)",[0.6166666666666667],[0.576],1,2960.405
5,False,286,0.576,34,[],[],"[(1080, 881)]",[],[1],[51],[0.85],"[640.0, 512.0]",vertical,"(390.0, 262.0)",[1.2333333333333334],[0.805],0,2964.423
5,False,287,1.044,62,[],[],"[(1117, 851)]",[],[1],[35],[0.5833333333333334],"[640.0, 512.0]",horizontal,"(390.0, 262.0)",[0.7],[0.543],1,2969.19
5,False,288,0.658,39,[],[],"[(1087, 867)]",[],[1],[35],[0.5833333333333334],"[640.0, 512.0]",horizontal,"(390.0, 762.0)",[0.9333333333333333],[0.542],1,2973.54
5,False,289,1.093,65,[],[],"[(1105, 879)]",[],[1],[33],[0.55],"[640.0, 512.0]",vertical,"(890.0, 262.0)",[1.5],[0.508],1,2977.654
5,False,290,0.57,34,[],[],"[(1122, 859)]",[],[1],[33],[0.55],"[640.0, 512.0]",horizontal,"(890.0, 262.0)",[0.9],[0.506],1,2982.788
5,False,291,0.772,46,[],[],"[(1080, 853)]",[],[1],[33],[0.55],"[640.0, 512.0]",vertical,"(390.0, 762.0)",[1.65],[0.512],1,2986.709
5,False,292,0.583,34,[],[],"[(1081, 870)]",[],[1],[36],[0.6],"[640.0, 512.0]",vertical,"(890.0, 762.0)",[0.6833333333333333],[0.563],1,2991.608
5,False,293,0.979,58,[],[],"[(1117, 865)]",[],[1],[37],[0.6166666666666667],"[640.0, 512.0]",vertical,"(890.0, 762.0)",[0.5833333333333334],[0.571],1,2995.36
5,False,294,0.625,37,[],[],"[(1124, 867)]",[],[1],[34],[0.5666666666666667],"[640.0, 512.0]",vertical,"(390.0, 262.0)",[1.5833333333333333],[0.524],1,2999.457
5,False,295,1.191,71,[],[],"[(1105, 871)]",[],[1],[37],[0.6166666666666667],"[640.0, 512.0]",horizontal,"(890.0, 762.0)",[0.5333333333333333],[0.575],1,3004.209
5,False,296,0.97,58,[],[],"[(1123, 870)]",[],[1],[35],[0.5833333333333334],"[640.0, 512.0]",vertical,"(890.0, 262.0)",[1.6333333333333333],[0.544],1,3008.571
5,False,297,0.703,42,[],[],"[(1098, 855)]",[],[1],[33],[0.55],"[640.0, 512.0]",vertical,"(390.0, 762.0)",[1.4166666666666667],[0.509],1,3013.658
5,False,298,0.968,58,[],[],"[(1080, 863)]",[],[1],[34],[0.5666666666666667],"[640.0, 512.0]",vertical,"(390.0, 262.0)",[1.3333333333333333],[0.519],1,3018.197
5,False,299,0.757,45,[],[],"[(1124, 866)]",[],[1],[36],[0.6],"[640.0, 512.0]",horizontal,"(890.0, 262.0)",[0.5666666666666667],[0.555],1,3023.108
5,False,300,0.759,45,[],[],"[(1123, 875)]",[],[1],[33],[0.55],"[640.0, 512.0]",vertical,"(390.0, 262.0)",[1.0833333333333333],[0.508],1,3026.93
6,False,301,1.058,63,[],[],"[(1108, 856)]",[],[1],[32],[0.5333333333333333],"[640.0, 512.0]",vertical,"(890.0, 262.0)",[0.55],[0.491],1,3031.327
6,False,302,1.036,62,[],[],"[(1074, 880)]",[],[1],[32],[0.5333333333333333],"[640.0, 512.0]",horizontal,"(890.0, 262.0)",[0.5333333333333333],[0.492],1,3035.422
6,False,303,0.977,58,[],[],"[(1083, 843)]",[],[1],[34],[0.5666666666666667],"[640.0, 512.0]",horizontal,"(890.0, 762.0)",[0.9166666666666666],[0.524],1,3039.418
6,False,304,0.775,46,[],[],"[(1103, 877)]",[],[1],[32],[0.5333333333333333],"[640.0, 512.0]",vertical,"(390.0, 262.0)",[1.4333333333333333],[0.493],1,3043.878
6,False,305,0.671,40,[],[],"[(1121, 870)]",[],[1],[34],[0.5666666666666667],"[640.0, 512.0]",vertical,"(890.0, 762.0)",[1.3],[0.525],1,3048.534
6,False,306,1.173,70,[],[],"[(1081, 865)]",[],[1],[36],[0.6],"[640.0, 512.0]",vertical,"(390.0, 762.0)",[1.0166666666666666],[0.549],1,3053.096
6,False,307,0.693,41,[],[],"[(1074, 854)]",[],[1],[34],[0.5666666666666667],"[640.0, 512.0]",horizontal,"(390.0, 262.0)",[1.35],[0.527],1,3057.992
6,False,308,0.77,46,[],[],"[(1123, 861)]",[],[1],[34],[0.5666666666666667],"[640.0, 512.0]",vertical,"(390.0, 262.0)",[1.3166666666666667],[0.52],1,3062.516
6,False,309,1.079,64,[],[],"[(1093, 863)]",[],[1],[36],[0.6],"[640.0, 512.0]",vertical,"(890.0, 762.0)",[0.55],[0.559],1,3067.193
6,False,310,1.086,65,[],[],"[(1083, 851)]",[],[1],[36],[0.6],"[640.0, 512.0]",vertical,"(390.0, 262.0)",[0.9833333333333333],[0.556],1,3071.461
6,False,311,0.665,39,[],[],"[(1117, 866)]",[],[1],[37],[0.6166666666666667],"[640.0, 512.0]",horizontal,"(390.0, 262.0)",[0.9666666666666667],[0.579],1,3076.057
6,False,312,0.585,35,[],[],"[(1080, 837)]",[],[1],[38],[0.6333333333333333],"[640.0, 512.0]",horizontal,"(890.0, 762.0)",[0.9166666666666666],[0.587],1,3081.91
6,False,313,0.586,35,[],[],"[(1105, 856)]",[],[1],[40],[0.6666666666666666],"[640.0, 512.0]",vertical,"(390.0, 762.0)",[1.5833333333333333],[0.619],1,3085.94
6,False,314,0.67,40,[],[],"[(1080, 838)]",[],[1],[44],[0.7333333333333333],"[640.0, 512.0]",vertical,"(890.0, 762.0)",[1.1666666666666667],[0.691],1,3090.679
6,False,315,0.729,43,[],[],"[(1105, 871)]",[],[1],[38],[0.6333333333333333],"[640.0, 512.0]",vertical,"(890.0, 262.0)",[0.7833333333333333],[0.586],1,3095.199
6,False,316,0.93,55,[],[],"[(1105, 853)]",[],[1],[33],[0.55],"[640.0, 512.0]",horizontal,"(390.0, 262.0)",[0.9],[0.504],1,3099.321
6,False,317,0.887,53,[],[],"[(1115, 864)]",[],[1],[38],[0.6333333333333333],"[640.0, 512.0]",vertical,"(890.0, 762.0)",[1.65],[0.595],1,3103.629
6,False,318,1.098,65,[],[],"[(1081, 873)]",[],[1],[35],[0.5833333333333334],"[640.0, 512.0]",vertical,"(390.0, 762.0)",[1.3166666666666667],[0.542],1,3108.804
6,False,319,0.654,39,[],[],"[(1080, 859)]",[],[1],[51],[0.85],"[640.0, 512.0]",horizontal,"(890.0, 262.0)",[1.4],[0.804],0,3113.752
6,False,320,0.749,44,[],[],"[(1118, 885)]",[],[1],[33],[0.55],"[640.0, 512.0]",vertical,"(390.0, 262.0)",[1.2666666666666666],[0.506],1,3118.561
6,False,321,0.887,53,[],[],"[(1045, 857)]",[],[1],[34],[0.5666666666666667],"[640.0, 512.0]",horizontal,"(390.0, 262.0)",[1.0333333333333332],[0.523],1,3123.891
6,False,322,1.197,71,[],[],"[(1100, 846)]",[],[1],[37],[0.6166666666666667],"[640.0, 512.0]",vertical,"(390.0, 262.0)",[0.8666666666666667],[0.575],1,3128.258
6,False,323,0.683,40,[],[],"[(1080, 855)]",[],[1],[39],[0.65],"[640.0, 512.0]",vertical,"(890.0, 762.0)",[0.7333333333333333],[0.61],1,3132.857
6,False,324,0.704,42,[],[],"[(1092, 837)]",[],[1],[37],[0.6166666666666667],"[640.0, 512.0]",vertical,"(390.0, 762.0)",[0.65],[0.58],1,3137.888
6,False,325,0.927,55,[],[],"[(1080, 859)]",[],[1],[35],[0.5833333333333334],"[640.0, 512.0]",horizontal,"(390.0, 762.0)",[0.8333333333333334],[0.548],1,3141.859
6,False,326,0.548,32,[],[],"[(1104, 860)]",[],[1],[45],[0.75],"[640.0, 512.0]",horizontal,"(890.0, 262.0)",[1.2833333333333332],[0.706],1,3146.168
6,False,327,0.617,37,[],[],"[(1099, 866)]",[],[1],[46],[0.7666666666666666],"[640.0, 512.0]",vertical,"(890.0, 262.0)",[0.6],[0.721],1,3150.578
6,False,328,0.959,57,[],[],"[(1105, 871)]",[],[1],[36],[0.6],"[640.0, 512.0]",vertical,"(890.0, 762.0)",[1.2333333333333334],[0.558],1,3154.585
6,False,329,0.628,37,[],[],"[(1085, 860)]",[],[1],[33],[0.55],"[640.0, 512.0]",vertical,"(890.0, 262.0)",[1.1333333333333333],[0.507],1,3159.289
6,False,330,1.012,60,[],[],"[(1111, 865)]",[],[1],[48],[0.8],"[640.0, 512.0]",vertical,"(390.0, 762.0)",[0.6333333333333333],[0.754],1,3163.59
6,False,331,0.982,58,[],[],"[(1093, 838)]",[],[1],[32],[0.5333333333333333],"[640.0, 512.0]",vertical,"(390.0, 262.0)",[0.6833333333333333],[0.494],1,3168.127
6,False,332,0.785,47,[],[],"[(1076, 846)]",[],[1],[34],[0.5666666666666667],"[640.0, 512.0]",horizontal,"(890.0, 762.0)",[0.75],[0.526],1,3172.209
6,False,333,0.641,38,[],[],"[(1096, 842)]",[],[1],[44],[0.7333333333333333],"[640.0, 512.0]",vertical,"(390.0, 262.0)",[0.55],[0.686],1,3176.432
6,False,334,0.738,44,[],[],"[(1093, 846)]",[],[1],[34],[0.5666666666666667],"[640.0, 512.0]",horizontal,"(890.0, 762.0)",[0.75],[0.52],1,3180.361
6,False,335,1.103,66,[],[],"[(1074, 845)]",[],[1],[39],[0.65],"[640.0, 512.0]",vertical,"(390.0, 762.0)",[0.6166666666666667],[0.608],1,3184.377
6,False,336,0.619,37,[],[],"[(1105, 871)]",[],[1],[35],[0.5833333333333334],"[640.0, 512.0]",vertical,"(390.0, 762.0)",[0.7],[0.542],1,3188.777
6,False,337,0.578,34,[],[],"[(1090, 862)]",[],[1],[42],[0.7],"[640.0, 512.0]",vertical,"(390.0, 262.0)",[1.4666666666666666],[0.654],1,3192.56
6,False,338,0.546,32,[],[],"[(1099, 850)]",[],[1],[39],[0.65],"[640.0, 512.0]",horizontal,"(890.0, 762.0)",[0.6333333333333333],[0.61],1,3197.289
6,False,339,0.897,53,[],[],"[(1124, 870)]",[],[1],[36],[0.6],"[640.0, 512.0]",vertical,"(390.0, 262.0)",[1.2666666666666666],[0.559],1,3201.171
6,False,340,1.067,64,[],[],"[(1076, 866)]",[],[1],[43],[0.7166666666666667],"[640.0, 512.0]",horizontal,"(890.0, 262.0)",[0.5333333333333333],[0.678],1,3205.825
6,False,341,0.579,34,[],[],"[(1113, 869)]",[],[1],[42],[0.7],"[640.0, 512.0]",vertical,"(390.0, 762.0)",[1.0833333333333333],[0.659],1,3210.424
6,False,342,0.809,48,[],[],"[(1094, 861)]",[],[1],[42],[0.7],"[640.0, 512.0]",vertical,"(890.0, 262.0)",[1.4666666666666666],[0.66],1,3214.956
6,False,343,0.83,49,[],[],"[(1157, 870)]",[],[1],[35],[0.5833333333333334],"[640.0, 512.0]",horizontal,"(390.0, 762.0)",[0.7666666666666666],[0.549],1,3219.933
6,False,344,1.079,64,[],[],"[(1129, 852)]",[],[1],[37],[0.6166666666666667],"[640.0, 512.0]",vertical,"(890.0, 262.0)",[1.4666666666666666],[0.581],1,3235.477
6,False,345,0.982,58,[],[],"[(1093, 870)]",[],[1],[34],[0.5666666666666667],"[640.0, 512.0]",horizontal,"(390.0, 762.0)",[0.7333333333333333],[0.524],1,3240.608
6,False,346,0.823,49,[],[],"[(1105, 861)]",[],[1],[41],[0.6833333333333333],"[640.0, 512.0]",vertical,"(390.0, 762.0)",[1.4833333333333334],[0.638],1,3244.786
6,False,347,0.961,57,[],[],"[(1109, 866)]",[],[1],[31],[0.5166666666666666],"[640.0, 512.0]",vertical,"(390.0, 262.0)",[1.3833333333333333],[0.476],1,3249.758
6,False,348,0.609,36,[],[],"[(1123, 875)]",[],[1],[35],[0.5833333333333334],"[640.0, 512.0]",horizontal,"(390.0, 762.0)",[0.5],[0.542],1,3254.542
6,False,349,0.508,30,[],[],"[(1110, 870)]",[],[1],[35],[0.5833333333333334],"[640.0, 512.0]",vertical,"(890.0, 262.0)",[0.75],[0.539],1,3258.156
6,False,350,0.883,52,[],[],"[(1116, 894)]",[],[1],[35],[0.5833333333333334],"[640.0, 512.0]",horizontal,"(390.0, 762.0)",[1.1166666666666667],[0.544],1,3262.023
6,False,351,0.967,58,[],[],"[(1096, 866)]",[],[1],[51],[0.85],"[640.0, 512.0]",vertical,"(390.0, 762.0)",[0.6166666666666667],[0.803],0,3317.588
6,False,352,0.737,44,[],[],"[(1136, 898)]",[],[1],[51],[0.85],"[640.0, 512.0]",horizontal,"(390.0, 262.0)",[0.5],[0.798],0,3322.015
6,False,353,0.626,37,[],[],"[(1130, 858)]",[],[1],[32],[0.5333333333333333],"[640.0, 512.0]",horizontal,"(890.0, 262.0)",[1.6166666666666667],[0.497],1,3484.542
6,False,354,0.787,47,[],[],"[(1121, 885)]",[],[1],[32],[0.5333333333333333],"[640.0, 512.0]",vertical,"(390.0, 262.0)",[1.55],[0.488],1,3489.238
6,False,355,0.528,31,[],[],"[(1123, 879)]",[],[1],[34],[0.5666666666666667],"[640.0, 512.0]",vertical,"(390.0, 262.0)",[0.8],[0.527],1,3494.078
6,False,356,0.658,39,[],[],"[(1136, 876)]",[],[1],[33],[0.55],"[640.0, 512.0]",horizontal,"(890.0, 262.0)",[0.8833333333333333],[0.509],1,3497.873
6,False,357,0.668,40,[],[],"[(1074, 875)]",[],[1],[37],[0.6166666666666667],"[640.0, 512.0]",horizontal,"(890.0, 262.0)",[0.6],[0.571],1,3502.006
6,False,358,0.948,56,[],[],"[(1123, 875)]",[],[1],[35],[0.5833333333333334],"[640.0, 512.0]",vertical,"(890.0, 762.0)",[1.1166666666666667],[0.545],1,3515.944
6,False,359,0.949,56,[],[],"[(1100, 881)]",[],[1],[37],[0.6166666666666667],"[640.0, 512.0]",vertical,"(390.0, 762.0)",[0.6333333333333333],[0.578],1,3520.476
6,False,360,0.539,32,[],[],"[(1093, 884)]",[],[1],[28],[0.4666666666666667],"[640.0, 512.0]",vertical,"(390.0, 262.0)",[0.9666666666666667],[0.429],1,3524.655
7,False,361,0.549,32,[],[],"[(1089, 878)]",[],[1],[34],[0.5666666666666667],"[640.0, 512.0]",horizontal,"(890.0, 762.0)",[1.6],[0.532],1,3528.611
7,False,362,0.534,32,[],[],"[(1093, 851)]",[],[1],[32],[0.5333333333333333],"[640.0, 512.0]",vertical,"(890.0, 262.0)",[1.35],[0.492],1,3533.259
7,False,363,0.59,35,[],[],"[(1121, 870)]",[],[1],[],[],"[640.0, 512.0]",vertical,"(890.0, 262.0)",[],[0],0,3544.028
7,False,364,1.044,62,[],[],"[(1098, 851)]",[],[1],[34],[0.5666666666666667],"[640.0, 512.0]",vertical,"(890.0, 762.0)",[0.95],[0.526],1,3547.807
7,False,365,0.657,39,[],[],"[(1112, 889)]",[],[1],[32],[0.5333333333333333],"[640.0, 512.0]",vertical,"(890.0, 262.0)",[1.5333333333333332],[0.49],1,3554.147
7,False,366,1.057,63,[],[],"[(1099, 862)]",[],[1],[31],[0.5166666666666666],"[640.0, 512.0]",horizontal,"(890.0, 262.0)",[0.65],[0.479],1,3558.78
7,False,367,1.005,60,[],[],"[(1104, 884)]",[],[1],[51],[0.85],"[640.0, 512.0]",vertical,"(390.0, 262.0)",[1.2833333333333332],[0.801],0,3562.996
7,False,368,0.597,35,[],[],"[(1149, 859)]",[],[1],[36],[0.6],"[640.0, 512.0]",vertical,"(390.0, 262.0)",[0.55],[0.556],1,3567.958
7,False,369,0.95,57,[],[],"[(1112, 878)]",[],[1],[33],[0.55],"[640.0, 512.0]",horizontal,"(890.0, 262.0)",[0.8666666666666667],[0.507],1,3571.946
7,False,370,1.131,67,[],[],"[(1153, 880)]",[],[1],[34],[0.5666666666666667],"[640.0, 512.0]",vertical,"(890.0, 262.0)",[0.7666666666666666],[0.526],1,3576.296
7,False,371,0.563,33,[],[],"[(1080, 860)]",[],[1],[37],[0.6166666666666667],"[640.0, 512.0]",vertical,"(890.0, 762.0)",[1.1833333333333333],[0.574],1,3580.773
7,False,372,0.77,46,[],[],"[(1151, 877)]",[],[1],[33],[0.55],"[640.0, 512.0]",horizontal,"(890.0, 262.0)",[1.2833333333333332],[0.507],1,3585.048
7,False,373,0.896,53,[],[],"[(1100, 861)]",[],[1],[33],[0.55],"[640.0, 512.0]",horizontal,"(390.0, 262.0)",[0.7333333333333333],[0.511],1,3589.626
7,False,374,1.165,69,[],[],"[(1093, 861)]",[],[1],[32],[0.5333333333333333],"[640.0, 512.0]",vertical,"(390.0, 262.0)",[1.45],[0.494],1,3593.604
7,False,375,1.189,71,[],[],"[(1136, 863)]",[],[1],[35],[0.5833333333333334],"[640.0, 512.0]",vertical,"(390.0, 762.0)",[1.65],[0.538],1,3598.655
7,False,376,0.545,32,[],[],"[(1097, 870)]",[],[1],[37],[0.6166666666666667],"[640.0, 512.0]",horizontal,"(390.0, 262.0)",[1.2333333333333334],[0.573],1,3604.109
7,False,377,0.81,48,[],[],"[(1099, 870)]",[],[1],[43],[0.7166666666666667],"[640.0, 512.0]",vertical,"(390.0, 262.0)",[1.2833333333333332],[0.67],1,3608.313
7,False,378,0.677,40,[],[],"[(1087, 859)]",[],[1],[37],[0.6166666666666667],"[640.0, 512.0]",vertical,"(390.0, 762.0)",[1.6],[0.573],1,3612.996
7,False,379,0.603,36,[],[],"[(1101, 854)]",[],[1],[31],[0.5166666666666666],"[640.0, 512.0]",horizontal,"(390.0, 762.0)",[1.5333333333333332],[0.477],1,3618.908
7,False,380,0.523,31,[],[],"[(1112, 870)]",[],[1],[35],[0.5833333333333334],"[640.0, 512.0]",vertical,"(890.0, 762.0)",[1.4166666666666667],[0.543],1,3623.562
7,False,381,1.155,69,[],[],"[(1099, 872)]",[],[1],[38],[0.6333333333333333],"[640.0, 512.0]",horizontal,"(890.0, 762.0)",[1.3333333333333333],[0.586],1,3628.008
7,False,382,1.125,67,[],[],"[(1080, 880)]",[],[1],[36],[0.6],"[640.0, 512.0]",vertical,"(890.0, 262.0)",[0.9333333333333333],[0.555],1,3633.013
7,False,383,1.151,69,[],[],"[(1174, 889)]",[],[1],[35],[0.5833333333333334],"[640.0, 512.0]",vertical,"(890.0, 262.0)",[1.4166666666666667],[0.542],1,3637.542
7,False,384,0.515,30,[],[],"[(1120, 854)]",[],[1],[38],[0.6333333333333333],"[640.0, 512.0]",horizontal,"(890.0, 262.0)",[0.7333333333333333],[0.592],1,3656.397
7,False,385,0.668,40,[],[],"[(1113, 861)]",[],[1],[34],[0.5666666666666667],"[640.0, 512.0]",vertical,"(890.0, 262.0)",[1.15],[0.528],1,3660.298
7,False,386,1.079,64,[],[],"[(1120, 872)]",[],[1],[35],[0.5833333333333334],"[640.0, 512.0]",vertical,"(890.0, 762.0)",[1.3166666666666667],[0.539],1,3664.627
7,False,387,0.619,37,[],[],"[(1101, 889)]",[],[1],[50],[0.8333333333333334],"[640.0, 512.0]",vertical,"(890.0, 262.0)",[0.7833333333333333],[0.791],1,3669.512
7,False,388,0.504,30,[],[],"[(1126, 880)]",[],[1],[35],[0.5833333333333334],"[640.0, 512.0]",vertical,"(390.0, 762.0)",[1.3],[0.54],1,3673.751
7,False,389,1.011,60,[],[],"[(1085, 875)]",[],[1],[36],[0.6],"[640.0, 512.0]",horizontal,"(890.0, 262.0)",[0.5666666666666667],[0.557],1,3678.057
7,False,390,0.554,33,[],[],"[(1087, 854)]",[],[1],[36],[0.6],"[640.0, 512.0]",horizontal,"(390.0, 762.0)",[0.9333333333333333],[0.555],1,3682.345
7,False,391,1.099,65,[],[],"[(1123, 868)]",[],[1],[37],[0.6166666666666667],"[640.0, 512.0]",vertical,"(390.0, 762.0)",[1.6166666666666667],[0.577],1,3686.362
7,False,392,1.111,66,[],[],"[(1110, 871)]",[],[1],[36],[0.6],"[640.0, 512.0]",vertical,"(390.0, 262.0)",[0.8833333333333333],[0.562],1,3691.672
7,False,393,0.994,59,[],[],"[(1153, 863)]",[],[1],[35],[0.5833333333333334],"[640.0, 512.0]",vertical,"(890.0, 762.0)",[0.6666666666666666],[0.542],1,3696.23
7,False,394,1.155,69,[],[],"[(1113, 859)]",[],[1],[36],[0.6],"[640.0, 512.0]",vertical,"(890.0, 262.0)",[0.8],[0.557],1,3710.53
7,False,395,0.753,45,[],[],"[(1107, 890)]",[],[1],[42],[0.7],"[640.0, 512.0]",vertical,"(390.0, 762.0)",[0.8],[0.658],1,3714.938
7,False,396,1.106,66,[],[],"[(1099, 880)]",[],[1],[37],[0.6166666666666667],"[640.0, 512.0]",vertical,"(390.0, 262.0)",[0.8833333333333333],[0.573],1,3719.109
7,False,397,0.601,36,[],[],"[(1100, 879)]",[],[1],[39],[0.65],"[640.0, 512.0]",horizontal,"(390.0, 262.0)",[0.6],[0.604],1,3723.71
7,False,398,0.757,45,[],[],"[(1129, 865)]",[],[1],[34],[0.5666666666666667],"[640.0, 512.0]",vertical,"(390.0, 762.0)",[1.3166666666666667],[0.525],1,3727.525
7,False,399,0.683,40,[],[],"[(1125, 861)]",[],[1],[36],[0.6],"[640.0, 512.0]",vertical,"(390.0, 762.0)",[0.8333333333333334],[0.556],1,3732.133
7,False,400,1.197,71,[],[],"[(1081, 866)]",[],[1],[38],[0.6333333333333333],"[640.0, 512.0]",horizontal,"(890.0, 762.0)",[0.6833333333333333],[0.594],1,3736.097
7,False,401,0.986,59,[],[],"[(1111, 856)]",[],[1],[33],[0.55],"[640.0, 512.0]",horizontal,"(890.0, 262.0)",[1.6166666666666667],[0.508],1,3740.725
7,False,402,0.726,43,[],[],"[(1069, 880)]",[],[1],[35],[0.5833333333333334],"[640.0, 512.0]",vertical,"(390.0, 262.0)",[0.6],[0.542],1,3745.824
7,False,403,0.749,44,[],[],"[(1123, 861)]",[],[1],[],[],"[640.0, 512.0]",vertical,"(390.0, 262.0)",[],[0],0,3749.681
7,False,404,1.169,70,[],[],"[(1055, 855)]",[],[1],[29],[0.48333333333333334],"[640.0, 512.0]",vertical,"(890.0, 262.0)",[1.1833333333333333],[0.446],1,3753.696
7,False,405,1.119,67,[],[],"[(1112, 860)]",[],[1],[34],[0.5666666666666667],"[640.0, 512.0]",horizontal,"(890.0, 262.0)",[1.1],[0.526],1,3759.095
7,False,406,0.531,31,[],[],"[(1123, 852)]",[],[1],[34],[0.5666666666666667],"[640.0, 512.0]",vertical,"(890.0, 262.0)",[1.6833333333333333],[0.527],1,3763.727
7,False,407,0.972,58,[],[],"[(1120, 861)]",[],[1],[32],[0.5333333333333333],"[640.0, 512.0]",horizontal,"(890.0, 262.0)",[1.15],[0.486],1,3768.486
7,False,408,0.782,46,[],[],"[(1117, 881)]",[],[1],[9],[0.15],"[640.0, 512.0]",vertical,"(890.0, 262.0)",[1.15],[0.12],1,3772.944
7,False,409,1.128,67,[],[],"[(1123, 861)]",[],[1],[12],[0.2],"[640.0, 512.0]",horizontal,"(390.0, 262.0)",[0.8666666666666667],[0.166],1,3776.947
7,False,410,0.962,57,[],[],"[(1113, 868)]",[],[1],[37],[0.6166666666666667],"[640.0, 512.0]",vertical,"(890.0, 762.0)",[0.9],[0.575],1,3781.177
7,False,411,0.575,34,[],[],"[(1102, 851)]",[],[1],[36],[0.6],"[640.0, 512.0]",horizontal,"(890.0, 262.0)",[1.6],[0.557],1,3785.598
7,False,412,0.824,49,[],[],"[(1074, 849)]",[],[1],[36],[0.6],"[640.0, 512.0]",horizontal,"(390.0, 262.0)",[0.55],[0.56],1,3790.931
7,False,413,0.711,42,[],[],"[(1105, 870)]",[],[1],[37],[0.6166666666666667],"[640.0, 512.0]",horizontal,"(390.0, 762.0)",[0.95],[0.572],1,3794.96
7,False,414,0.752,45,[],[],"[(1103, 875)]",[],[1],[34],[0.5666666666666667],"[640.0, 512.0]",horizontal,"(890.0, 762.0)",[1.5333333333333332],[0.528],1,3799.171
7,False,415,0.885,53,[],[],"[(1136, 860)]",[],[1],[39],[0.65],"[640.0, 512.0]",vertical,"(390.0, 262.0)",[0.5833333333333334],[0.607],1,3803.888
7,False,416,0.736,44,[],[],"[(1096, 857)]",[],[1],[38],[0.6333333333333333],"[640.0, 512.0]",horizontal,"(890.0, 762.0)",[1.1333333333333333],[0.599],1,3807.964
7,False,417,0.9,54,[],[],"[(1099, 859)]",[],[1],[49],[0.8166666666666667],"[640.0, 512.0]",vertical,"(390.0, 762.0)",[1.6166666666666667],[0.774],1,3812.481
7,False,418,0.875,52,[],[],"[(1104, 852)]",[],[1],[32],[0.5333333333333333],"[640.0, 512.0]",horizontal,"(890.0, 262.0)",[1.2],[0.488],1,3817.726
7,False,419,0.796,47,[],[],"[(1123, 871)]",[],[1],[43],[0.7166666666666667],"[640.0, 512.0]",vertical,"(390.0, 262.0)",[1.2],[0.674],1,3822.208
7,False,420,0.717,43,[],[],"[(1099, 870)]",[],[1],[35],[0.5833333333333334],"[640.0, 512.0]",horizontal,"(890.0, 762.0)",[1.55],[0.536],1,3829.478
8,False,421,1.099,65,[],[],"[(1056, 852)]",[],[1],[35],[0.5833333333333334],"[640.0, 512.0]",horizontal,"(390.0, 262.0)",[0.95],[0.54],1,3834.17
8,False,422,0.785,47,[],[],"[(1098, 867)]",[],[1],[33],[0.55],"[640.0, 512.0]",vertical,"(890.0, 262.0)",[1.4833333333333334],[0.509],1,3840.763
8,False,423,0.576,34,[],[],"[(1097, 859)]",[],[1],[34],[0.5666666666666667],"[640.0, 512.0]",vertical,"(390.0, 262.0)",[0.8],[0.524],1,3847.946
8,False,424,0.754,45,[],[],"[(1112, 861)]",[],[1],[32],[0.5333333333333333],"[640.0, 512.0]",vertical,"(890.0, 262.0)",[1.4833333333333334],[0.493],1,3851.849
8,False,425,0.933,55,[],[],"[(1107, 859)]",[],[1],[33],[0.55],"[640.0, 512.0]",vertical,"(890.0, 762.0)",[0.5166666666666666],[0.52],1,3856.836
8,False,426,0.526,31,[],[],"[(1120, 880)]",[],[1],[45],[0.75],"[640.0, 512.0]",vertical,"(890.0, 262.0)",[1.35],[0.706],1,3860.727
8,False,427,0.738,44,[],[],"[(1110, 859)]",[],[1],[38],[0.6333333333333333],"[640.0, 512.0]",vertical,"(390.0, 262.0)",[1.4333333333333333],[0.59],1,3865.244
8,False,428,1.064,63,[],[],"[(1102, 848)]",[],[1],[37],[0.6166666666666667],"[640.0, 512.0]",vertical,"(390.0, 762.0)",[1.0166666666666666],[0.57],1,3870.047
8,False,429,1.185,71,[],[],"[(1122, 880)]",[],[1],[35],[0.5833333333333334],"[640.0, 512.0]",vertical,"(390.0, 762.0)",[0.75],[0.538],1,3874.724
8,False,430,0.708,42,[],[],"[(1121, 856)]",[],[1],[36],[0.6],"[640.0, 512.0]",horizontal,"(890.0, 762.0)",[0.65],[0.561],1,3879.255
8,False,431,0.674,40,[],[],"[(1093, 847)]",[],[1],[38],[0.6333333333333333],"[640.0, 512.0]",vertical,"(890.0, 262.0)",[1.2333333333333334],[0.584],1,3883.127
8,False,432,0.807,48,[],[],"[(1074, 870)]",[],[1],[45],[0.75],"[640.0, 512.0]",vertical,"(390.0, 762.0)",[0.9833333333333333],[0.701],1,3894.251
8,False,433,1.101,66,[],[],"[(1120, 875)]",[],[1],[45],[0.75],"[640.0, 512.0]",horizontal,"(390.0, 762.0)",[1.45],[0.703],1,3898.783
8,False,434,0.698,41,[],[],"[(1078, 879)]",[],[1],[37],[0.6166666666666667],"[640.0, 512.0]",vertical,"(390.0, 262.0)",[1.1833333333333333],[0.575],1,3904.034
8,False,435,0.935,56,[],[],"[(1117, 875)]",[],[1],[33],[0.55],"[640.0, 512.0]",vertical,"(890.0, 762.0)",[0.9833333333333333],[0.507],1,3908.452
8,False,436,1.172,70,[],[],"[(1093, 876)]",[],[1],[35],[0.5833333333333334],"[640.0, 512.0]",vertical,"(890.0, 762.0)",[1.5666666666666667],[0.544],1,3912.937
8,False,437,0.593,35,[],[],"[(1099, 865)]",[],[1],[37],[0.6166666666666667],"[640.0, 512.0]",vertical,"(390.0, 262.0)",[0.6166666666666667],[0.574],1,3918.092
8,False,438,0.798,47,[],[],"[(1177, 891)]",[],[1],[47],[0.7833333333333333],"[640.0, 512.0]",vertical,"(390.0, 762.0)",[0.5166666666666666],[0.729],1,3921.921
8,False,439,0.623,37,[],[],"[(1099, 861)]",[],[1],[37],[0.6166666666666667],"[640.0, 512.0]",horizontal,"(890.0, 762.0)",[1.05],[0.572],1,3954.925
8,False,440,0.828,49,[],[],"[(1182, 856)]",[],[1],[35],[0.5833333333333334],"[640.0, 512.0]",horizontal,"(390.0, 262.0)",[0.6833333333333333],[0.537],1,3959.065
8,False,441,0.715,42,[],[],"[(1093, 875)]",[],[1],[35],[0.5833333333333334],"[640.0, 512.0]",horizontal,"(390.0, 262.0)",[0.7833333333333333],[0.539],1,3963.093
8,False,442,0.669,40,[],[],"[(1120, 867)]",[],[1],[34],[0.5666666666666667],"[640.0, 512.0]",vertical,"(390.0, 762.0)",[0.8833333333333333],[0.528],1,3967.16
8,False,443,0.968,58,[],[],"[(1120, 880)]",[],[1],[28],[0.4666666666666667],"[640.0, 512.0]",vertical,"(390.0, 262.0)",[0.8],[0.423],1,3971.156
8,False,444,0.648,38,[],[],"[(1105, 861)]",[],[1],[37],[0.6166666666666667],"[640.0, 512.0]",vertical,"(890.0, 762.0)",[0.9833333333333333],[0.578],1,3975.455
8,False,445,0.796,47,[],[],"[(1099, 862)]",[],[1],[38],[0.6333333333333333],"[640.0, 512.0]",horizontal,"(390.0, 762.0)",[1.55],[0.591],1,3979.712
8,False,446,0.53,31,[],[],"[(1100, 868)]",[],[1],[39],[0.65],"[640.0, 512.0]",horizontal,"(390.0, 262.0)",[0.6666666666666666],[0.61],1,3985.665
8,False,447,1.038,62,[],[],"[(1118, 870)]",[],[1],[37],[0.6166666666666667],"[640.0, 512.0]",vertical,"(390.0, 262.0)",[0.9333333333333333],[0.575],1,3989.492
8,False,448,0.87,52,[],[],"[(1115, 899)]",[],[1],[51],[0.85],"[640.0, 512.0]",horizontal,"(890.0, 262.0)",[1.4333333333333333],[0.795],0,3994.06
8,False,449,0.799,47,[],[],"[(1087, 846)]",[],[1],[37],[0.6166666666666667],"[640.0, 512.0]",vertical,"(890.0, 262.0)",[0.8666666666666667],[0.573],1,3999.348
8,False,450,0.841,50,[],[],"[(1153, 832)]",[],[1],[13],[0.21666666666666667],"[640.0, 512.0]",horizontal,"(890.0, 262.0)",[1.5833333333333333],[0.186],1,4003.88
8,False,451,1.027,61,[],[],"[(1117, 854)]",[],[1],[29],[0.48333333333333334],"[640.0, 512.0]",vertical,"(890.0, 262.0)",[1.4166666666666667],[0.437],1,4008.46
8,False,452,0.831,49,[],[],"[(1111, 856)]",[],[1],[37],[0.6166666666666667],"[640.0, 512.0]",vertical,"(390.0, 762.0)",[1.4833333333333334],[0.569],1,4013.725
8,False,453,0.611,36,[],[],"[(1089, 887)]",[],[1],[35],[0.5833333333333334],"[640.0, 512.0]",vertical,"(390.0, 762.0)",[1.0833333333333333],[0.54],1,4018.65
8,False,454,0.659,39,[],[],"[(1098, 858)]",[],[1],[34],[0.5666666666666667],"[640.0, 512.0]",vertical,"(390.0, 762.0)",[0.6666666666666666],[0.53],1,4082.522
8,False,455,0.921,55,[],[],"[(1098, 873)]",[],[1],[],[],"[640.0, 512.0]",horizontal,"(390.0, 762.0)",[],[0],0,4086.452
8,False,456,0.946,56,[],[],"[(1076, 892)]",[],[1],[31],[0.5166666666666666],"[640.0, 512.0]",horizontal,"(390.0, 762.0)",[0.55],[0.477],1,4090.387
8,False,457,1.199,71,[],[],"[(1087, 876)]",[],[1],[31],[0.5166666666666666],"[640.0, 512.0]",horizontal,"(390.0, 262.0)",[0.9333333333333333],[0.478],1,4364.919
8,False,458,1.007,60,[],[],"[(1105, 875)]",[],[1],[32],[0.5333333333333333],"[640.0, 512.0]",vertical,"(890.0, 262.0)",[1.0833333333333333],[0.489],1,4370.112
8,False,459,0.652,39,[],[],"[(1136, 855)]",[],[1],[31],[0.5166666666666666],"[640.0, 512.0]",horizontal,"(890.0, 262.0)",[0.7166666666666667],[0.483],1,4374.65
8,False,460,0.885,53,[],[],"[(1131, 876)]",[],[1],[39],[0.65],"[640.0, 512.0]",horizontal,"(890.0, 262.0)",[0.65],[0.609],1,4378.464
8,False,461,0.588,35,[],[],"[(1115, 888)]",[],[1],[34],[0.5666666666666667],"[640.0, 512.0]",vertical,"(890.0, 762.0)",[0.7333333333333333],[0.527],1,4382.513
8,False,462,0.616,36,[],[],"[(1130, 897)]",[],[1],[],[],"[640.0, 512.0]",vertical,"(390.0, 262.0)",[],[0],0,4386.41
8,False,463,1.125,67,[],[],"[(1101, 856)]",[],[1],[32],[0.5333333333333333],"[640.0, 512.0]",horizontal,"(890.0, 262.0)",[0.5833333333333334],[0.497],1,4390.112
8,False,464,0.546,32,[],[],"[(1121, 881)]",[],[1],[],[],"[640.0, 512.0]",vertical,"(390.0, 762.0)",[],[0],0,4395.01
8,False,465,0.574,34,[],[],"[(1120, 852)]",[],[1],[34],[0.5666666666666667],"[640.0, 512.0]",vertical,"(890.0, 262.0)",[1.1333333333333333],[0.523],1,4398.712
8,False,466,0.672,40,[],[],"[(1117, 864)]",[],[1],[29],[0.48333333333333334],"[640.0, 512.0]",horizontal,"(390.0, 262.0)",[0.75],[0.449],1,4403.562
8,False,467,1.079,64,[],[],"[(1114, 880)]",[],[1],[31],[0.5166666666666666],"[640.0, 512.0]",horizontal,"(890.0, 762.0)",[0.5166666666666666],[0.473],1,4407.367
8,False,468,0.847,50,[],[],"[(1143, 875)]",[],[1],[32],[0.5333333333333333],"[640.0, 512.0]",horizontal,"(890.0, 262.0)",[0.9166666666666666],[0.497],1,4411.446
8,False,469,0.901,54,[],[],"[(1143, 864)]",[],[1],[],[],"[640.0, 512.0]",horizontal,"(890.0, 762.0)",[],[0],0,4415.667
8,False,470,0.834,50,[],[],"[(1138, 863)]",[],[1],[23],[0.3833333333333333],"[640.0, 512.0]",vertical,"(390.0, 262.0)",[0.95],[0.346],1,4419.567
8,False,471,1.139,68,[],[],"[(1133, 867)]",[],[1],[37],[0.6166666666666667],"[640.0, 512.0]",horizontal,"(890.0, 762.0)",[1.1666666666666667],[0.579],1,4423.883
8,False,472,0.779,46,[],[],"[(1118, 876)]",[],[1],[32],[0.5333333333333333],"[640.0, 512.0]",horizontal,"(890.0, 262.0)",[0.7166666666666667],[0.493],1,4428.825
8,False,473,0.901,54,[],[],"[(1099, 874)]",[],[1],[36],[0.6],"[640.0, 512.0]",vertical,"(390.0, 762.0)",[1.4],[0.565],1,4435.868
8,False,474,0.768,46,[],[],"[(1100, 857)]",[],[1],[23],[0.3833333333333333],"[640.0, 512.0]",vertical,"(890.0, 762.0)",[1.1166666666666667],[0.344],1,4440.611
8,False,475,0.58,34,[],[],"[(1111, 864)]",[],[1],[33],[0.55],"[640.0, 512.0]",horizontal,"(890.0, 762.0)",[0.5166666666666666],[0.507],1,4445.418
8,False,476,0.97,58,[],[],"[(1121, 880)]",[],[1],[46],[0.7666666666666666],"[640.0, 512.0]",vertical,"(390.0, 762.0)",[0.75],[0.723],1,4449.172
8,False,477,0.879,52,[],[],"[(1073, 872)]",[],[1],[],[],"[640.0, 512.0]",vertical,"(390.0, 262.0)",[],[0],0,4453.567
8,False,478,1.11,66,[],[],"[(1121, 879)]",[],[1],[33],[0.55],"[640.0, 512.0]",vertical,"(390.0, 762.0)",[0.6666666666666666],[0.514],1,4457.794
8,False,479,0.777,46,[],[],"[(1117, 880)]",[],[1],[30],[0.5],"[640.0, 512.0]",horizontal,"(890.0, 262.0)",[0.55],[0.458],1,4463.346
8,False,480,0.618,37,[],[],"[(1120, 862)]",[],[1],[39],[0.65],"[640.0, 512.0]",horizontal,"(890.0, 762.0)",[1.5833333333333333],[0.605],1,4467.196
9,False,481,0.631,37,[],[],"[(1109, 863)]",[],[1],[34],[0.5666666666666667],"[640.0, 512.0]",vertical,"(890.0, 762.0)",[1.1],[0.524],1,4471.923
9,False,482,0.695,41,[],[],"[(1093, 870)]",[],[1],[39],[0.65],"[640.0, 512.0]",vertical,"(890.0, 762.0)",[0.6166666666666667],[0.616],1,4476.297
9,False,483,1.142,68,[],[],"[(1080, 847)]",[],[1],[34],[0.5666666666666667],"[640.0, 512.0]",horizontal,"(390.0, 262.0)",[1.1],[0.52],1,4480.312
9,False,484,0.688,41,[],[],"[(1134, 861)]",[],[1],[25],[0.4166666666666667],"[640.0, 512.0]",vertical,"(390.0, 262.0)",[1.35],[0.375],1,4485.029
9,False,485,0.943,56,[],[],"[(1106, 862)]",[],[1],[34],[0.5666666666666667],"[640.0, 512.0]",horizontal,"(890.0, 762.0)",[1.6833333333333333],[0.529],1,4489.479
9,False,486,0.907,54,[],[],"[(1142, 840)]",[],[1],[29],[0.48333333333333334],"[640.0, 512.0]",horizontal,"(890.0, 262.0)",[1.6],[0.446],1,4494.563
9,False,487,1.197,71,[],[],"[(1074, 856)]",[],[1],[30],[0.5],"[640.0, 512.0]",vertical,"(890.0, 262.0)",[0.5333333333333333],[0.461],1,4499.348
9,False,488,0.533,31,[],[],"[(1051, 866)]",[],[1],[40],[0.6666666666666666],"[640.0, 512.0]",horizontal,"(890.0, 262.0)",[1.0],[0.625],1,4503.448
9,False,489,1.09,65,[],[],"[(1111, 868)]",[],[1],[30],[0.5],"[640.0, 512.0]",vertical,"(890.0, 262.0)",[1.0333333333333332],[0.461],1,4507.551
9,False,490,0.918,55,[],[],"[(1105, 876)]",[],[1],[34],[0.5666666666666667],"[640.0, 512.0]",vertical,"(390.0, 762.0)",[0.6666666666666666],[0.523],1,4512.035
9,False,491,0.713,42,[],[],"[(1087, 859)]",[],[1],[35],[0.5833333333333334],"[640.0, 512.0]",horizontal,"(890.0, 262.0)",[1.5],[0.547],1,4516.35
9,False,492,0.879,52,[],[],"[(1093, 870)]",[],[1],[33],[0.55],"[640.0, 512.0]",horizontal,"(890.0, 262.0)",[0.6166666666666667],[0.507],1,4521.219
9,False,493,0.855,51,[],[],"[(1103, 854)]",[],[1],[40],[0.6666666666666666],"[640.0, 512.0]",vertical,"(390.0, 762.0)",[1.55],[0.625],1,4525.234
9,False,494,0.929,55,[],[],"[(1108, 859)]",[],[1],[42],[0.7],"[640.0, 512.0]",vertical,"(390.0, 262.0)",[1.3333333333333333],[0.655],1,4530.217
9,False,495,0.646,38,[],[],"[(1103, 866)]",[],[1],[33],[0.55],"[640.0, 512.0]",vertical,"(890.0, 262.0)",[1.6166666666666667],[0.51],1,4535.18
9,False,496,0.834,50,[],[],"[(1114, 872)]",[],[1],[35],[0.5833333333333334],"[640.0, 512.0]",horizontal,"(390.0, 762.0)",[1.2],[0.542],1,4539.957
9,False,497,0.835,50,[],[],"[(1077, 860)]",[],[1],[34],[0.5666666666666667],"[640.0, 512.0]",horizontal,"(390.0, 762.0)",[1.3666666666666667],[0.534],1,4544.666
9,False,498,1.141,68,[],[],"[(1163, 875)]",[],[1],[33],[0.55],"[640.0, 512.0]",vertical,"(390.0, 262.0)",[1.6166666666666667],[0.518],1,4549.361
9,False,499,0.873,52,[],[],"[(1081, 865)]",[],[1],[33],[0.55],"[640.0, 512.0]",vertical,"(890.0, 262.0)",[1.1333333333333333],[0.51],1,4554.626
9,False,500,0.942,56,[],[],"[(1091, 827)]",[],[1],[35],[0.5833333333333334],"[640.0, 512.0]",vertical,"(890.0, 762.0)",[0.95],[0.541],1,4559.173
9,False,501,1.162,69,[],[],"[(1108, 869)]",[],[1],[33],[0.55],"[640.0, 512.0]",horizontal,"(390.0, 762.0)",[1.6833333333333333],[0.511],1,4563.54
9,False,502,0.984,59,[],[],"[(1098, 862)]",[],[1],[34],[0.5666666666666667],"[640.0, 512.0]",horizontal,"(890.0, 262.0)",[0.5666666666666667],[0.524],1,4568.922
9,False,503,0.786,47,[],[],"[(1101, 865)]",[],[1],[35],[0.5833333333333334],"[640.0, 512.0]",vertical,"(890.0, 762.0)",[1.3666666666666667],[0.538],1,4573.003
9,False,504,0.753,45,[],[],"[(1080, 863)]",[],[1],[],[],"[640.0, 512.0]",vertical,"(890.0, 762.0)",[],[0],0,4577.625
9,False,505,0.998,59,[],[],"[(1117, 846)]",[],[1],[33],[0.55],"[640.0, 512.0]",vertical,"(890.0, 762.0)",[0.9833333333333333],[0.509],1,4581.642
9,False,506,0.568,34,[],[],"[(1098, 852)]",[],[1],[32],[0.5333333333333333],"[640.0, 512.0]",vertical,"(890.0, 762.0)",[0.8666666666666667],[0.491],1,4587.196
9,False,507,0.507,30,[],[],"[(1128, 874)]",[],[1],[34],[0.5666666666666667],"[640.0, 512.0]",horizontal,"(390.0, 262.0)",[1.2166666666666666],[0.52],1,4591.166
9,False,508,1.042,62,[],[],"[(1099, 866)]",[],[1],[34],[0.5666666666666667],"[640.0, 512.0]",vertical,"(390.0, 262.0)",[1.6666666666666667],[0.524],1,4596.139
9,False,509,1.18,70,[],[],"[(1106, 864)]",[],[1],[31],[0.5166666666666666],"[640.0, 512.0]",vertical,"(890.0, 262.0)",[1.5333333333333332],[0.48],1,4601.433
9,False,510,0.861,51,[],[],"[(1100, 855)]",[],[1],[31],[0.5166666666666666],"[640.0, 512.0]",horizontal,"(390.0, 262.0)",[1.5666666666666667],[0.48],1,4606.727
9,False,511,1.146,68,[],[],"[(1100, 854)]",[],[1],[37],[0.6166666666666667],"[640.0, 512.0]",vertical,"(390.0, 762.0)",[1.5333333333333332],[0.578],1,4611.601
9,False,512,0.811,48,[],[],"[(1117, 858)]",[],[1],[40],[0.6666666666666666],"[640.0, 512.0]",vertical,"(890.0, 262.0)",[0.5],[0.629],1,4616.831
9,False,513,1.062,63,[],[],"[(1122, 860)]",[],[1],[37],[0.6166666666666667],"[640.0, 512.0]",horizontal,"(890.0, 762.0)",[1.3],[0.569],1,4620.797
9,False,514,1.065,63,[],[],"[(1113, 853)]",[],[1],[32],[0.5333333333333333],"[640.0, 512.0]",vertical,"(390.0, 762.0)",[1.6166666666666667],[0.495],1,4625.718
9,False,515,0.999,59,[],[],"[(1114, 862)]",[],[1],[33],[0.55],"[640.0, 512.0]",vertical,"(890.0, 262.0)",[1.2333333333333334],[0.508],1,4630.902
9,False,516,1.008,60,[],[],"[(1096, 880)]",[],[1],[35],[0.5833333333333334],"[640.0, 512.0]",horizontal,"(390.0, 762.0)",[0.5],[0.553],1,4636.229
9,False,517,0.944,56,[],[],"[(1096, 857)]",[],[1],[35],[0.5833333333333334],"[640.0, 512.0]",vertical,"(390.0, 762.0)",[0.9333333333333333],[0.543],1,4640.247
9,False,518,1.008,60,[],[],"[(1089, 846)]",[],[1],[34],[0.5666666666666667],"[640.0, 512.0]",vertical,"(890.0, 762.0)",[1.1333333333333333],[0.526],1,4644.648
9,False,519,0.933,55,[],[],"[(1081, 863)]",[],[1],[33],[0.55],"[640.0, 512.0]",vertical,"(890.0, 262.0)",[1.3666666666666667],[0.51],1,4649.372
9,False,520,1.178,70,[],[],"[(1074, 851)]",[],[1],[34],[0.5666666666666667],"[640.0, 512.0]",horizontal,"(390.0, 262.0)",[1.25],[0.523],1,4654.262
9,False,521,1.141,68,[],[],"[(1105, 856)]",[],[1],[35],[0.5833333333333334],"[640.0, 512.0]",horizontal,"(890.0, 762.0)",[0.65],[0.54],1,4659.346
9,False,522,1.045,62,[],[],"[(1099, 888)]",[],[1],[33],[0.55],"[640.0, 512.0]",vertical,"(890.0, 762.0)",[1.0166666666666666],[0.511],1,4663.733
9,False,523,0.601,36,[],[],"[(1100, 859)]",[],[1],[34],[0.5666666666666667],"[640.0, 512.0]",vertical,"(890.0, 262.0)",[0.65],[0.525],1,4738.651
9,False,524,1.077,64,[],[],"[(1099, 868)]",[],[1],[38],[0.6333333333333333],"[640.0, 512.0]",horizontal,"(390.0, 762.0)",[1.35],[0.591],1,4742.44
9,False,525,0.769,46,[],[],"[(1080, 880)]",[],[1],[48],[0.8],"[640.0, 512.0]",vertical,"(890.0, 762.0)",[1.35],[0.756],1,4747.513
9,False,526,0.925,55,[],[],"[(1080, 859)]",[],[1],[36],[0.6],"[640.0, 512.0]",horizontal,"(890.0, 762.0)",[0.9166666666666666],[0.555],1,4752.38
9,False,527,0.545,32,[],[],"[(1074, 874)]",[],[1],[35],[0.5833333333333334],"[640.0, 512.0]",horizontal,"(390.0, 262.0)",[1.0333333333333332],[0.538],1,4794.799
9,False,528,1.07,64,[],[],"[(1111, 866)]",[],[1],[32],[0.5333333333333333],"[640.0, 512.0]",vertical,"(390.0, 262.0)",[1.5333333333333332],[0.493],1,4798.932
9,False,529,0.992,59,[],[],"[(1093, 866)]",[],[1],[37],[0.6166666666666667],"[640.0, 512.0]",vertical,"(890.0, 762.0)",[1.5],[0.568],1,4804.061
9,False,530,0.608,36,[],[],"[(1114, 866)]",[],[1],[33],[0.55],"[640.0, 512.0]",horizontal,"(390.0, 262.0)",[1.1833333333333333],[0.507],1,4809.154
9,False,531,0.62,37,[],[],"[(1122, 862)]",[],[1],[26],[0.43333333333333335],"[640.0, 512.0]",horizontal,"(390.0, 262.0)",[1.6333333333333333],[0.394],1,4813.429
9,False,532,1.097,65,[],[],"[(1100, 856)]",[],[1],[47],[0.7833333333333333],"[640.0, 512.0]",horizontal,"(890.0, 262.0)",[1.45],[0.741],1,4818.151
9,False,533,0.884,53,[],[],"[(1121, 875)]",[],[1],[36],[0.6],"[640.0, 512.0]",horizontal,"(390.0, 762.0)",[1.1833333333333333],[0.553],1,4828.174
9,False,534,1.18,70,[],[],"[(1128, 862)]",[],[1],[37],[0.6166666666666667],"[640.0, 512.0]",vertical,"(390.0, 262.0)",[0.8333333333333334],[0.578],1,4832.676
9,False,535,0.709,42,[],[],"[(1114, 861)]",[],[1],[41],[0.6833333333333333],"[640.0, 512.0]",horizontal,"(390.0, 762.0)",[0.8],[0.636],1,4837.235
9,False,536,0.741,44,[],[],"[(1083, 864)]",[],[1],[35],[0.5833333333333334],"[640.0, 512.0]",vertical,"(390.0, 762.0)",[0.55],[0.54],1,4845.351
9,False,537,0.577,34,[],[],"[(1087, 885)]",[],[1],[33],[0.55],"[640.0, 512.0]",vertical,"(390.0, 762.0)",[1.1166666666666667],[0.509],1,4849.131
9,False,538,0.79,47,[],[],"[(1157, 869)]",[],[1],[35],[0.5833333333333334],"[640.0, 512.0]",vertical,"(890.0, 262.0)",[0.95],[0.543],1,4853.315
9,False,539,1.039,62,[],[],"[(1089, 862)]",[],[1],[],[],"[640.0, 512.0]",vertical,"(890.0, 762.0)",[],[0],0,4857.648
9,False,540,0.838,50,[],[],"[(1174, 867)]",[],[1],[33],[0.55],"[640.0, 512.0]",horizontal,"(390.0, 762.0)",[0.5666666666666667],[0.507],1,4859.967
10,False,541,1.06,63,[],[],"[(1142, 864)]",[],[1],[36],[0.6],"[640.0, 512.0]",vertical,"(890.0, 762.0)",[1.4666666666666666],[0.565],1,4882.266
10,False,542,0.811,48,[],[],"[(1129, 862)]",[],[1],[37],[0.6166666666666667],"[640.0, 512.0]",vertical,"(890.0, 262.0)",[1.4833333333333334],[0.575],1,4887.335
10,False,543,0.895,53,[],[],"[(1123, 861)]",[],[1],[35],[0.5833333333333334],"[640.0, 512.0]",horizontal,"(390.0, 262.0)",[1.1833333333333333],[0.538],1,4892.265
10,False,544,0.862,51,[],[],"[(1110, 860)]",[],[1],[35],[0.5833333333333334],"[640.0, 512.0]",vertical,"(390.0, 762.0)",[1.45],[0.537],1,4896.802
10,False,545,0.812,48,[],[],"[(1099, 864)]",[],[1],[35],[0.5833333333333334],"[640.0, 512.0]",vertical,"(390.0, 762.0)",[1.55],[0.542],1,4901.653
10,False,546,0.875,52,[],[],"[(1118, 856)]",[],[1],[35],[0.5833333333333334],"[640.0, 512.0]",horizontal,"(390.0, 262.0)",[0.8333333333333334],[0.544],1,4906.557
10,False,547,0.709,42,[],[],"[(1129, 864)]",[],[1],[38],[0.6333333333333333],"[640.0, 512.0]",horizontal,"(390.0, 262.0)",[1.0],[0.588],1,4910.847
10,False,548,0.619,37,[],[],"[(1125, 862)]",[],[1],[42],[0.7],"[640.0, 512.0]",horizontal,"(890.0, 762.0)",[1.05],[0.654],1,4915.215
10,False,549,1.145,68,[],[],"[(1145, 861)]",[],[1],[36],[0.6],"[640.0, 512.0]",vertical,"(890.0, 262.0)",[1.35],[0.561],1,4919.628
10,False,550,1.151,69,[],[],"[(1136, 856)]",[],[1],[37],[0.6166666666666667],"[640.0, 512.0]",vertical,"(390.0, 762.0)",[1.2666666666666666],[0.576],1,4924.602
10,False,551,1.084,65,[],[],"[(1117, 861)]",[],[1],[35],[0.5833333333333334],"[640.0, 512.0]",vertical,"(890.0, 762.0)",[0.9833333333333333],[0.538],1,4929.585
10,False,552,0.963,57,[],[],"[(1130, 870)]",[],[1],[36],[0.6],"[640.0, 512.0]",vertical,"(890.0, 762.0)",[1.4833333333333334],[0.555],1,4934.301
10,False,553,1.075,64,[],[],"[(1137, 869)]",[],[1],[31],[0.5166666666666666],"[640.0, 512.0]",horizontal,"(890.0, 262.0)",[1.6833333333333333],[0.477],1,4939.264
10,False,554,0.887,53,[],[],"[(1148, 859)]",[],[1],[40],[0.6666666666666666],"[640.0, 512.0]",horizontal,"(390.0, 762.0)",[0.9333333333333333],[0.622],1,4944.422
10,False,555,0.786,47,[],[],"[(1134, 856)]",[],[1],[31],[0.5166666666666666],"[640.0, 512.0]",horizontal,"(390.0, 262.0)",[0.8166666666666667],[0.486],1,4948.919
10,False,556,0.716,42,[],[],"[(1129, 870)]",[],[1],[35],[0.5833333333333334],"[640.0, 512.0]",vertical,"(390.0, 262.0)",[0.7],[0.539],1,4953.013
10,False,557,1.198,71,[],[],"[(1099, 849)]",[],[1],[],[],"[640.0, 512.0]",vertical,"(890.0, 262.0)",[],[0],0,4956.935
10,False,558,1.177,70,[],[],"[(1148, 856)]",[],[1],[36],[0.6],"[640.0, 512.0]",vertical,"(390.0, 262.0)",[1.0666666666666667],[0.56],1,4960.8
10,False,559,0.889,53,[],[],"[(1123, 870)]",[],[1],[36],[0.6],"[640.0, 512.0]",horizontal,"(890.0, 762.0)",[1.0666666666666667],[0.556],1,4967.72
10,False,560,0.782,46,[],[],"[(1136, 877)]",[],[1],[35],[0.5833333333333334],"[640.0, 512.0]",horizontal,"(390.0, 762.0)",[0.5833333333333334],[0.536],1,4972.164
10,False,561,0.665,39,[],[],"[(1129, 880)]",[],[1],[36],[0.6],"[640.0, 512.0]",horizontal,"(890.0, 762.0)",[1.3833333333333333],[0.557],1,4976.017
10,False,562,0.932,55,[],[],"[(1142, 878)]",[],[1],[38],[0.6333333333333333],"[640.0, 512.0]",vertical,"(390.0, 762.0)",[1.6666666666666667],[0.591],1,4980.603
10,False,563,0.931,55,[],[],"[(1136, 863)]",[],[1],[37],[0.6166666666666667],"[640.0, 512.0]",vertical,"(390.0, 762.0)",[0.6833333333333333],[0.575],1,4985.752
10,False,564,0.721,43,[],[],"[(1129, 867)]",[],[1],[35],[0.5833333333333334],"[640.0, 512.0]",vertical,"(390.0, 762.0)",[1.2333333333333334],[0.533],1,4989.944
10,False,565,1.154,69,[],[],"[(1120, 866)]",[],[1],[34],[0.5666666666666667],"[640.0, 512.0]",vertical,"(890.0, 262.0)",[1.0333333333333332],[0.526],1,4994.505
10,False,566,0.585,35,[],[],"[(1099, 879)]",[],[1],[40],[0.6666666666666666],"[640.0, 512.0]",horizontal,"(390.0, 762.0)",[1.0833333333333333],[0.624],1,4999.396
10,False,567,0.607,36,[],[],"[(1093, 860)]",[],[1],[36],[0.6],"[640.0, 512.0]",horizontal,"(890.0, 762.0)",[1.0333333333333332],[0.554],1,5003.717
10,False,568,1.085,65,[],[],"[(1136, 871)]",[],[1],[33],[0.55],"[640.0, 512.0]",vertical,"(390.0, 762.0)",[0.55],[0.512],1,5007.836
10,False,569,0.89,53,[],[],"[(1063, 864)]",[],[1],[34],[0.5666666666666667],"[640.0, 512.0]",vertical,"(390.0, 262.0)",[1.25],[0.528],1,5011.947
10,False,570,0.536,32,[],[],"[(1130, 859)]",[],[1],[34],[0.5666666666666667],"[640.0, 512.0]",horizontal,"(390.0, 262.0)",[1.1166666666666667],[0.527],1,5016.665
10,False,571,0.548,32,[],[],"[(1095, 858)]",[],[1],[43],[0.7166666666666667],"[640.0, 512.0]",vertical,"(390.0, 762.0)",[0.6166666666666667],[0.671],1,5020.827
10,False,572,0.734,44,[],[],"[(1100, 866)]",[],[1],[34],[0.5666666666666667],"[640.0, 512.0]",vertical,"(390.0, 762.0)",[1.5666666666666667],[0.527],1,5024.612
10,False,573,0.823,49,[],[],"[(1081, 871)]",[],[1],[41],[0.6833333333333333],"[640.0, 512.0]",horizontal,"(390.0, 262.0)",[1.5666666666666667],[0.636],1,5029.564
10,False,574,0.937,56,[],[],"[(1100, 852)]",[],[1],[37],[0.6166666666666667],"[640.0, 512.0]",vertical,"(390.0, 762.0)",[0.7],[0.576],1,5034.585
10,False,575,1.155,69,[],[],"[(1093, 846)]",[],[1],[34],[0.5666666666666667],"[640.0, 512.0]",horizontal,"(390.0, 762.0)",[0.7],[0.527],1,5039.402
10,False,576,0.548,32,[],[],"[(1093, 868)]",[],[1],[24],[0.4],"[640.0, 512.0]",horizontal,"(390.0, 262.0)",[0.9333333333333333],[0.362],1,5044.26
10,False,577,0.745,44,[],[],"[(1123, 875)]",[],[1],[34],[0.5666666666666667],"[640.0, 512.0]",horizontal,"(890.0, 762.0)",[0.65],[0.52],1,5048.02
10,False,578,1.168,70,[],[],"[(1103, 843)]",[],[1],[38],[0.6333333333333333],"[640.0, 512.0]",horizontal,"(890.0, 262.0)",[1.1333333333333333],[0.586],1,5051.851
10,False,579,0.591,35,[],[],"[(1129, 863)]",[],[1],[36],[0.6],"[640.0, 512.0]",vertical,"(390.0, 262.0)",[1.1166666666666667],[0.561],1,5056.744
10,False,580,0.736,44,[],[],"[(1158, 860)]",[],[1],[34],[0.5666666666666667],"[640.0, 512.0]",horizontal,"(890.0, 762.0)",[0.6333333333333333],[0.525],1,5061.054
10,False,581,0.959,57,[],[],"[(1140, 860)]",[],[1],[35],[0.5833333333333334],"[640.0, 512.0]",vertical,"(390.0, 762.0)",[1.4],[0.541],1,5064.885
10,False,582,0.946,56,[],[],"[(1127, 848)]",[],[1],[33],[0.55],"[640.0, 512.0]",horizontal,"(390.0, 762.0)",[0.6833333333333333],[0.504],1,5069.796
10,False,583,0.978,58,[],[],"[(1118, 851)]",[],[1],[35],[0.5833333333333334],"[640.0, 512.0]",horizontal,"(390.0, 262.0)",[0.5333333333333333],[0.538],1,5073.977
10,False,584,1.182,70,[],[],"[(1105, 874)]",[],[1],[25],[0.4166666666666667],"[640.0, 512.0]",vertical,"(390.0, 262.0)",[1.45],[0.381],1,5078.202
10,False,585,1.178,70,[],[],"[(1243, 134), (892, 1001), (1180, 881)]",[],"[0, 0, 1]",[],[],"[640.0, 512.0]",vertical,"(890.0, 762.0)",[],[0],0,5083.274
10,False,586,0.602,36,[],[5110801],"[(1177, 844)]","[(1102, 868)]",[1],[0],[0.0],"[640.0, 512.0]",horizontal,"(890.0, 262.0)",[],[0],0,5093.825
10,False,587,0.766,45,[],[5113067],"[(1089, 861)]","[(1089, 857)]",[1],[3],[0.05],"[640.0, 512.0]",horizontal,"(390.0, 262.0)",[],[0],0,5095.93
10,False,588,1.14,68,[],[],"[(1194, 847)]",[],[1],[36],[0.6],"[640.0, 512.0]",horizontal,"(890.0, 262.0)",[1.35],[0.556],1,5098.203
10,False,589,0.775,46,[],[],"[(1173, 853)]",[],[1],[37],[0.6166666666666667],"[640.0, 512.0]",vertical,"(390.0, 762.0)",[1.2166666666666666],[0.572],1,5103.208
10,False,590,0.908,54,[],[],"[(1150, 851)]",[],[1],[35],[0.5833333333333334],"[640.0, 512.0]",horizontal,"(890.0, 262.0)",[0.9833333333333333],[0.543],1,5107.753
10,False,591,0.937,56,[],[],"[(1143, 865)]",[],[1],[34],[0.5666666666666667],"[640.0, 512.0]",horizontal,"(890.0, 262.0)",[1.1666666666666667],[0.527],1,5112.235
10,False,592,0.823,49,[],[],"[(1123, 856)]",[],[1],[33],[0.55],"[640.0, 512.0]",vertical,"(390.0, 762.0)",[0.9666666666666667],[0.504],1,5116.888
10,False,593,1.016,60,[],[],"[(672, 645), (1124, 873)]",[],"[0, 1]",[31],[0.5166666666666666],"[640.0, 512.0]",vertical,"(890.0, 762.0)",[0.5666666666666667],[0.476],1,5121.223
10,False,594,1.111,66,[],[],"[(690, 177), (1184, 858)]",[],"[0, 1]",[36],[0.6],"[640.0, 512.0]",vertical,"(390.0, 762.0)",[0.9833333333333333],[0.559],1,5129.054
10,False,595,0.595,35,[],[],"[(1156, 387), (1194, 851)]",[],"[0, 1]",[35],[0.5833333333333334],"[640.0, 512.0]",horizontal,"(890.0, 762.0)",[1.2],[0.539],1,5135.018
10,False,596,1.046,62,[],[],"[(1148, 863)]",[],[1],[51],[0.85],"[640.0, 512.0]",horizontal,"(890.0, 762.0)",[1.4],[0.798],0,5140.654
10,False,597,0.784,47,[],[],"[(1177, 859)]",[],[1],[37],[0.6166666666666667],"[640.0, 512.0]",vertical,"(890.0, 762.0)",[1.1666666666666667],[0.577],1,5145.844
10,False,598,0.875,52,[],[],"[(1153, 873)]",[],[1],[43],[0.7166666666666667],"[640.0, 512.0]",vertical,"(390.0, 762.0)",[1.5666666666666667],[0.67],1,5151.583
10,False,599,0.682,40,[],[],"[(1111, 837)]",[],[1],[51],[0.85],"[640.0, 512.0]",vertical,"(890.0, 262.0)",[0.5833333333333334],[0.809],0,5156.787
10,False,600,1.118,67,[],[],"[(1161, 843)]",[],[1],[39],[0.65],"[640.0, 512.0]",vertical,"(390.0, 262.0)",[0.75],[0.602],1,5161.001
11,False,601,0.566,33,[],[],"[(910, 885), (1143, 850)]",[],"[0, 1]",[38],[0.6333333333333333],"[640.0, 512.0]",horizontal,"(390.0, 262.0)",[1.5666666666666667],[0.588],1,5165.568
11,False,602,1.097,65,[],[],"[(1111, 855)]",[],[1],[39],[0.65],"[640.0, 512.0]",vertical,"(890.0, 262.0)",[1.45],[0.604],1,5172.283
11,False,603,1.089,65,[],[],"[(1184, 846)]",[],[1],[51],[0.85],"[640.0, 512.0]",horizontal,"(890.0, 762.0)",[1.2833333333333332],[0.8],0,5177.37
11,False,604,1.191,71,[],[],"[(898, 191), (1153, 856)]",[],"[0, 1]",[44],[0.7333333333333333],"[640.0, 512.0]",horizontal,"(390.0, 762.0)",[1.5833333333333333],[0.689],1,5183.29
11,False,605,0.922,55,[],[],"[(1166, 856)]",[],[1],[46],[0.7666666666666666],"[640.0, 512.0]",horizontal,"(390.0, 762.0)",[1.5166666666666666],[0.722],1,5190.299
11,False,606,1.058,63,[],[],"[(1141, 848)]",[],[1],[35],[0.5833333333333334],"[640.0, 512.0]",vertical,"(890.0, 762.0)",[1.25],[0.542],1,5195.564
11,False,607,0.857,51,[],[],"[(1188, 858)]",[],[1],[32],[0.5333333333333333],"[640.0, 512.0]",vertical,"(890.0, 262.0)",[0.55],[0.495],1,5200.34
11,False,608,0.731,43,[],[],"[(1148, 863)]",[],[1],[42],[0.7],"[640.0, 512.0]",vertical,"(390.0, 762.0)",[0.5833333333333334],[0.658],1,5206.021
11,False,609,0.539,32,[],[],"[(1157, 876)]",[],[1],[40],[0.6666666666666666],"[640.0, 512.0]",vertical,"(890.0, 262.0)",[1.2],[0.622],1,5209.987
11,False,610,1.17,70,[],[],"[(1119, 864)]",[],[1],[29],[0.48333333333333334],"[640.0, 512.0]",vertical,"(890.0, 262.0)",[1.4833333333333334],[0.447],1,5214.4
11,False,611,1.005,60,[],[],"[(1136, 844)]",[],[1],[51],[0.85],"[640.0, 512.0]",horizontal,"(890.0, 762.0)",[1.25],[0.801],0,5219.558
11,False,612,1.123,67,[],[],"[(1172, 854)]",[],[1],[35],[0.5833333333333334],"[640.0, 512.0]",vertical,"(890.0, 762.0)",[0.7666666666666666],[0.551],1,5224.614
11,False,613,1.074,64,[],[],"[(1148, 872)]",[],[1],[38],[0.6333333333333333],"[640.0, 512.0]",horizontal,"(890.0, 262.0)",[1.6666666666666667],[0.591],1,5229.165
11,False,614,0.821,49,[],[],"[(1140, 837)]",[],[1],[51],[0.85],"[640.0, 512.0]",horizontal,"(890.0, 762.0)",[1.2333333333333334],[0.801],0,5234.465
11,False,615,0.524,31,[],[],"[(1155, 846)]",[],[1],[37],[0.6166666666666667],"[640.0, 512.0]",horizontal,"(890.0, 762.0)",[1.0166666666666666],[0.574],1,5239.35
11,False,616,0.557,33,[],[],"[(1142, 832)]",[],[1],[51],[0.85],"[640.0, 512.0]",vertical,"(890.0, 762.0)",[1.6166666666666667],[0.798],0,5243.443
11,False,617,0.537,32,[],[],"[(1177, 863)]",[],[1],[51],[0.85],"[640.0, 512.0]",vertical,"(890.0, 262.0)",[0.95],[0.808],0,5248.364
11,False,618,0.83,49,[],[],"[(288, 354), (1178, 857)]",[],"[0, 1]",[34],[0.5666666666666667],"[640.0, 512.0]",horizontal,"(890.0, 762.0)",[1.6833333333333333],[0.525],1,5252.601
11,False,619,0.725,43,[],[],"[(1140, 850)]",[],[1],[51],[0.85],"[640.0, 512.0]",vertical,"(890.0, 762.0)",[0.9666666666666667],[0.801],0,5284.95
11,False,620,0.729,43,[],[],"[(1166, 850)]",[],[1],[37],[0.6166666666666667],"[640.0, 512.0]",vertical,"(390.0, 262.0)",[0.6],[0.57],1,5289.454
11,False,621,0.903,54,[],[],"[(1123, 875)]",[],[1],[36],[0.6],"[640.0, 512.0]",vertical,"(390.0, 762.0)",[1.1833333333333333],[0.557],1,5293.317
11,False,622,0.911,54,[],[],"[(1140, 860)]",[],[1],[51],[0.85],"[640.0, 512.0]",horizontal,"(390.0, 762.0)",[1.35],[0.799],0,5297.901
11,False,623,0.564,33,[],[],"[(1177, 859)]",[],[1],[36],[0.6],"[640.0, 512.0]",horizontal,"(390.0, 262.0)",[1.1333333333333333],[0.566],1,5302.968
11,False,624,0.828,49,[],[],"[(1128, 855)]",[],[1],[34],[0.5666666666666667],"[640.0, 512.0]",horizontal,"(890.0, 262.0)",[1.3833333333333333],[0.52],1,5307.17
11,False,625,0.901,54,[],[],"[(1136, 853)]",[],[1],[34],[0.5666666666666667],"[640.0, 512.0]",horizontal,"(890.0, 762.0)",[0.8333333333333334],[0.526],1,5311.9
11,False,626,0.627,37,[],[],"[(1128, 875)]",[],[1],[51],[0.85],"[640.0, 512.0]",vertical,"(390.0, 262.0)",[0.5166666666666666],[0.795],0,5316.162
11,False,627,0.526,31,[],[],"[(1087, 851)]",[],[1],[40],[0.6666666666666666],"[640.0, 512.0]",horizontal,"(890.0, 762.0)",[1.5333333333333332],[0.63],1,5320.221
11,False,628,0.808,48,[],[],"[(1130, 853)]",[],[1],[51],[0.85],"[640.0, 512.0]",horizontal,"(890.0, 262.0)",[1.4666666666666666],[0.799],0,5325.019
11,False,629,0.756,45,[],[],"[(300, 860), (1184, 846)]",[],"[0, 1]",[43],[0.7166666666666667],"[640.0, 512.0]",horizontal,"(890.0, 262.0)",[1.3],[0.671],1,5330.254
11,False,630,1.016,60,[],[],"[(257, 434), (1180, 851)]",[],"[0, 1]",[35],[0.5833333333333334],"[640.0, 512.0]",vertical,"(890.0, 762.0)",[1.0166666666666666],[0.542],1,5347.713
11,False,631,0.59,35,[],[],"[(1142, 859)]",[],[1],[36],[0.6],"[640.0, 512.0]",vertical,"(890.0, 762.0)",[1.3666666666666667],[0.56],1,5366.909
11,False,632,1.039,62,[],[],"[(1142, 857)]",[],[1],[39],[0.65],"[640.0, 512.0]",horizontal,"(390.0, 762.0)",[0.7666666666666666],[0.605],1,5371.377
11,False,633,0.722,43,[],[],"[(1134, 852)]",[],[1],[51],[0.85],"[640.0, 512.0]",vertical,"(390.0, 762.0)",[1.4833333333333334],[0.807],0,5375.818
11,False,634,1.066,63,[],[],"[(1138, 843)]",[],[1],[35],[0.5833333333333334],"[640.0, 512.0]",horizontal,"(890.0, 762.0)",[0.7166666666666667],[0.545],1,5380.919
11,False,635,0.8,48,[],[],"[(1078, 870)]",[],[1],[37],[0.6166666666666667],"[640.0, 512.0]",vertical,"(390.0, 262.0)",[0.5166666666666666],[0.576],1,5403.139
11,False,636,1.181,70,[],[],"[(1115, 860)]",[],[1],[33],[0.55],"[640.0, 512.0]",vertical,"(890.0, 262.0)",[1.6],[0.503],1,5408.936
11,False,637,0.993,59,[],[],"[(1093, 870)]",[],[1],[31],[0.5166666666666666],"[640.0, 512.0]",horizontal,"(390.0, 262.0)",[1.3833333333333333],[0.482],1,5414.332
11,False,638,0.725,43,[],[],"[(1095, 842)]",[],[1],[34],[0.5666666666666667],"[640.0, 512.0]",horizontal,"(390.0, 262.0)",[1.5666666666666667],[0.526],1,5419.249
11,False,639,0.789,47,[],[],"[(1129, 862)]",[],[1],[37],[0.6166666666666667],"[640.0, 512.0]",horizontal,"(890.0, 762.0)",[1.5333333333333332],[0.581],1,5424.056
11,False,640,0.797,47,[],[],"[(1110, 867)]",[],[1],[36],[0.6],"[640.0, 512.0]",horizontal,"(390.0, 762.0)",[1.0833333333333333],[0.564],1,5428.827
11,False,641,1.127,67,[],[],"[(1105, 872)]",[],[1],[38],[0.6333333333333333],"[640.0, 512.0]",horizontal,"(890.0, 762.0)",[1.2166666666666666],[0.592],1,5433.22
11,False,642,0.847,50,[],[],"[(1105, 879)]",[],[1],[51],[0.85],"[640.0, 512.0]",horizontal,"(390.0, 762.0)",[1.4666666666666666],[0.802],0,5438.091
11,False,643,0.796,47,[],[],"[(1099, 861)]",[],[1],[36],[0.6],"[640.0, 512.0]",vertical,"(390.0, 262.0)",[0.9833333333333333],[0.561],1,5443.214
11,False,644,0.878,52,[],[],"[(1116, 865)]",[],[1],[40],[0.6666666666666666],"[640.0, 512.0]",horizontal,"(890.0, 762.0)",[0.8833333333333333],[0.623],1,5448.255
11,False,645,0.989,59,[],[],"[(1082, 870)]",[],[1],[36],[0.6],"[640.0, 512.0]",vertical,"(390.0, 762.0)",[0.6333333333333333],[0.556],1,5452.561
11,False,646,0.789,47,[],[],"[(1069, 843)]",[],[1],[36],[0.6],"[640.0, 512.0]",vertical,"(390.0, 262.0)",[0.7],[0.561],1,5456.812
11,False,647,1.141,68,[],[],"[(1063, 875)]",[],[1],[32],[0.5333333333333333],"[640.0, 512.0]",horizontal,"(890.0, 262.0)",[0.6166666666666667],[0.491],1,5460.949
11,False,648,0.991,59,[],[],"[(1111, 853)]",[],[1],[39],[0.65],"[640.0, 512.0]",vertical,"(890.0, 762.0)",[0.7166666666666667],[0.613],1,5465.326
11,False,649,0.546,32,[],[],"[(1080, 863)]",[],[1],[41],[0.6833333333333333],"[640.0, 512.0]",horizontal,"(390.0, 762.0)",[1.35],[0.639],1,5469.555
11,False,650,0.542,32,[],[],"[(1105, 859)]",[],[1],[36],[0.6],"[640.0, 512.0]",horizontal,"(390.0, 262.0)",[0.9333333333333333],[0.554],1,5473.986
11,False,651,1.101,66,[],[],"[(1086, 868)]",[],[1],[38],[0.6333333333333333],"[640.0, 512.0]",horizontal,"(890.0, 762.0)",[1.0166666666666666],[0.599],1,5477.883
11,False,652,0.752,45,[],[],"[(1124, 864)]",[],[1],[36],[0.6],"[640.0, 512.0]",vertical,"(890.0, 762.0)",[0.7333333333333333],[0.559],1,5482.607
11,False,653,0.577,34,[],[],"[(1140, 856)]",[],[1],[35],[0.5833333333333334],"[640.0, 512.0]",vertical,"(890.0, 262.0)",[1.3833333333333333],[0.542],1,5486.589
11,False,654,0.663,39,[],[],"[(1104, 872)]",[],[1],[36],[0.6],"[640.0, 512.0]",horizontal,"(390.0, 762.0)",[0.9333333333333333],[0.565],1,5491.089
11,False,655,1.132,67,[],[],"[(1099, 852)]",[],[1],[43],[0.7166666666666667],"[640.0, 512.0]",horizontal,"(890.0, 762.0)",[1.0666666666666667],[0.677],1,5495.371
11,False,656,0.573,34,[],[],"[(1084, 849)]",[],[1],[36],[0.6],"[640.0, 512.0]",horizontal,"(390.0, 762.0)",[0.7833333333333333],[0.562],1,5500.204
11,False,657,1.058,63,[],[],"[(1099, 849)]",[],[1],[36],[0.6],"[640.0, 512.0]",vertical,"(890.0, 262.0)",[0.7833333333333333],[0.559],1,5506.437
11,False,658,0.936,56,[],[],"[(1103, 862)]",[],[1],[33],[0.55],"[640.0, 512.0]",vertical,"(890.0, 262.0)",[1.45],[0.509],1,5510.937
11,False,659,0.861,51,[],[],"[(1086, 883)]",[],[1],[35],[0.5833333333333334],"[640.0, 512.0]",vertical,"(390.0, 762.0)",[0.6],[0.539],1,5515.948
11,False,660,0.773,46,[],[],"[(1056, 861)]",[],[1],[51],[0.85],"[640.0, 512.0]",horizontal,"(390.0, 262.0)",[0.6],[0.806],0,5520.071
12,False,661,1.171,70,[],[],"[(1079, 851)]",[],[1],[44],[0.7333333333333333],"[640.0, 512.0]",vertical,"(890.0, 262.0)",[0.9333333333333333],[0.697],1,5524.307
12,False,662,0.593,35,[],[],"[(1076, 847)]",[],[1],[44],[0.7333333333333333],"[640.0, 512.0]",vertical,"(890.0, 262.0)",[0.7666666666666666],[0.69],1,5529.639
12,False,663,0.522,31,[],[],"[(1136, 855)]",[],[1],[39],[0.65],"[640.0, 512.0]",horizontal,"(390.0, 762.0)",[1.2],[0.611],1,5533.734
12,False,664,0.595,35,[],[],"[(1126, 875)]",[],[1],[38],[0.6333333333333333],"[640.0, 512.0]",vertical,"(390.0, 762.0)",[0.5833333333333334],[0.594],1,5538.03
