block,trial,trial_type,taps_start_loc_during_fix,taps_end_loc_during_fix,taps_on_lever_during_fix,taps_on_lever_s_during_fix,bar_orientation,target_xy,cti,rt,acc,time
1,1,target,"[(740, 599), (683, 462), (737, 701), (829, 574), (746, 672), (830, 546), (1066, 653), (901, 606), (630, 448), (819, 713), (877, 696), (727, 614), (814, 722), (751, 472), (989, 765), (793, 467), (703, 545), (669, 813), (891, 623), (698, 512), (819, 574), (615, 809), (616, 752), (814, 831), (747, 658), (717, 799), (963, 877), (897, 848), (462, 577), (335, 805), (214, 38), (335, 730), (959, 594), (880, 691), (501, 906), (616, 479), (663, 262), (1031, 847)]",[],"[0, 0, 0, 0, 0, 0, 0, 0, 0, 0, 0, 0, 0, 0, 0, 0, 0, 0, 0, 0, 0, 0, 0, 0, 0, 0, 0, 0, 0, 0, 0, 0, 0, 0, 0, 0, 0, 1]",[],vertical,"(390.0, 762.0)",,fix_phase,0,0.026
1,2,target,"[(553, 164), (186, 135), (194, 880), (223, 643), (59, 833), (320, 381), (340, 140), (412, 950), (549, 295), (543, 989), (688, 179), (723, 324), (846, 984), (925, 872), (864, 598), (1003, 737), (934, 222), (790, 913), (1081, 823)]",[],"[0, 0, 0, 0, 0, 0, 0, 0, 0, 0, 0, 0, 0, 0, 0, 0, 0, 0, 1]",[0.3833333333333333],horizontal,"(390.0, 762.0)",0.7666666666666666,0.341,1,39.506
1,3,target,"[(1111, 853)]",[],[1],[0.85],vertical,"(390.0, 762.0)",0.65,nan,0,65.875
1,4,target,"[(1051, 354), (680, 602), (678, 594), (775, 376), (1056, 399), (97, 994), (1075, 890)]",[],"[0, 0, 0, 0, 0, 0, 1]",[0.85],vertical,"(890.0, 262.0)",1.4,nan,0,70.42
1,5,target,"[(1067, 906)]",[],[1],[0.85],horizontal,"(390.0, 762.0)",1.5,nan,0,4161.014
1,6,target,"[(1124, 885)]",[],[1],[0.7],horizontal,"(890.0, 262.0)",1.4333333333333333,0.657,1,4166.363
1,7,target,"[(1101, 910)]",[],[1],[0.85],vertical,"(890.0, 262.0)",1.05,nan,0,4171.235
1,8,target,"[(1113, 907)]",[],[1],[0.6],horizontal,"(390.0, 762.0)",0.6166666666666667,0.558,1,4176.576
1,9,target,"[(1129, 904)]",[],[1],[0.65],horizontal,"(890.0, 262.0)",1.5833333333333333,0.607,1,4186.074
1,10,target,"[(1093, 906)]",[],[1],[0.6166666666666667],vertical,"(890.0, 262.0)",0.7333333333333333,0.573,1,4191.196
1,11,target,"[(1090, 898)]",[],[1],[0.5833333333333334],horizontal,"(390.0, 762.0)",0.85,0.548,1,4195.235
1,12,target,"[(1102, 914)]",[],[1],[0.55],horizontal,"(890.0, 762.0)",0.9166666666666666,0.511,1,4199.594
1,13,target,"[(1103, 906)]",[],[1],[0.6],horizontal,"(890.0, 262.0)",0.7166666666666667,0.56,1,4203.861
1,14,target,"[(1095, 910)]",[],[1],[0.13333333333333333],horizontal,"(890.0, 762.0)",1.55,0.103,1,4208.059
1,15,target,"[(1085, 901)]",[],[1],[0.5333333333333333],vertical,"(390.0, 262.0)",0.7333333333333333,0.486,1,4213.129
1,16,target,"[(1085, 896)]",[],[1],[0.45],horizontal,"(390.0, 762.0)",1.2333333333333334,0.416,1,4217.271
1,17,target,"[(1085, 890)]",[],[1],[0.5666666666666667],horizontal,"(390.0, 762.0)",0.6833333333333333,0.53,1,4221.544
1,18,target,"[(1093, 902)]",[],[1],[0.65],horizontal,"(890.0, 762.0)",1.1166666666666667,0.604,1,4226.103
1,19,target,"[(1086, 904)]",[],[1],[0.31666666666666665],horizontal,"(890.0, 262.0)",1.6833333333333333,0.281,1,4231.195
1,20,target,"[(1098, 906)]",[],[1],[0.6],horizontal,"(390.0, 762.0)",1.25,0.553,1,4236.162
1,21,target,"[(1099, 892)]",[],[1],[0.45],vertical,"(390.0, 762.0)",1.3166666666666667,0.419,1,4241.155
1,22,target,"[(1123, 921)]",[],[1],[0.35],horizontal,"(390.0, 262.0)",1.65,0.312,1,4245.881
1,23,target,"[(1095, 901)]",[],[1],[0.5333333333333333],horizontal,"(890.0, 262.0)",1.25,0.494,1,4250.804
1,24,target,"[(1124, 892)]",[],[1],[0.6333333333333333],horizontal,"(390.0, 262.0)",0.8,0.586,1,4255.145
1,25,target,"[(1098, 901)]",[],[1],[0.85],vertical,"(390.0, 262.0)",0.6,nan,0,4259.47
2,26,catch,"[(1128, 889)]",[],[1],[0.05],vertical,"(390.0, 762.0)",1.15,nan,1,4263.732
2,27,catch,"[(1129, 903)]",[],[1],[0.05],horizontal,"(890.0, 762.0)",0.9166666666666666,nan,1,4267.682
2,28,catch,"[(624, 983), (625, 692), (1075, 902)]",[],"[0, 0, 1]",[0.05],horizontal,"(890.0, 262.0)",1.6,nan,1,4271.731
2,29,catch,"[(1103, 893)]",[],[1],[0.05],horizontal,"(890.0, 262.0)",1.15,nan,1,4282.762
2,30,catch,"[(1134, 897)]",[],[1],[0.05],vertical,"(390.0, 262.0)",0.55,nan,1,4287.796
2,31,catch,"[(1081, 897)]",[],[1],[0.05],vertical,"(890.0, 762.0)",0.5333333333333333,nan,1,4291.691
2,32,catch,"[(1086, 895)]",[],[1],[0.05],vertical,"(390.0, 762.0)",0.5666666666666667,nan,1,4295.094
2,33,catch,"[(1112, 914)]",[],[1],[0.05],horizontal,"(390.0, 762.0)",0.8166666666666667,nan,1,4298.937
2,34,catch,"[(1122, 897)]",[],[1],[0.05],vertical,"(890.0, 262.0)",1.1333333333333333,nan,1,4303.061
2,35,catch,"[(1086, 899)]",[],[1],[0.05],horizontal,"(890.0, 262.0)",0.8666666666666667,nan,1,4307.229
2,36,catch,"[(1071, 908)]",[],[1],[],horizontal,"(390.0, 762.0)",,cti_phase,0,4311.695
2,37,catch,"[(1121, 896)]",[],[1],[0.05],horizontal,"(390.0, 762.0)",0.6666666666666666,nan,1,4316.763
2,38,catch,"[(1111, 868)]",[],[1],[0.05],vertical,"(390.0, 262.0)",0.9333333333333333,nan,1,4320.449
2,39,catch,"[(1090, 908)]",[],[1],[0.05],vertical,"(390.0, 762.0)",0.9,nan,1,4327.932
2,40,catch,"[(1064, 928)]",[],[1],[0.05],vertical,"(890.0, 262.0)",0.9666666666666667,nan,1,4332.427
2,41,catch,"[(1100, 905)]",[],[1],[0.05],horizontal,"(390.0, 262.0)",1.0833333333333333,nan,1,4336.866
2,42,catch,"[(1094, 902)]",[],[1],[0.05],horizontal,"(890.0, 262.0)",1.4,nan,1,4340.979
2,43,catch,"[(1095, 897)]",[],[1],[0.05],horizontal,"(390.0, 762.0)",0.6833333333333333,nan,1,4345.746
2,44,catch,"[(1085, 901)]",[],[1],[0.05],horizontal,"(890.0, 762.0)",0.7333333333333333,nan,1,4349.907
2,45,catch,"[(1119, 895)]",[],[1],[],horizontal,"(390.0, 762.0)",,cti_phase,0,4353.582
2,46,catch,"[(1119, 882)]",[],[1],[0.05],horizontal,"(890.0, 262.0)",0.5333333333333333,nan,1,4357.449
2,47,catch,"[(1138, 885)]",[],[1],[],horizontal,"(890.0, 762.0)",,cti_phase,0,4360.834
2,48,catch,"[(1119, 886)]",[],[1],[0.05],horizontal,"(390.0, 762.0)",1.5166666666666666,nan,1,4367.081
2,49,catch,"[(1073, 902)]",[],[1],[0.05],vertical,"(890.0, 762.0)",0.5833333333333334,nan,1,4371.537
2,50,catch,"[(1081, 900)]",[],[1],[0.05],vertical,"(390.0, 762.0)",1.25,nan,1,4375.827
2,51,catch,"[(1090, 903)]",[],[1],[0.05],horizontal,"(890.0, 762.0)",1.3333333333333333,nan,1,4380.134
2,52,catch,"[(1095, 907)]",[],[1],[],horizontal,"(890.0, 762.0)",,cti_phase,0,4384.261
2,53,catch,"[(1094, 904)]",[],[1],[],horizontal,"(390.0, 762.0)",,cti_phase,0,4388.678
2,54,catch,"[(1114, 858)]",[],[1],[0.05],horizontal,"(390.0, 762.0)",0.9833333333333333,nan,1,4393.403
2,55,catch,"[(1170, 923)]",[],[1],[],vertical,"(390.0, 762.0)",,fix_phase,0,4397.424
2,56,catch,"[(515, 154), (485, 585), (591, 184), (935, 819), (711, 619), (757, 145), (737, 316), (471, 279), (597, 452), (930, 628), (935, 719), (872, 316), (937, 448), (373, 452), (711, 442), (717, 511), (265, 462), (858, 350), (722, 287), (720, 462), (647, 369), (688, 477), (761, 475), (804, 389), (785, 501), (258, 589), (656, 408), (998, 374), (214, 706), (252, 537), (557, 474), (742, 472), (688, 555), (662, 238), (275, 228), (812, 341), (567, 194), (727, 433), (335, 578), (695, 501), (451, 623), (872, 628), (1023, 907)]",[],"[0, 0, 0, 0, 0, 0, 0, 0, 0, 0, 0, 0, 0, 0, 0, 0, 0, 0, 0, 0, 0, 0, 0, 0, 0, 0, 0, 0, 0, 0, 0, 0, 0, 0, 0, 0, 0, 0, 0, 0, 0, 0, 1]",[],horizontal,"(890.0, 262.0)",,fix_phase,0,4399.287
2,57,catch,"[(888, 208), (1085, 877), (734, 931)]","[(734, 931)]","[0, 1, 0]",[0.45],horizontal,"(390.0, 762.0)",,"fix_phase,bar_phase",0,4426.934
2,58,catch,"[(1133, 868)]",[],[1],[],vertical,"(890.0, 762.0)",,fix_phase,0,4429.778
2,59,catch,"[(814, 276), (717, 485), (681, 648), (1096, 883)]",[],"[0, 0, 0, 1]",[],horizontal,"(890.0, 262.0)",,fix_phase,0,4432.078
2,60,catch,"[(1100, 885)]",[],[1],[],horizontal,"(890.0, 262.0)",,fix_phase,0,4435.904
2,61,catch,"[(683, 760), (267, 304), (742, 499), (681, 916), (677, 457), (673, 892), (796, 716), (709, 491), (683, 506), (761, 644), (1098, 530), (1102, 886)]","[(1061, 897)]","[0, 0, 0, 0, 0, 0, 0, 0, 0, 0, 0, 1]",[0.8166666666666667],vertical,"(890.0, 762.0)",,bar_phase,0,4438.105
2,62,catch,"[(1114, 897)]",[],[1],[],vertical,"(390.0, 762.0)",,cti_phase,0,4459.319
2,63,catch,"[(1091, 899)]",[],[1],[],horizontal,"(890.0, 762.0)",,cti_phase,0,4463.294
2,64,catch,"[(892, 394), (1094, 867)]",[],"[0, 1]",[0.05],vertical,"(390.0, 762.0)",0.95,nan,1,4467.295
2,65,catch,"[(1087, 900)]",[],[1],[],horizontal,"(890.0, 262.0)",,cti_phase,0,4473.662
2,66,catch,"[(1119, 900)]",[],[1],[0.05],horizontal,"(890.0, 762.0)",1.25,nan,1,4477.473
2,67,catch,"[(1090, 897)]",[],[1],[0.05],horizontal,"(890.0, 762.0)",0.65,nan,1,4481.73
2,68,catch,"[(907, 890), (1047, 909)]",[],"[0, 1]",[],horizontal,"(390.0, 262.0)",,cti_phase,0,4485.529
2,69,catch,"[(1070, 903)]",[],[1],[],vertical,"(390.0, 762.0)",,cti_phase,0,4490.096
2,70,catch,"[(1098, 892)]",[],[1],[],vertical,"(890.0, 262.0)",,cti_phase,0,4494.879
2,71,catch,"[(1125, 875)]",[],[1],[0.05],horizontal,"(390.0, 762.0)",1.65,nan,1,4498.944
2,72,catch,"[(1067, 900)]",[],[1],[0.05],vertical,"(890.0, 262.0)",0.9833333333333333,nan,1,4503.463
2,73,catch,"[(1086, 900)]",[],[1],[0.05],horizontal,"(390.0, 262.0)",1.5833333333333333,nan,1,4507.465
2,74,catch,"[(1102, 893)]",[],[1],[],vertical,"(390.0, 262.0)",,cti_phase,0,4512.095
2,75,catch,"[(1094, 889)]",[],[1],[0.05],vertical,"(890.0, 762.0)",1.1333333333333333,nan,1,4516.506
3,76,target,"[(1100, 877)]",[],[1],[0.3],horizontal,"(390.0, 262.0)",1.2666666666666666,0.267,1,4520.641
3,77,target,"[(1100, 894)]",[],[1],[0.31666666666666665],horizontal,"(890.0, 262.0)",0.6333333333333333,0.278,1,4525.212
3,78,target,"[(1076, 889)]",[],[1],[0.6166666666666667],vertical,"(890.0, 262.0)",0.6,0.571,1,4529.517
3,79,target,"[(1090, 889)]",[],[1],[0.3833333333333333],vertical,"(390.0, 262.0)",1.05,0.346,1,4534.062
3,80,target,"[(1123, 881)]",[],[1],[0.2],horizontal,"(890.0, 762.0)",1.1333333333333333,0.166,1,4538.396
3,81,target,"[(1100, 915)]",[],[1],[0.26666666666666666],horizontal,"(890.0, 762.0)",0.95,0.227,1,4542.797
3,82,target,"[(1106, 892)]",[],[1],[0.7],vertical,"(890.0, 262.0)",0.5,0.652,1,4547.261
3,83,target,"[(1095, 865)]",[],[1],[0.7166666666666667],vertical,"(890.0, 762.0)",0.5333333333333333,0.675,1,4551.396
3,84,target,"[(1100, 894)]",[],[1],[0.85],horizontal,"(390.0, 762.0)",1.7,nan,0,4555.228
3,85,target,"[(1102, 869)]",[],[1],[0.6166666666666667],vertical,"(390.0, 762.0)",0.5,0.574,1,4561.113
3,86,target,"[(1093, 904)]",[],[1],[0.45],vertical,"(890.0, 762.0)",0.7,0.409,1,4565.311
3,87,target,"[(1075, 895)]",[],[1],[0.2],horizontal,"(390.0, 762.0)",1.35,0.17,1,4569.712
3,88,target,"[(1104, 896)]",[],[1],[0.5],horizontal,"(390.0, 762.0)",1.0333333333333332,0.462,1,4574.362
3,89,target,"[(1107, 912)]",[],[1],[0.36666666666666664],vertical,"(390.0, 262.0)",1.3333333333333333,0.333,1,4579.131
3,90,target,"[(1090, 887)]",[],[1],[0.5166666666666666],vertical,"(390.0, 262.0)",1.1333333333333333,0.476,1,4583.878
3,91,target,"[(1104, 908)]",[],[1],[0.85],vertical,"(890.0, 762.0)",0.9,nan,0,4588.296
3,92,target,"[(1069, 901)]",[],[1],[0.5666666666666667],vertical,"(890.0, 762.0)",0.85,0.53,1,4593.131
3,93,target,"[(1103, 896)]",[],[1],[0.85],horizontal,"(890.0, 262.0)",1.1166666666666667,nan,0,4597.886
3,94,target,"[(1100, 859)]",[],[1],[0.55],vertical,"(390.0, 262.0)",0.6,0.505,1,4602.614
3,95,target,"[(1101, 885)]",[],[1],[0.7333333333333333],vertical,"(390.0, 262.0)",0.6333333333333333,0.684,1,4607.164
3,96,target,"[(1100, 901)]",[],[1],[0.05],vertical,"(390.0, 262.0)",1.2666666666666666,0.018,1,4611.179
3,97,target,"[(1098, 902)]",[],[1],[0.55],horizontal,"(390.0, 762.0)",0.5166666666666666,0.507,1,4615.697
3,98,target,"[(1096, 890)]",[],[1],[],vertical,"(890.0, 262.0)",,cti_phase,0,4619.888
3,99,target,"[(1105, 889)]",[],[1],[0.35],horizontal,"(890.0, 762.0)",0.9,0.311,1,4624.054
3,100,target,"[(1087, 908)]",[],[1],[0.5833333333333334],vertical,"(390.0, 262.0)",0.5333333333333333,0.542,1,4627.996
4,101,catch,"[(1098, 891)]",[],[1],[0.05],horizontal,"(890.0, 762.0)",1.2333333333333334,nan,1,4631.981
4,102,catch,"[(1100, 898)]",[],[1],[0.05],horizontal,"(890.0, 262.0)",0.5833333333333334,nan,1,4636.571
4,103,catch,"[(1100, 880)]",[],[1],[0.05],vertical,"(890.0, 762.0)",1.65,nan,1,4639.964
4,104,catch,"[(1103, 907)]",[],[1],[0.05],vertical,"(390.0, 262.0)",0.9833333333333333,nan,1,4644.714
4,105,catch,"[(1101, 865)]",[],[1],[0.05],horizontal,"(890.0, 262.0)",1.3666666666666667,nan,1,4648.596
4,106,catch,"[(1095, 904)]",[],[1],[0.05],vertical,"(390.0, 262.0)",1.0,nan,1,4653.151
4,107,catch,"[(1094, 894)]",[],[1],[0.05],vertical,"(390.0, 762.0)",1.4666666666666666,nan,1,4657.541
4,108,catch,"[(1099, 882)]",[],[1],[0.05],vertical,"(390.0, 762.0)",0.6,nan,1,4662.429
4,109,catch,"[(1100, 864)]",[],[1],[0.05],vertical,"(890.0, 262.0)",0.5666666666666667,nan,1,4665.767
4,110,catch,"[(1081, 906)]",[],[1],[],vertical,"(390.0, 262.0)",,cti_phase,0,4669.164
4,111,catch,"[(1104, 874)]",[],[1],[0.05],horizontal,"(390.0, 262.0)",1.5,nan,1,4673.614
4,112,catch,"[(1100, 902)]",[],[1],[0.05],horizontal,"(890.0, 262.0)",0.85,nan,1,4677.846
4,113,catch,"[(1093, 892)]",[],[1],[0.05],horizontal,"(390.0, 262.0)",0.7333333333333333,nan,1,4681.59
4,114,catch,"[(1100, 876)]",[],[1],[0.05],vertical,"(390.0, 262.0)",0.9333333333333333,nan,1,4687.883
4,115,catch,"[(1094, 898)]",[],[1],[0.05],vertical,"(390.0, 262.0)",0.9666666666666667,nan,1,4692.39
4,116,catch,"[(1105, 886)]",[],[1],[0.05],horizontal,"(390.0, 762.0)",0.5,nan,1,4696.296
4,117,catch,"[(1090, 896)]",[],[1],[0.05],horizontal,"(890.0, 762.0)",0.7166666666666667,nan,1,4699.999
4,118,catch,"[(1086, 881)]",[],[1],[0.05],vertical,"(890.0, 762.0)",0.5666666666666667,nan,1,4703.915
4,119,catch,"[(1090, 907)]",[],[1],[0.05],vertical,"(390.0, 762.0)",1.0,nan,1,4707.913
4,120,catch,"[(1104, 902)]",[],[1],[0.05],horizontal,"(890.0, 262.0)",0.6333333333333333,nan,1,4711.638
4,121,catch,"[(1081, 890)]",[],[1],[0.05],horizontal,"(390.0, 262.0)",0.7166666666666667,nan,1,4715.516
4,122,catch,"[(1100, 896)]",[],[1],[0.05],vertical,"(390.0, 262.0)",0.8,nan,1,4719.771
4,123,catch,"[(1090, 901)]",[],[1],[0.05],vertical,"(390.0, 762.0)",1.2833333333333332,nan,1,4723.679
4,124,catch,"[(1095, 898)]",[],[1],[],horizontal,"(390.0, 262.0)",,cti_phase,0,4728.306
4,125,catch,"[(1066, 897)]",[],[1],[0.05],horizontal,"(890.0, 262.0)",1.2666666666666666,nan,1,4732.763
4,126,catch,"[(1096, 923)]",[],[1],[],vertical,"(890.0, 762.0)",,cti_phase,0,4737.08
4,127,catch,"[(1094, 864)]",[],[1],[0.05],vertical,"(390.0, 762.0)",0.8333333333333334,nan,1,4741.296
4,128,catch,"[(1086, 893)]",[],[1],[0.05],vertical,"(390.0, 262.0)",0.5833333333333334,nan,1,4745.58
4,129,catch,"[(1077, 911)]",[],[1],[],vertical,"(390.0, 262.0)",,cti_phase,0,4749.579
4,130,catch,"[(1101, 868)]",[],[1],[0.05],horizontal,"(390.0, 762.0)",1.5333333333333332,nan,1,4754.085
4,131,catch,"[(1083, 893)]",[],[1],[0.05],horizontal,"(890.0, 262.0)",1.5166666666666666,nan,1,4758.498
4,132,catch,"[(1100, 913)]",[],[1],[0.05],vertical,"(390.0, 262.0)",1.45,nan,1,4763.112
4,133,catch,"[(1100, 904)]",[],[1],[0.05],horizontal,"(390.0, 262.0)",0.9166666666666666,nan,1,4767.713
4,134,catch,"[(1100, 908)]",[],[1],[0.05],vertical,"(890.0, 262.0)",0.7833333333333333,nan,1,4771.938
4,135,catch,"[(1081, 904)]",[],[1],[0.05],vertical,"(890.0, 262.0)",0.75,nan,1,4775.979
4,136,catch,"[(1081, 902)]",[],[1],[],horizontal,"(890.0, 762.0)",,cti_phase,0,4779.881
4,137,catch,"[(1099, 892)]",[],[1],[0.05],vertical,"(390.0, 262.0)",1.3166666666666667,nan,1,4784.607
4,138,catch,"[(1095, 892)]",[],[1],[0.05],horizontal,"(390.0, 262.0)",1.1833333333333333,nan,1,4789.463
4,139,catch,"[(1100, 906)]",[],[1],[0.05],horizontal,"(890.0, 262.0)",1.5833333333333333,nan,1,4793.696
4,140,catch,"[(1100, 900)]",[],[1],[0.05],vertical,"(890.0, 762.0)",1.1333333333333333,nan,1,4798.238
4,141,catch,"[(1100, 915)]",[],[1],[0.05],horizontal,"(890.0, 762.0)",0.6666666666666666,nan,1,4802.347
4,142,catch,"[(1100, 885)]",[],[1],[0.05],vertical,"(390.0, 262.0)",1.6166666666666667,nan,1,4806.265
4,143,catch,"[(1086, 917)]",[],[1],[0.05],vertical,"(390.0, 262.0)",1.2666666666666666,nan,1,4810.713
4,144,catch,"[(1099, 882)]",[],[1],[0.05],vertical,"(390.0, 762.0)",1.2166666666666666,nan,1,4815.067
4,145,catch,"[(1085, 902)]",[],[1],[0.05],horizontal,"(390.0, 762.0)",0.95,nan,1,4819.348
4,146,catch,"[(1081, 897)]",[],[1],[0.05],horizontal,"(390.0, 762.0)",0.8,nan,1,4823.61
4,147,catch,"[(1083, 902)]",[],[1],[0.05],horizontal,"(390.0, 762.0)",0.8,nan,1,4827.177
4,148,catch,"[(1084, 904)]",[],[1],[0.05],horizontal,"(890.0, 262.0)",1.1166666666666667,nan,1,4831.346
4,149,catch,"[(1081, 906)]",[],[1],[0.05],vertical,"(390.0, 262.0)",1.4333333333333333,nan,1,4835.896
4,150,catch,"[(1061, 914)]",[],[1],[],vertical,"(390.0, 262.0)",,cti_phase,0,4840.797
5,151,target,"[(1100, 902)]",[],[1],[0.2833333333333333],horizontal,"(390.0, 262.0)",1.3166666666666667,0.25,1,4844.707
5,152,target,"[(1087, 901)]",[],[1],[0.31666666666666665],horizontal,"(390.0, 262.0)",0.8166666666666667,0.278,1,4848.801
5,153,target,"[(1094, 891)]",[],[1],[0.15],vertical,"(390.0, 262.0)",1.2166666666666666,0.118,1,4853.439
5,154,target,"[(1094, 899)]",[],[1],[0.08333333333333333],vertical,"(890.0, 262.0)",1.4,0.051,1,4857.797
5,155,target,"[(1085, 901)]",[],[1],[],horizontal,"(890.0, 262.0)",,cti_phase,0,4862.096
5,156,target,"[(1092, 875)]",[],[1],[],horizontal,"(890.0, 762.0)",,cti_phase,0,4866.697
5,157,target,"[(1092, 891)]",[],[1],[0.3833333333333333],horizontal,"(890.0, 262.0)",0.7833333333333333,0.348,1,4870.564
5,158,target,"[(1100, 902)]",[],[1],[0.85],horizontal,"(390.0, 762.0)",1.1333333333333333,"cti_phase,nan",0,4874.881
5,159,target,"[(1101, 867)]",[],[1],[],horizontal,"(890.0, 262.0)",,cti_phase,0,4879.78
5,160,target,"[(1103, 862)]",[],[1],[0.5],horizontal,"(890.0, 262.0)",1.05,0.461,1,4884.384
5,161,target,"[(1102, 887)]",[],[1],[0.45],horizontal,"(390.0, 762.0)",1.15,0.41,1,4889.049
5,162,target,"[(1086, 890)]",[],[1],[],horizontal,"(890.0, 262.0)",,cti_phase,0,4893.448
5,163,target,"[(1112, 882)]",[],[1],[],vertical,"(890.0, 762.0)",,cti_phase,0,4898.18
5,164,target,"[(1093, 892)]",[],[1],[0.23333333333333334],horizontal,"(390.0, 262.0)",1.1333333333333333,0.2,1,4902.663
5,165,target,"[(1100, 896)]",[],[1],[0.4666666666666667],horizontal,"(890.0, 262.0)",1.0166666666666666,0.429,1,4907.513
5,166,target,"[(1093, 900)]",[],[1],[0.16666666666666666],vertical,"(890.0, 762.0)",1.1166666666666667,0.134,1,4911.781
5,167,target,"[(1079, 896)]",[],[1],[0.5666666666666667],vertical,"(390.0, 762.0)",1.2666666666666666,0.528,1,4916.312
5,168,target,"[(1077, 899)]",[],[1],[0.6],vertical,"(390.0, 762.0)",0.8,0.558,1,4921.113
5,169,target,"[(1085, 892)]",[],[1],[0.1],horizontal,"(390.0, 762.0)",1.2166666666666666,0.069,1,4925.746
5,170,target,"[(1078, 916)]",[],[1],[0.6333333333333333],vertical,"(890.0, 262.0)",0.5833333333333334,0.591,1,4929.73
5,171,target,"[(1101, 916)]",[],[1],[0.48333333333333334],horizontal,"(390.0, 262.0)",0.7833333333333333,0.447,1,4934.434
5,172,target,"[(1082, 903)]",[],[1],[],horizontal,"(390.0, 262.0)",,cti_phase,0,4938.481
5,173,target,"[(1096, 868)]",[],[1],[0.35],horizontal,"(390.0, 762.0)",1.3166666666666667,0.311,1,4943.046
5,174,target,"[(1100, 895)]",[],[1],[0.5333333333333333],horizontal,"(890.0, 762.0)",0.5333333333333333,0.491,1,4947.213
5,175,target,"[(1081, 892)]",[],[1],[0.5],horizontal,"(890.0, 262.0)",0.75,0.46,1,4951.497
6,176,catch,"[(1095, 895)]",[],[1],[],horizontal,"(390.0, 762.0)",,cti_phase,0,4956.02
6,177,catch,"[(1088, 868)]",[],[1],[],vertical,"(890.0, 762.0)",,cti_phase,0,4960.698
6,178,catch,"[(1100, 867)]",[],[1],[],vertical,"(890.0, 762.0)",,cti_phase,0,4964.521
6,179,catch,"[(1088, 869)]",[],[1],[0.05],horizontal,"(890.0, 762.0)",0.5666666666666667,nan,1,4968.914
6,180,catch,"[(1077, 888)]",[],[1],[0.05],horizontal,"(390.0, 262.0)",0.9833333333333333,nan,1,4972.413
6,181,catch,"[(1102, 898)]",[],[1],[],horizontal,"(890.0, 762.0)",,cti_phase,0,4976.547
6,182,catch,"[(1100, 897)]",[],[1],[],horizontal,"(890.0, 262.0)",,cti_phase,0,4980.381
6,183,catch,"[(1085, 863)]",[],[1],[],vertical,"(890.0, 762.0)",,cti_phase,0,4984.964
6,184,catch,"[(1085, 896)]",[],[1],[],horizontal,"(390.0, 262.0)",,cti_phase,0,4988.614
6,185,catch,"[(1098, 862)]",[],[1],[0.05],horizontal,"(890.0, 262.0)",0.6833333333333333,nan,1,4993.063
6,186,catch,"[(1090, 911)]",[],[1],[0.05],vertical,"(890.0, 762.0)",0.5333333333333333,nan,1,4996.88
6,187,catch,"[(1090, 885)]",[],[1],[0.05],horizontal,"(890.0, 262.0)",0.9166666666666666,nan,1,5001.196
6,188,catch,"[(1081, 902)]",[],[1],[],vertical,"(390.0, 762.0)",,cti_phase,0,5005.231
6,189,catch,"[(1104, 878)]",[],[1],[0.05],horizontal,"(390.0, 262.0)",0.6166666666666667,nan,1,5009.982
6,190,catch,"[(1085, 877)]",[],[1],[],vertical,"(390.0, 762.0)",,cti_phase,0,5013.997
6,191,catch,"[(1096, 870)]",[],[1],[0.05],vertical,"(390.0, 762.0)",1.2833333333333332,nan,1,5018.727
6,192,catch,"[(1095, 897)]",[],[1],[0.05],vertical,"(390.0, 762.0)",1.0,nan,1,5022.781
6,193,catch,"[(1100, 908)]",[],[1],[0.05],horizontal,"(390.0, 262.0)",0.6666666666666666,nan,1,5027.502
6,194,catch,"[(1081, 904)]",[],[1],[0.05],horizontal,"(890.0, 762.0)",0.6666666666666666,nan,1,5031.445
6,195,catch,"[(1134, 880)]",[],[1],[],horizontal,"(890.0, 762.0)",,fix_phase,0,5035.082
6,196,catch,"[(759, 669), (913, 545), (708, 751), (1003, 319), (900, 330), (713, 428), (713, 200), (530, 206), (793, 569), (1153, 268), (582, 387), (911, 428), (814, 682), (591, 777), (918, 618), (929, 555), (794, 473), (877, 462), (702, 408), (1012, 760)]",[],"[0, 0, 0, 0, 0, 0, 0, 0, 0, 0, 0, 0, 0, 0, 0, 0, 0, 0, 0, 1]",[],vertical,"(890.0, 762.0)",,fix_phase,0,5036.981
6,197,catch,"[(553, 760), (922, 438), (809, 759), (812, 203), (1006, 493), (543, 774), (937, 418), (1022, 731), (1008, 780)]",[],"[0, 0, 0, 0, 0, 0, 0, 0, 1]",[],horizontal,"(890.0, 262.0)",,fix_phase,0,5047.859
6,198,catch,"[(562, 779), (814, 726), (819, 785), (815, 783), (489, 490), (553, 780), (701, 779), (681, 785), (816, 482), (577, 786), (693, 784), (591, 448), (580, 802), (906, 614), (491, 567), (833, 799), (969, 794), (552, 520), (716, 584), (882, 631), (1042, 802)]",[],"[0, 0, 0, 0, 0, 0, 0, 0, 0, 0, 0, 0, 0, 0, 0, 0, 0, 0, 0, 0, 1]",[],horizontal,"(890.0, 762.0)",,fix_phase,0,5054.148
6,199,catch,"[(587, 599), (644, 486), (872, 800), (790, 662), (1017, 654), (509, 808), (901, 672), (548, 686), (432, 640), (1017, 664), (1003, 684), (590, 669), (853, 682), (596, 662), (436, 457), (613, 672), (616, 691), (616, 415), (923, 674), (601, 678), (606, 599), (742, 678), (664, 685), (591, 686), (533, 746), (601, 688), (456, 712), (1114, 705), (634, 735), (635, 702), (636, 384), (1070, 897)]",[],"[0, 0, 0, 0, 0, 0, 0, 0, 0, 0, 0, 0, 0, 0, 0, 0, 0, 0, 0, 0, 0, 0, 0, 0, 0, 0, 0, 0, 0, 0, 0, 1]",[0.05],horizontal,"(890.0, 762.0)",0.95,nan,1,5069.256
6,200,catch,"[(1104, 918)]",[],[1],[],vertical,"(890.0, 262.0)",,cti_phase,0,5293.883
6,201,catch,"[(1104, 906)]",[],[1],[0.05],vertical,"(390.0, 262.0)",0.5,nan,1,5302.416
6,202,catch,"[(1132, 907)]",[],[1],[0.05],vertical,"(890.0, 262.0)",0.9166666666666666,nan,1,5306.098
6,203,catch,"[(1119, 911)]",[],[1],[0.05],horizontal,"(390.0, 262.0)",1.2166666666666666,nan,1,5310.316
6,204,catch,"[(1100, 880)]",[],[1],[],vertical,"(390.0, 262.0)",,cti_phase,0,5314.981
6,205,catch,"[(1114, 886)]",[],[1],[0.05],horizontal,"(890.0, 262.0)",0.6166666666666667,nan,1,5339.415
6,206,catch,"[(1095, 905)]",[],[1],[],horizontal,"(890.0, 262.0)",,cti_phase,0,5343.486
6,207,catch,"[(1133, 901)]",[],[1],[0.05],vertical,"(390.0, 762.0)",0.6833333333333333,nan,1,5347.964
6,208,catch,"[(1103, 878)]",[],[1],[0.05],vertical,"(890.0, 262.0)",1.2,nan,1,5351.88
6,209,catch,"[(1112, 901)]",[],[1],[],vertical,"(390.0, 262.0)",,cti_phase,0,5356.581
6,210,catch,"[(1124, 903)]",[],[1],[],vertical,"(890.0, 762.0)",,cti_phase,0,5361.011
6,211,catch,"[(1117, 895)]",[],[1],[0.05],horizontal,"(890.0, 262.0)",0.55,nan,1,5365.295
6,212,catch,"[(1112, 893)]",[],[1],[0.05],horizontal,"(390.0, 262.0)",0.5,nan,1,5368.833
6,213,catch,"[(1100, 915)]",[],[1],[0.05],horizontal,"(890.0, 762.0)",0.5,nan,1,5372.281
6,214,catch,"[(1124, 891)]",[],[1],[0.05],vertical,"(390.0, 262.0)",1.25,nan,1,5376.147
6,215,catch,"[(1100, 880)]",[],[1],[0.05],horizontal,"(390.0, 262.0)",0.7666666666666666,nan,1,5380.549
6,216,catch,"[(1075, 895)]",[],[1],[0.05],horizontal,"(390.0, 262.0)",1.25,nan,1,5384.864
6,217,catch,"[(1114, 926)]",[],[1],[0.05],horizontal,"(390.0, 762.0)",0.6,nan,1,5389.23
6,218,catch,"[(1122, 902)]",[],[1],[0.05],horizontal,"(890.0, 262.0)",0.8666666666666667,nan,1,5393.231
6,219,catch,"[(1098, 917)]",[],[1],[0.05],horizontal,"(390.0, 762.0)",1.0166666666666666,nan,1,5396.79
6,220,catch,"[(1095, 886)]",[],[1],[0.05],vertical,"(390.0, 762.0)",0.7333333333333333,nan,1,5401.44
6,221,catch,"[(1098, 911)]",[],[1],[],vertical,"(390.0, 262.0)",,cti_phase,0,5405.549
6,222,catch,"[(1095, 887)]",[],[1],[],horizontal,"(890.0, 262.0)",,cti_phase,0,5410.098
6,223,catch,"[(1096, 897)]",[],[1],[0.05],horizontal,"(390.0, 262.0)",0.6333333333333333,nan,1,5414.669
6,224,catch,"[(1101, 868)]",[],[1],[0.05],vertical,"(890.0, 262.0)",0.5,nan,1,5418.414
6,225,catch,"[(1090, 906)]",[],[1],[],horizontal,"(390.0, 762.0)",,cti_phase,0,5421.915
7,226,target,"[(1124, 861)]",[],[1],[0.3833333333333333],horizontal,"(390.0, 262.0)",1.1833333333333333,0.344,1,5426.765
7,227,target,"[(1107, 892)]",[],[1],[0.6833333333333333],vertical,"(390.0, 262.0)",0.55,0.646,1,5431.317
7,228,target,"[(1118, 899)]",[],[1],[0.43333333333333335],vertical,"(890.0, 262.0)",1.0166666666666666,0.394,1,5435.544
7,229,target,"[(1109, 898)]",[],[1],[],horizontal,"(890.0, 262.0)",,cti_phase,0,5439.732
7,230,target,"[(1105, 887)]",[],[1],[0.48333333333333334],vertical,"(390.0, 262.0)",0.8833333333333333,0.445,1,5444.182
7,231,target,"[(1117, 902)]",[],[1],[0.5],horizontal,"(390.0, 762.0)",0.8333333333333334,0.458,1,5448.704
7,232,target,"[(1090, 889)]",[],[1],[],vertical,"(390.0, 762.0)",,cti_phase,0,5453.071
7,233,target,"[(1095, 887)]",[],[1],[],horizontal,"(890.0, 762.0)",,cti_phase,0,5457.218
7,234,target,"[(1109, 899)]",[],[1],[],vertical,"(390.0, 762.0)",,cti_phase,0,5463.365
7,235,target,"[(1119, 882)]",[],[1],[0.36666666666666664],vertical,"(890.0, 762.0)",0.9,0.337,1,5467.96
7,236,target,"[(1089, 887)]",[],[1],[0.1],horizontal,"(390.0, 262.0)",1.3833333333333333,0.069,1,5472.498
7,237,target,"[(1121, 914)]",[],[1],[0.23333333333333334],vertical,"(390.0, 762.0)",1.1666666666666667,0.203,1,5476.915
7,238,target,"[(1119, 907)]",[],[1],[0.5833333333333334],horizontal,"(890.0, 262.0)",0.9333333333333333,0.545,1,5481.355
7,239,target,"[(1104, 914)]",[],[1],[],horizontal,"(390.0, 262.0)",,cti_phase,0,5485.573
7,240,target,"[(1128, 893)]",[],[1],[0.18333333333333332],horizontal,"(890.0, 262.0)",1.3,0.15,1,5490.082
7,241,target,"[(1104, 903)]",[],[1],[0.2],horizontal,"(390.0, 262.0)",1.6,0.166,1,5494.283
7,242,target,"[(1100, 872)]",[],[1],[],vertical,"(890.0, 762.0)",,cti_phase,0,5498.982
7,243,target,"[(1092, 882)]",[],[1],[0.2833333333333333],vertical,"(390.0, 762.0)",1.2666666666666666,0.247,1,5503.182
7,244,target,"[(1095, 893)]",[],[1],[0.5333333333333333],vertical,"(390.0, 262.0)",0.9333333333333333,0.491,1,5507.85
7,245,target,"[(1104, 884)]",[],[1],[0.5333333333333333],vertical,"(390.0, 762.0)",0.6333333333333333,0.494,1,5512.1
7,246,target,"[(1099, 897)]",[],[1],[],vertical,"(890.0, 762.0)",,cti_phase,0,5516.481
7,247,target,"[(1101, 874)]",[],[1],[],vertical,"(390.0, 762.0)",,cti_phase,0,5520.837
7,248,target,"[(1090, 882)]",[],[1],[0.16666666666666666],horizontal,"(390.0, 262.0)",1.4666666666666666,0.133,1,5525.365
7,249,target,"[(1101, 896)]",[],[1],[],vertical,"(390.0, 262.0)",,cti_phase,0,5529.882
7,250,target,"[(1095, 877)]",[],[1],[0.5166666666666666],horizontal,"(390.0, 762.0)",0.8333333333333334,0.482,1,5534.214
8,251,catch,"[(1095, 899)]",[],[1],[0.05],horizontal,"(890.0, 262.0)",1.3,nan,1,5538.701
8,252,catch,"[(1092, 899)]",[],[1],[0.05],vertical,"(890.0, 762.0)",0.7166666666666667,nan,1,5546.404
8,253,catch,"[(1105, 902)]",[],[1],[0.05],vertical,"(890.0, 762.0)",0.5,nan,1,5550.699
8,254,catch,"[(1101, 880)]",[],[1],[0.05],vertical,"(890.0, 762.0)",1.2166666666666666,nan,1,5554.377
8,255,catch,"[(1100, 907)]",[],[1],[0.05],vertical,"(390.0, 262.0)",0.8333333333333334,nan,1,5558.35
8,256,catch,"[(1095, 892)]",[],[1],[],vertical,"(390.0, 262.0)",,cti_phase,0,5562.292
8,257,catch,"[(1101, 876)]",[],[1],[0.05],vertical,"(890.0, 762.0)",0.5333333333333333,nan,1,5566.905
8,258,catch,"[(1100, 923)]",[],[1],[0.05],vertical,"(890.0, 262.0)",1.1333333333333333,nan,1,5570.34
8,259,catch,"[(1100, 898)]",[],[1],[0.05],horizontal,"(390.0, 762.0)",0.8666666666666667,nan,1,5574.624
8,260,catch,"[(1071, 907)]",[],[1],[0.05],horizontal,"(890.0, 262.0)",0.9333333333333333,nan,1,5579.441
8,261,catch,"[(1100, 902)]",[],[1],[0.05],vertical,"(390.0, 262.0)",0.95,nan,1,5583.765
8,262,catch,"[(1095, 907)]",[],[1],[0.05],horizontal,"(390.0, 762.0)",0.65,nan,1,5587.723
8,263,catch,"[(1086, 900)]",[],[1],[0.05],horizontal,"(390.0, 262.0)",0.5333333333333333,nan,1,5591.698
8,264,catch,"[(1086, 904)]",[],[1],[],vertical,"(890.0, 262.0)",,cti_phase,0,5594.973
8,265,catch,"[(1081, 904)]",[],[1],[],vertical,"(390.0, 762.0)",,cti_phase,0,5599.616
8,266,catch,"[(1100, 876)]",[],[1],[],horizontal,"(390.0, 262.0)",,cti_phase,0,5604.041
8,267,catch,"[(1100, 876)]",[],[1],[0.05],vertical,"(890.0, 262.0)",1.1833333333333333,nan,1,5608.517
8,268,catch,"[(1090, 901)]",[],[1],[],horizontal,"(890.0, 762.0)",,cti_phase,0,5612.468
8,269,catch,"[(1104, 881)]",[],[1],[],horizontal,"(890.0, 762.0)",,cti_phase,0,5617.083
8,270,catch,"[(1100, 888)]",[],[1],[0.05],horizontal,"(390.0, 762.0)",1.0833333333333333,nan,1,5621.834
8,271,catch,"[(1100, 881)]",[],[1],[0.05],horizontal,"(390.0, 262.0)",1.0666666666666667,nan,1,5626.231
8,272,catch,"[(1090, 897)]",[],[1],[],horizontal,"(890.0, 762.0)",,cti_phase,0,5630.06
8,273,catch,"[(1104, 897)]",[],[1],[0.05],vertical,"(890.0, 262.0)",1.4666666666666666,nan,1,5634.699
8,274,catch,"[(1100, 885)]",[],[1],[0.05],horizontal,"(390.0, 262.0)",0.6833333333333333,nan,1,5639.198
8,275,catch,"[(1109, 896)]",[],[1],[],horizontal,"(390.0, 262.0)",,cti_phase,0,5643.183
8,276,catch,"[(1077, 888)]",[],[1],[0.05],horizontal,"(390.0, 762.0)",0.55,nan,1,5647.799
8,277,catch,"[(1084, 897)]",[],[1],[],vertical,"(890.0, 262.0)",,cti_phase,0,5651.237
8,278,catch,"[(1090, 890)]",[],[1],[],vertical,"(390.0, 762.0)",,cti_phase,0,5655.894
8,279,catch,"[(1109, 877)]",[],[1],[0.05],vertical,"(890.0, 762.0)",1.0166666666666666,nan,1,5659.798
8,280,catch,"[(1109, 900)]",[],[1],[0.05],horizontal,"(890.0, 762.0)",0.6833333333333333,nan,1,5664.306
8,281,catch,"[(1082, 907)]",[],[1],[0.05],vertical,"(890.0, 762.0)",0.85,nan,1,5668.17
8,282,catch,"[(1076, 892)]",[],[1],[],vertical,"(390.0, 762.0)",,cti_phase,0,5672.665
8,283,catch,"[(1071, 887)]",[],[1],[0.05],vertical,"(890.0, 262.0)",1.0166666666666666,nan,1,5676.949
8,284,catch,"[(1071, 889)]",[],[1],[0.05],vertical,"(390.0, 262.0)",1.4,nan,1,5680.908
8,285,catch,"[(1086, 877)]",[],[1],[0.05],vertical,"(890.0, 262.0)",1.1,nan,1,5685.317
8,286,catch,"[(1100, 907)]",[],[1],[0.05],horizontal,"(390.0, 762.0)",0.9333333333333333,nan,1,5692.129
8,287,catch,"[(1098, 909)]",[],[1],[0.05],horizontal,"(890.0, 762.0)",0.9833333333333333,nan,1,5696.699
8,288,catch,"[(1100, 911)]",[],[1],[0.05],vertical,"(390.0, 262.0)",1.35,"cti_phase,nan",1,5700.816
8,289,catch,"[(1098, 910)]",[],[1],[],horizontal,"(890.0, 762.0)",,cti_phase,0,5704.983
8,290,catch,"[(1130, 884)]",[],[1],[],horizontal,"(390.0, 762.0)",,cti_phase,0,5709.082
8,291,catch,"[(1102, 886)]",[],[1],[0.05],horizontal,"(890.0, 262.0)",0.6666666666666666,nan,1,5712.659
8,292,catch,"[(1090, 892)]",[],[1],[0.05],horizontal,"(390.0, 762.0)",0.95,nan,1,5716.082
8,293,catch,"[(1109, 872)]",[],[1],[],horizontal,"(390.0, 262.0)",,cti_phase,0,5720.082
8,294,catch,"[(1109, 877)]",[],[1],[],horizontal,"(890.0, 762.0)",,cti_phase,0,5724.566
8,295,catch,"[(1100, 868)]",[],[1],[0.05],vertical,"(390.0, 262.0)",1.2666666666666666,nan,1,5729.027
8,296,catch,"[(1100, 898)]",[],[1],[],vertical,"(890.0, 762.0)",,cti_phase,0,5732.9
8,297,catch,"[(1104, 868)]",[],[1],[0.05],vertical,"(390.0, 762.0)",1.0833333333333333,nan,1,5737.393
8,298,catch,"[(1100, 887)]",[],[1],[],vertical,"(390.0, 762.0)",,cti_phase,0,5741.866
8,299,catch,"[(1129, 877)]",[],[1],[0.05],vertical,"(890.0, 262.0)",1.3666666666666667,nan,1,5746.567
8,300,catch,"[(1100, 906)]",[],[1],[],vertical,"(890.0, 762.0)",,cti_phase,0,5750.95
9,301,target,"[(1101, 877)]",[],[1],[],horizontal,"(890.0, 262.0)",,cti_phase,0,5755.686
9,302,target,"[(1102, 864)]",[],[1],[0.43333333333333335],horizontal,"(890.0, 762.0)",1.2833333333333332,0.391,1,5760.516
9,303,target,"[(1098, 891)]",[],[1],[0.13333333333333333],vertical,"(890.0, 762.0)",1.05,0.101,1,5765.149
9,304,target,"[(1086, 891)]",[],[1],[0.11666666666666667],vertical,"(390.0, 262.0)",1.6,0.084,1,5769.665
9,305,target,"[(1085, 876)]",[],[1],[0.65],vertical,"(890.0, 762.0)",1.25,0.602,1,5774.25
9,306,target,"[(1080, 878)]",[],[1],[0.55],horizontal,"(390.0, 762.0)",0.5333333333333333,0.506,1,5778.933
9,307,target,"[(1100, 906)]",[],[1],[0.3333333333333333],vertical,"(390.0, 762.0)",1.1,0.297,1,5782.923
9,308,target,"[(1095, 910)]",[],[1],[],horizontal,"(890.0, 762.0)",,cti_phase,0,5787.124
9,309,target,"[(1099, 914)]",[],[1],[0.5],vertical,"(890.0, 262.0)",1.1333333333333333,0.463,1,5791.317
9,310,target,"[(1075, 906)]",[],[1],[],vertical,"(390.0, 762.0)",,cti_phase,0,5798.492
9,311,target,"[(1108, 895)]",[],[1],[0.2],vertical,"(890.0, 762.0)",0.8833333333333333,0.168,1,5802.757
9,312,target,"[(1109, 906)]",[],[1],[0.7],horizontal,"(390.0, 262.0)",0.8666666666666667,0.653,1,5806.95
9,313,target,"[(1100, 906)]",[],[1],[],vertical,"(390.0, 762.0)",,cti_phase,0,5811.232
9,314,target,"[(1124, 871)]",[],[1],[0.6666666666666666],horizontal,"(390.0, 262.0)",0.65,0.626,1,5815.85
9,315,target,"[(1100, 919)]",[],[1],[0.6],horizontal,"(390.0, 762.0)",1.1666666666666667,0.558,1,5820.066
9,316,target,"[(1081, 918)]",[],[1],[0.85],vertical,"(890.0, 262.0)",1.2166666666666666,nan,0,5824.816
9,317,target,"[(485, 462), (1099, 901)]",[],"[0, 1]",[0.85],vertical,"(390.0, 762.0)",1.55,nan,0,5830.144
9,318,target,"[(1099, 906)]",[],[1],[0.11666666666666667],vertical,"(390.0, 762.0)",1.0166666666666666,0.085,1,5983.769
9,319,target,"[(1095, 906)]",[],[1],[0.1],horizontal,"(390.0, 762.0)",1.4833333333333334,0.067,1,6154.843
9,320,target,"[(1100, 907)]",[],[1],[],horizontal,"(890.0, 762.0)",,cti_phase,0,6159.422
9,321,target,"[(1089, 926)]",[],[1],[0.21666666666666667],vertical,"(890.0, 762.0)",0.7333333333333333,0.183,1,6163.283
9,322,target,"[(1075, 931)]",[],[1],[0.18333333333333332],horizontal,"(390.0, 762.0)",1.3,0.153,1,6167.571
9,323,target,"[(1074, 918)]",[],[1],[0.31666666666666665],horizontal,"(390.0, 762.0)",0.8833333333333333,0.281,1,6171.967
9,324,target,"[(1071, 922)]",[],[1],[0.45],vertical,"(890.0, 262.0)",0.75,0.409,1,6176.618
9,325,target,"[(1065, 915)]",[],[1],[0.11666666666666667],horizontal,"(890.0, 262.0)",1.2833333333333332,0.086,1,6181.235
10,326,catch,"[(1096, 910)]",[],[1],[0.05],horizontal,"(390.0, 262.0)",0.8166666666666667,nan,1,6185.844
10,327,catch,"[(1109, 897)]",[],[1],[],vertical,"(390.0, 762.0)",,cti_phase,0,6190.101
10,328,catch,"[(1109, 905)]",[],[1],[0.05],vertical,"(390.0, 762.0)",0.5166666666666666,nan,1,6194.552
10,329,catch,"[(1095, 915)]",[],[1],[0.05],vertical,"(390.0, 262.0)",1.5166666666666666,nan,1,6198.583
10,330,catch,"[(1095, 927)]",[],[1],[0.05],vertical,"(390.0, 762.0)",1.0666666666666667,nan,1,6203.449
10,331,catch,"[(1100, 906)]",[],[1],[0.05],vertical,"(890.0, 762.0)",0.9166666666666666,nan,1,6207.552
10,332,catch,"[(1109, 868)]",[],[1],[],vertical,"(890.0, 262.0)",,cti_phase,0,6212.067
10,333,catch,"[(1104, 882)]",[],[1],[0.05],horizontal,"(890.0, 262.0)",0.55,nan,1,6216.152
10,334,catch,"[(1095, 898)]",[],[1],[0.05],vertical,"(890.0, 762.0)",1.0166666666666666,nan,1,6219.667
10,335,catch,"[(1104, 903)]",[],[1],[0.05],vertical,"(390.0, 762.0)",0.8833333333333333,nan,1,6224.086
10,336,catch,"[(1104, 904)]",[],[1],[0.05],vertical,"(890.0, 262.0)",0.8,nan,1,6227.704
10,337,catch,"[(1129, 907)]",[],[1],[],vertical,"(890.0, 762.0)",,cti_phase,0,6232.044
10,338,catch,"[(1110, 898)]",[],[1],[],horizontal,"(390.0, 762.0)",,cti_phase,0,6236.325
10,339,catch,"[(1133, 905)]",[],[1],[],vertical,"(890.0, 762.0)",,cti_phase,0,6240.676
10,340,catch,"[(1129, 898)]",[],[1],[0.05],horizontal,"(390.0, 762.0)",1.4166666666666667,nan,1,6245.152
10,341,catch,"[(1094, 902)]",[],[1],[0.05],horizontal,"(890.0, 262.0)",0.8166666666666667,nan,1,6249.217
10,342,catch,"[(1119, 878)]",[],[1],[0.05],vertical,"(390.0, 262.0)",0.9333333333333333,nan,1,6253.052
10,343,catch,"[(1095, 919)]",[],[1],[],horizontal,"(890.0, 762.0)",,cti_phase,0,6257.37
10,344,catch,"[(1114, 869)]",[],[1],[0.05],horizontal,"(390.0, 762.0)",1.3833333333333333,nan,1,6261.701
10,345,catch,"[(1090, 893)]",[],[1],[0.05],vertical,"(890.0, 762.0)",0.5833333333333334,nan,1,6265.954
10,346,catch,"[(1104, 911)]",[],[1],[0.05],horizontal,"(390.0, 262.0)",1.0833333333333333,nan,1,6269.951
10,347,catch,"[(1095, 899)]",[],[1],[0.05],vertical,"(890.0, 262.0)",0.8333333333333334,nan,1,6274.602
10,348,catch,"[(1081, 911)]",[],[1],[0.05],horizontal,"(890.0, 262.0)",1.1166666666666667,nan,1,6278.683
10,349,catch,"[(1095, 880)]",[],[1],[],vertical,"(890.0, 262.0)",,cti_phase,0,6283.201
10,350,catch,"[(1081, 877)]",[],[1],[0.05],vertical,"(890.0, 762.0)",0.6,nan,1,6287.404
10,351,catch,"[(1075, 886)]",[],[1],[],horizontal,"(890.0, 262.0)",,cti_phase,0,6291.293
10,352,catch,"[(1112, 902)]",[],[1],[0.05],vertical,"(890.0, 262.0)",0.6,nan,1,6295.906
10,353,catch,"[(1108, 879)]",[],[1],[0.05],horizontal,"(390.0, 262.0)",0.6333333333333333,nan,1,6299.519
10,354,catch,"[(1101, 867)]",[],[1],[0.05],vertical,"(390.0, 762.0)",1.2333333333333334,nan,1,6303.209
10,355,catch,"[(1104, 904)]",[],[1],[],horizontal,"(890.0, 262.0)",,cti_phase,0,6307.535
10,356,catch,"[(1129, 865)]",[],[1],[0.05],horizontal,"(390.0, 262.0)",0.6166666666666667,nan,1,6311.751
10,357,catch,"[(1100, 914)]",[],[1],[],vertical,"(890.0, 762.0)",,cti_phase,0,6315.324
10,358,catch,"[(1104, 873)]",[],[1],[0.05],horizontal,"(890.0, 762.0)",1.1333333333333333,nan,1,6319.837
10,359,catch,"[(1080, 902)]",[],[1],[0.05],vertical,"(390.0, 262.0)",0.9,nan,1,6323.786
10,360,catch,"[(1081, 907)]",[],[1],[0.05],horizontal,"(390.0, 262.0)",0.85,nan,1,6327.535
10,361,catch,"[(1109, 886)]",[],[1],[],horizontal,"(890.0, 762.0)",,cti_phase,0,6331.548
10,362,catch,"[(1069, 877)]",[],[1],[0.05],vertical,"(390.0, 262.0)",1.1166666666666667,nan,1,6335.601
10,363,catch,"[(1081, 901)]",[],[1],[0.05],vertical,"(890.0, 262.0)",0.7,nan,1,6339.819
10,364,catch,"[(1114, 896)]",[],[1],[],vertical,"(890.0, 762.0)",,cti_phase,0,6343.815
10,365,catch,"[(1129, 882)]",[],[1],[0.05],horizontal,"(390.0, 762.0)",1.2666666666666666,nan,1,6348.383
10,366,catch,"[(1103, 903)]",[],[1],[0.05],vertical,"(890.0, 262.0)",0.6833333333333333,nan,1,6352.366
10,367,catch,"[(1103, 865)]",[],[1],[0.05],horizontal,"(390.0, 262.0)",1.5833333333333333,nan,1,6356.269
10,368,catch,"[(1100, 874)]",[],[1],[0.05],vertical,"(390.0, 262.0)",1.1833333333333333,nan,1,6360.751
10,369,catch,"[(1090, 908)]",[],[1],[0.05],vertical,"(390.0, 762.0)",0.55,nan,1,6365.34
10,370,catch,"[(1075, 907)]",[],[1],[],horizontal,"(390.0, 762.0)",,cti_phase,0,6369.078
10,371,catch,"[(1090, 867)]",[],[1],[0.05],horizontal,"(390.0, 762.0)",1.0,nan,1,6373.783
10,372,catch,"[(1100, 877)]",[],[1],[0.05],horizontal,"(890.0, 762.0)",0.8833333333333333,nan,1,6377.822
10,373,catch,"[(1074, 902)]",[],[1],[0.05],horizontal,"(390.0, 762.0)",1.1666666666666667,nan,1,6382.141
10,374,catch,"[(1098, 903)]",[],[1],[0.05],vertical,"(890.0, 762.0)",0.9833333333333333,nan,1,6386.442
10,375,catch,"[(1076, 898)]",[],[1],[],horizontal,"(890.0, 762.0)",,cti_phase,0,6390.761
11,376,target,"[(791, 370), (780, 545), (950, 387), (937, 534), (818, 301), (959, 389), (799, 386), (761, 296), (756, 296), (703, 184), (436, 482), (778, 417), (601, 489), (756, 550), (410, 218), (722, 200), (765, 262), (844, 448), (765, 397), (902, 335), (855, 340), (824, 438), (349, 299), (703, 403), (961, 462), (1026, 284), (909, 409), (967, 550), (954, 482), (713, 413), (654, 399), (673, 486), (742, 409), (819, 310), (780, 554), (988, 318), (948, 361), (958, 448), (733, 319), (771, 427), (929, 224), (901, 442), (967, 320), (930, 529), (963, 286), (906, 438), (982, 340), (717, 350), (862, 380), (969, 331), (950, 449), (948, 553), (867, 243), (790, 413), (955, 521), (897, 444), (933, 360), (1190, 505), (862, 618), (964, 452), (790, 564), (848, 457), (931, 618), (968, 580), (1090, 525), (862, 465), (987, 408), (988, 512), (699, 564), (964, 413), (1022, 355), (818, 435), (809, 579), (954, 458), (793, 419), (480, 336), (737, 491), (1032, 594), (859, 350), (713, 438), (863, 457), (790, 501), (932, 448), (664, 469), (734, 516), (746, 335), (809, 574), (811, 448), (858, 500), (720, 311), (925, 526), (803, 618), (780, 350), (1008, 371), (788, 531), (1177, 592), (959, 478), (766, 643), (1051, 564), (688, 473), (717, 389), (714, 350), (990, 482), (388, 579), (620, 441), (1012, 522), (1167, 439), (921, 532), (1100, 491), (809, 400), (1085, 512), (1153, 486), (1075, 599), (891, 516), (1012, 434), (814, 604), (1124, 561), (1042, 641), (921, 648), (930, 535), (1116, 656), (1095, 472), (969, 545), (732, 669), (930, 658), (1204, 521), (1201, 497), (1118, 443), (1003, 477), (1126, 540), (1091, 866)]",[],"[0, 0, 0, 0, 0, 0, 0, 0, 0, 0, 0, 0, 0, 0, 0, 0, 0, 0, 0, 0, 0, 0, 0, 0, 0, 0, 0, 0, 0, 0, 0, 0, 0, 0, 0, 0, 0, 0, 0, 0, 0, 0, 0, 0, 0, 0, 0, 0, 0, 0, 0, 0, 0, 0, 0, 0, 0, 0, 0, 0, 0, 0, 0, 0, 0, 0, 0, 0, 0, 0, 0, 0, 0, 0, 0, 0, 0, 0, 0, 0, 0, 0, 0, 0, 0, 0, 0, 0, 0, 0, 0, 0, 0, 0, 0, 0, 0, 0, 0, 0, 0, 0, 0, 0, 0, 0, 0, 0, 0, 0, 0, 0, 0, 0, 0, 0, 0, 0, 0, 0, 0, 0, 0, 0, 0, 0, 0, 0, 0, 0, 1]",[0.13333333333333333],horizontal,"(390.0, 262.0)",1.25,0.101,1,6395.06
11,377,target,"[(1103, 890)]",[],[1],[0.6333333333333333],vertical,"(890.0, 262.0)",0.5666666666666667,0.591,1,6964.556
11,378,target,"[(1077, 898)]",[],[1],[],horizontal,"(890.0, 762.0)",,cti_phase,0,6968.403
11,379,target,"[(1073, 899)]",[],[1],"[0.85, 0.85]",vertical,"(390.0, 762.0)",1.0666666666666667,"0.798,nan",0,6972.921
11,380,target,"[(1100, 876)]",[],[1],[0.6333333333333333],vertical,"(390.0, 262.0)",0.55,0.59,1,6977.904
11,381,target,"[(1090, 914)]",[],[1],[],vertical,"(890.0, 262.0)",,cti_phase,0,6981.871
11,382,target,"[(1093, 896)]",[],[1],[0.6],vertical,"(390.0, 762.0)",0.5833333333333334,0.557,1,6985.871
11,383,target,"[(1081, 908)]",[],[1],[],vertical,"(390.0, 762.0)",,cti_phase,0,6990.208
11,384,target,"[(1129, 881)]",[],[1],[0.85],horizontal,"(390.0, 762.0)",1.0666666666666667,nan,0,6994.686
11,385,target,"[(1069, 864)]",[],[1],[0.5333333333333333],horizontal,"(390.0, 762.0)",0.75,0.5,1,6999.62
11,386,target,"[(1081, 910)]",[],[1],[0.1],horizontal,"(390.0, 762.0)",0.9333333333333333,0.069,1,7004.035
11,387,target,"[(1085, 901)]",[],[1],[],horizontal,"(890.0, 762.0)",,cti_phase,0,7008.43
11,388,target,"[(1095, 904)]",[],[1],[],horizontal,"(890.0, 762.0)",,cti_phase,0,7013.003
11,389,target,"[(1095, 890)]",[],[1],[0.1],horizontal,"(390.0, 262.0)",1.6166666666666667,0.066,1,7017.816
11,390,target,"[(1095, 901)]",[],[1],[0.5833333333333334],horizontal,"(890.0, 762.0)",0.5833333333333334,0.547,1,7022.29
11,391,target,"[(1082, 898)]",[],[1],[0.6666666666666666],horizontal,"(390.0, 762.0)",0.8333333333333334,0.616,1,7026.621
11,392,target,"[(1100, 898)]",[],[1],[],horizontal,"(890.0, 762.0)",,cti_phase,0,7030.768
11,393,target,"[(1066, 892)]",[],[1],[0.3333333333333333],horizontal,"(890.0, 762.0)",0.9666666666666667,0.298,1,7035.043
11,394,target,"[(1124, 904)]",[],[1],[0.5],vertical,"(890.0, 262.0)",0.7666666666666666,0.472,1,7040.178
11,395,target,"[(1104, 898)]",[],[1],[0.5666666666666667],vertical,"(390.0, 262.0)",0.8666666666666667,0.533,1,7044.677
11,396,target,"[(1097, 897)]",[],[1],[],vertical,"(390.0, 762.0)",,cti_phase,0,7048.669
11,397,target,"[(1098, 868)]",[],[1],[0.48333333333333334],vertical,"(890.0, 262.0)",1.0333333333333332,0.442,1,7052.97
11,398,target,"[(1119, 899)]",[],[1],[0.26666666666666666],horizontal,"(390.0, 262.0)",1.0166666666666666,0.236,1,7057.487
11,399,target,"[(1096, 906)]",[],[1],[],vertical,"(390.0, 262.0)",,cti_phase,0,7061.553
11,400,target,"[(1090, 893)]",[],[1],[0.48333333333333334],horizontal,"(390.0, 262.0)",0.8833333333333333,0.444,1,7066.071
12,401,catch,"[(1072, 912)]",[],[1],"[0.05, 0.05]",horizontal,"(390.0, 762.0)",1.1833333333333333,"0.018,nan",1,7071.981
12,402,catch,"[(1092, 903)]",[],[1],[0.05],horizontal,"(390.0, 762.0)",0.9833333333333333,nan,1,7076.236
12,403,catch,"[(1100, 902)]",[],[1],[0.05],vertical,"(390.0, 762.0)",1.0166666666666666,nan,1,7080.188
12,404,catch,"[(1095, 901)]",[],[1],[0.05],vertical,"(390.0, 762.0)",1.4166666666666667,nan,1,7084.107
12,405,catch,"[(1075, 894)]",[],[1],[0.05],horizontal,"(390.0, 762.0)",0.65,nan,1,7088.656
12,406,catch,"[(1090, 907)]",[],[1],[],horizontal,"(890.0, 762.0)",,cti_phase,0,7099.579
12,407,catch,"[(1081, 864)]",[],[1],[0.05],horizontal,"(890.0, 762.0)",0.9,nan,1,7103.553
12,408,catch,"[(1104, 904)]",[],[1],[0.05],horizontal,"(890.0, 262.0)",0.8166666666666667,nan,1,7107.42
12,409,catch,"[(1079, 906)]",[],[1],[],vertical,"(890.0, 262.0)",,cti_phase,0,7111.403
12,410,catch,"[(1108, 897)]",[],[1],[0.05],horizontal,"(890.0, 262.0)",0.6166666666666667,nan,1,7116.469
12,411,catch,"[(1124, 894)]",[],[1],[],horizontal,"(890.0, 762.0)",,cti_phase,0,7120.437
12,412,catch,"[(1128, 888)]",[],[1],[0.05],horizontal,"(890.0, 762.0)",1.0166666666666666,nan,1,7125.019
12,413,catch,"[(1101, 903)]",[],[1],[],vertical,"(890.0, 762.0)",,cti_phase,0,7128.555
12,414,catch,"[(1100, 867)]",[],[1],[],horizontal,"(890.0, 762.0)",,cti_phase,0,7132.77
12,415,catch,"[(1124, 863)]",[],[1],[0.05],horizontal,"(390.0, 762.0)",1.1,nan,1,7136.997
12,416,catch,"[(1100, 880)]",[],[1],[0.05],vertical,"(890.0, 262.0)",1.0166666666666666,nan,1,7141.138
12,417,catch,"[(1071, 905)]",[],[1],[0.05],vertical,"(390.0, 262.0)",1.15,nan,1,7146.304
12,418,catch,"[(1109, 899)]",[],[1],[0.05],vertical,"(390.0, 262.0)",0.5166666666666666,nan,1,7150.584
12,419,catch,"[(1095, 882)]",[],[1],[],horizontal,"(890.0, 762.0)",,cti_phase,0,7154.304
12,420,catch,"[(1101, 864)]",[],[1],[0.05],horizontal,"(390.0, 762.0)",0.6,nan,1,7158.771
12,421,catch,"[(1133, 863)]",[],[1],[],vertical,"(890.0, 762.0)",,cti_phase,0,7163.02
12,422,catch,"[(1138, 876)]",[],[1],[0.05],vertical,"(890.0, 762.0)",1.1833333333333333,nan,1,7167.404
12,423,catch,"[(1090, 902)]",[],[1],[0.05],vertical,"(390.0, 762.0)",1.1666666666666667,nan,1,7171.752
12,424,catch,"[(1090, 865)]",[],[1],[0.05],vertical,"(390.0, 262.0)",0.95,nan,1,7175.948
12,425,catch,"[(1110, 882)]",[],[1],[0.05],horizontal,"(890.0, 262.0)",0.8,nan,1,7179.761
12,426,catch,"[(1107, 885)]",[],[1],[],horizontal,"(390.0, 762.0)",,cti_phase,0,7183.419
12,427,catch,"[(1098, 870)]",[],[1],[0.05],vertical,"(890.0, 262.0)",0.5,nan,1,7187.703
12,428,catch,"[(1076, 894)]",[],[1],[0.05],vertical,"(890.0, 262.0)",1.0,nan,1,7191.337
12,429,catch,"[(1100, 889)]",[],[1],[0.05],vertical,"(390.0, 762.0)",0.65,nan,1,7195.863
12,430,catch,"[(1100, 896)]",[],[1],[0.05],horizontal,"(890.0, 262.0)",0.8666666666666667,nan,1,7199.291
12,431,catch,"[(1100, 883)]",[],[1],[],horizontal,"(890.0, 762.0)",,cti_phase,0,7203.753
12,432,catch,"[(1132, 852)]",[],[1],[],horizontal,"(390.0, 262.0)",,cti_phase,0,7207.903
12,433,catch,"[(1098, 892)]",[],[1],[],vertical,"(890.0, 262.0)",,cti_phase,0,7212.12
12,434,catch,"[(1128, 897)]",[],[1],[0.05],vertical,"(390.0, 762.0)",1.5166666666666666,"cti_phase,nan",1,7216.49
12,435,catch,"[(1090, 894)]",[],[1],[0.05],vertical,"(890.0, 762.0)",1.0666666666666667,nan,1,7221.326
12,436,catch,"[(1095, 893)]",[],[1],[0.05],vertical,"(390.0, 262.0)",0.9333333333333333,nan,1,7225.187
12,437,catch,"[(1085, 896)]",[],[1],[0.05],vertical,"(890.0, 762.0)",0.65,nan,1,7228.736
12,438,catch,"[(1085, 865)]",[],[1],[],horizontal,"(390.0, 262.0)",,cti_phase,0,7232.376
12,439,catch,"[(1124, 877)]",[],[1],[0.05],vertical,"(890.0, 262.0)",0.8166666666666667,nan,1,7236.907
12,440,catch,"[(1090, 903)]",[],[1],[0.05],horizontal,"(890.0, 262.0)",1.3833333333333333,nan,1,7240.655
12,441,catch,"[(1103, 884)]",[],[1],[],horizontal,"(390.0, 762.0)",,cti_phase,0,7245.248
12,442,catch,"[(1119, 897)]",[],[1],[0.05],horizontal,"(890.0, 262.0)",0.8333333333333334,nan,1,7249.502
12,443,catch,"[(1090, 899)]",[],[1],[0.05],vertical,"(890.0, 762.0)",0.7,nan,1,7254.571
12,444,catch,"[(1110, 891)]",[],[1],[0.05],horizontal,"(390.0, 762.0)",0.5666666666666667,nan,1,7258.637
12,445,catch,"[(1071, 895)]",[],[1],[0.05],horizontal,"(890.0, 262.0)",0.6666666666666666,nan,1,7262.709
12,446,catch,"[(1100, 887)]",[],[1],[],vertical,"(390.0, 262.0)",,cti_phase,0,7266.588
12,447,catch,"[(1099, 867)]",[],[1],[],vertical,"(390.0, 262.0)",,cti_phase,0,7270.936
12,448,catch,"[(1129, 876)]",[],[1],[0.05],vertical,"(890.0, 262.0)",1.0666666666666667,nan,1,7275.821
12,449,catch,"[(1095, 904)]",[],[1],[0.05],vertical,"(390.0, 762.0)",0.5333333333333333,nan,1,7279.981
12,450,catch,"[(1121, 900)]",[],[1],[0.05],vertical,"(390.0, 762.0)",1.0833333333333333,nan,1,7283.902
13,451,target,"[(1101, 895)]",[],[1],[],horizontal,"(890.0, 762.0)",,cti_phase,0,7288.091
13,452,target,"[(1119, 871)]",[],[1],[0.3],vertical,"(890.0, 262.0)",1.1333333333333333,0.271,1,7292.303
13,453,target,"[(1109, 902)]",[],[1],[0.43333333333333335],horizontal,"(890.0, 262.0)",1.0333333333333332,0.395,1,7296.321
13,454,target,"[(1115, 899)]",[],[1],[0.4666666666666667],horizontal,"(890.0, 262.0)",0.7666666666666666,0.427,1,7300.53
13,455,target,"[(1097, 889)]",[],[1],[],vertical,"(890.0, 262.0)",,cti_phase,0,7305.111
13,456,target,"[(1127, 899)]",[],[1],[0.5],horizontal,"(890.0, 262.0)",0.8166666666666667,0.458,1,7309.307
13,457,target,"[(1085, 904)]",[],[1],[0.48333333333333334],horizontal,"(890.0, 262.0)",0.7666666666666666,0.442,1,7313.522
13,458,target,"[(1100, 896)]",[],[1],[0.5333333333333333],vertical,"(390.0, 262.0)",0.8166666666666667,0.497,1,7317.89
13,459,target,"[(1100, 902)]",[],[1],[0.31666666666666665],horizontal,"(890.0, 262.0)",0.8666666666666667,0.283,1,7322.387
13,460,target,"[(1119, 898)]",[],[1],[0.5666666666666667],horizontal,"(390.0, 762.0)",0.7166666666666667,0.531,1,7326.538
13,461,target,"[(1126, 903)]",[],[1],[0.4666666666666667],horizontal,"(390.0, 762.0)",0.7833333333333333,0.429,1,7330.699
13,462,target,"[(1100, 901)]",[],[1],[],horizontal,"(890.0, 762.0)",,cti_phase,0,7334.587
13,463,target,"[(1126, 868)]",[],[1],[0.45],horizontal,"(390.0, 762.0)",1.05,0.413,1,7338.921
13,464,target,"[(1119, 916)]",[],[1],[0.5333333333333333],vertical,"(390.0, 262.0)",0.6,0.499,1,7343.136
13,465,target,"[(1095, 871)]",[],[1],[],horizontal,"(390.0, 762.0)",,cti_phase,0,7347.453
13,466,target,"[(1128, 896)]",[],[1],[0.5333333333333333],horizontal,"(890.0, 762.0)",1.0166666666666666,0.493,1,7351.587
13,467,target,"[(1104, 902)]",[],[1],[],vertical,"(390.0, 762.0)",,cti_phase,0,7355.727
13,468,target,"[(1108, 867)]",[],[1],[0.6],vertical,"(390.0, 262.0)",0.6,0.56,1,7360.071
13,469,target,"[(1107, 902)]",[],[1],[],vertical,"(890.0, 262.0)",,cti_phase,0,7364.148
13,470,target,"[(1103, 895)]",[],[1],[0.43333333333333335],vertical,"(890.0, 262.0)",1.0833333333333333,0.398,1,7368.054
13,471,target,"[(1081, 899)]",[],[1],[0.43333333333333335],horizontal,"(390.0, 762.0)",1.1,0.39,1,7372.388
13,472,target,"[(1102, 885)]",[],[1],[0.43333333333333335],horizontal,"(390.0, 762.0)",0.8333333333333334,0.39,1,7377.854
13,473,target,"[(1107, 910)]",[],[1],[0.6833333333333333],vertical,"(890.0, 262.0)",0.7833333333333333,0.641,1,7382.021
13,474,target,"[(1123, 866)]",[],[1],[0.48333333333333334],horizontal,"(390.0, 762.0)",1.05,0.444,1,7386.422
13,475,target,"[(1102, 881)]",[],[1],[0.5166666666666666],horizontal,"(890.0, 762.0)",0.8666666666666667,0.478,1,7390.681
14,476,catch,"[(1109, 897)]",[],[1],[0.05],horizontal,"(390.0, 262.0)",0.8,nan,1,7395.248
14,477,catch,"[(1093, 894)]",[],[1],[0.05],vertical,"(390.0, 262.0)",0.7166666666666667,nan,1,7399.255
14,478,catch,"[(1088, 898)]",[],[1],[0.05],vertical,"(890.0, 262.0)",1.2,nan,1,7402.986
14,479,catch,"[(1112, 888)]",[],[1],[0.05],vertical,"(890.0, 762.0)",1.15,nan,1,7407.82
14,480,catch,"[(1104, 897)]",[],[1],[],horizontal,"(890.0, 262.0)",,cti_phase,0,7412.024
14,481,catch,"[(1110, 898)]",[],[1],"[0.05, 0.05]",vertical,"(890.0, 262.0)",1.3666666666666667,"0.021,nan",1,7416.488
14,482,catch,"[(1106, 907)]",[],[1],[0.05],horizontal,"(390.0, 262.0)",0.8166666666666667,nan,1,7421.12
14,483,catch,"[(1085, 867)]",[],[1],[0.05],vertical,"(890.0, 762.0)",0.7,nan,1,7424.971
14,484,catch,"[(1090, 891)]",[],[1],[0.05],horizontal,"(890.0, 262.0)",0.5333333333333333,nan,1,7430.122
14,485,catch,"[(1119, 877)]",[],[1],[0.05],horizontal,"(890.0, 262.0)",1.1666666666666667,nan,1,7433.8
14,486,catch,"[(1110, 900)]",[],[1],[],vertical,"(390.0, 262.0)",,cti_phase,0,7437.817
14,487,catch,"[(1084, 902)]",[],[1],[0.05],horizontal,"(890.0, 762.0)",1.05,nan,1,7442.072
14,488,catch,"[(1102, 877)]",[],[1],[0.05],vertical,"(390.0, 262.0)",1.15,nan,1,7446.455
14,489,catch,"[(1090, 901)]",[],[1],[0.05],horizontal,"(890.0, 762.0)",0.8166666666666667,nan,1,7450.788
14,490,catch,"[(1114, 902)]",[],[1],[],horizontal,"(890.0, 262.0)",,cti_phase,0,7454.637
14,491,catch,"[(1124, 877)]",[],[1],[0.05],horizontal,"(390.0, 262.0)",0.85,nan,1,7458.806
14,492,catch,"[(1095, 898)]",[],[1],[0.05],horizontal,"(890.0, 262.0)",0.7833333333333333,nan,1,7463.036
14,493,catch,"[(1104, 902)]",[],[1],[0.05],vertical,"(390.0, 262.0)",0.9,nan,1,7467.447
14,494,catch,"[(1100, 889)]",[],[1],[],horizontal,"(890.0, 762.0)",,cti_phase,0,7471.472
14,495,catch,"[(1100, 902)]",[],[1],[],horizontal,"(390.0, 262.0)",,cti_phase,0,7475.67
14,496,catch,"[(1090, 907)]",[],[1],[],vertical,"(890.0, 762.0)",,cti_phase,0,7479.822
14,497,catch,"[(1100, 866)]",[],[1],[],vertical,"(390.0, 762.0)",,cti_phase,0,7484.539
14,498,catch,"[(1126, 863)]",[],[1],[0.05],vertical,"(390.0, 762.0)",1.5666666666666667,nan,1,7488.939
14,499,catch,"[(1109, 897)]",[],[1],[0.05],horizontal,"(390.0, 262.0)",1.0833333333333333,nan,1,7493.728
14,500,catch,"[(1090, 870)]",[],[1],[0.05],horizontal,"(390.0, 762.0)",0.7333333333333333,nan,1,7497.871
14,501,catch,"[(1122, 888)]",[],[1],[0.05],horizontal,"(390.0, 262.0)",0.5166666666666666,nan,1,7502.173
14,502,catch,"[(1104, 907)]",[],[1],[],vertical,"(890.0, 262.0)",,cti_phase,0,7505.888
14,503,catch,"[(1114, 893)]",[],[1],[0.05],horizontal,"(390.0, 262.0)",0.9166666666666666,nan,1,7510.906
14,504,catch,"[(1124, 872)]",[],[1],[0.05],vertical,"(390.0, 762.0)",1.4166666666666667,nan,1,7514.809
14,505,catch,"[(1126, 906)]",[],[1],[0.05],vertical,"(390.0, 762.0)",0.75,nan,1,7519.736
14,506,catch,"[(1109, 880)]",[],[1],[],vertical,"(890.0, 262.0)",,cti_phase,0,7523.32
14,507,catch,"[(1096, 896)]",[],[1],[0.05],vertical,"(890.0, 262.0)",1.1833333333333333,nan,1,7527.722
14,508,catch,"[(1095, 916)]",[],[1],[],vertical,"(890.0, 762.0)",,cti_phase,0,7532.922
14,509,catch,"[(815, 434), (446, 432), (822, 508), (862, 360), (477, 443), (471, 791), (537, 367), (407, 406), (451, 408), (635, 511), (803, 496), (901, 956), (913, 273), (735, 687), (691, 122), (790, 452), (567, 639), (572, 142), (620, 91), (526, 147), (446, 945), (554, 887), (713, 574), (654, 906), (218, 389), (723, 128), (784, 384), (422, 716), (359, 413), (464, 568), (271, 452), (766, 413), (426, 204), (640, 749), (738, 594), (814, 428), (451, 461), (474, 223), (1177, 755)]",[],"[0, 0, 0, 0, 0, 0, 0, 0, 0, 0, 0, 0, 0, 0, 0, 0, 0, 0, 0, 0, 0, 0, 0, 0, 0, 0, 0, 0, 0, 0, 0, 0, 0, 0, 0, 0, 0, 0, 1]",[],horizontal,"(390.0, 262.0)",,fix_phase,0,7536.991
14,510,catch,"[(751, 765), (528, 682), (585, 848), (759, 629), (843, 506), (722, 799), (492, 404), (615, 242), (422, 806), (489, 182), (717, 684), (368, 259), (743, 301), (596, 280), (257, 374), (257, 372), (804, 516), (235, 315), (606, 349), (219, 336), (286, 353), (368, 374), (693, 339), (320, 296), (417, 581), (596, 628), (368, 634), (644, 651), (112, 627), (283, 648), (601, 658), (694, 681), (732, 706), (649, 847), (723, 614), (204, 160), (437, 290), (495, 440), (678, 320), (306, 843), (732, 742), (673, 520), (538, 625), (727, 623), (611, 633), (741, 379), (610, 662), (729, 794), (848, 731), (547, 199), (721, 652), (637, 714), (393, 452), (717, 218), (731, 521), (365, 658), (730, 711), (518, 691), (330, 680), (432, 813), (344, 735), (340, 691), (427, 731), (359, 685), (466, 748), (406, 667), (320, 773), (625, 369), (390, 790), (638, 806), (318, 823), (528, 838), (353, 858), (630, 867), (348, 477), (348, 320), (756, 923), (383, 667), (746, 965), (320, 781), (242, 516), (755, 389), (722, 443), (312, 443), (644, 486), (298, 443), (654, 433), (262, 482), (218, 501), (294, 428), (1109, 766)]",[],"[0, 0, 0, 0, 0, 0, 0, 0, 0, 0, 0, 0, 0, 0, 0, 0, 0, 0, 0, 0, 0, 0, 0, 0, 0, 0, 0, 0, 0, 0, 0, 0, 0, 0, 0, 0, 0, 0, 0, 0, 0, 0, 0, 0, 0, 0, 0, 0, 0, 0, 0, 0, 0, 0, 0, 0, 0, 0, 0, 0, 0, 0, 0, 0, 0, 0, 0, 0, 0, 0, 0, 0, 0, 0, 0, 0, 0, 0, 0, 0, 0, 0, 0, 0, 0, 0, 0, 0, 0, 0, 1]",[],horizontal,"(890.0, 262.0)",,fix_phase,0,7575.812
14,511,catch,"[(427, 501), (432, 502), (238, 525), (317, 511), (320, 511), (591, 726), (606, 721), (1110, 925)]",[],"[0, 0, 0, 0, 0, 0, 0, 1]",[0.05],horizontal,"(390.0, 762.0)",0.6666666666666666,nan,1,7723.406
14,512,catch,"[(1104, 894)]",[],[1],[0.05],vertical,"(390.0, 762.0)",1.0,nan,1,8215.64
14,513,catch,"[(1090, 905)]",[],[1],[],vertical,"(390.0, 262.0)",,cti_phase,0,8219.89
14,514,catch,"[(1081, 910)]",[],[1],[0.05],vertical,"(390.0, 262.0)",0.7166666666666667,nan,1,8224.177
14,515,catch,"[(1138, 908)]",[],[1],[],vertical,"(390.0, 762.0)",,cti_phase,0,8228.939
14,516,catch,"[(1127, 892)]",[],[1],[],vertical,"(390.0, 762.0)",,cti_phase,0,8233.356
14,517,catch,"[(1091, 902)]",[],[1],[0.05],vertical,"(890.0, 762.0)",1.0666666666666667,nan,1,8237.516
14,518,catch,"[(1081, 898)]",[],[1],[],horizontal,"(390.0, 762.0)",,cti_phase,0,8242.703
14,519,catch,"[(1064, 895)]",[],[1],[0.05],vertical,"(890.0, 762.0)",0.8166666666666667,nan,1,8247.242
14,520,catch,"[(1114, 868)]",[],[1],[0.05],horizontal,"(890.0, 262.0)",0.9166666666666666,nan,1,8252.076
14,521,catch,"[(1100, 901)]",[],[1],[],horizontal,"(390.0, 762.0)",,cti_phase,0,8263.824
14,522,catch,"[(1129, 863)]",[],[1],[],horizontal,"(890.0, 762.0)",,cti_phase,0,8268.34
14,523,catch,"[(1115, 874)]",[],[1],[0.05],vertical,"(890.0, 762.0)",1.0833333333333333,nan,1,8272.519
14,524,catch,"[(1100, 903)]",[],[1],[0.05],horizontal,"(890.0, 762.0)",0.7166666666666667,nan,1,8276.969
14,525,catch,"[(1126, 936)]",[],[1],[0.05],horizontal,"(890.0, 262.0)",1.3833333333333333,nan,1,8281.058
15,526,target,"[(1100, 900)]",[],[1],[0.55],vertical,"(890.0, 762.0)",0.55,0.507,1,8285.664
15,527,target,"[(1103, 906)]",[],[1],[0.1],vertical,"(390.0, 262.0)",1.35,0.071,1,8289.322
15,528,target,"[(1077, 913)]",[],[1],[0.35],horizontal,"(890.0, 762.0)",0.7,0.313,1,8293.441
15,529,target,"[(1100, 901)]",[],[1],[0.2],horizontal,"(390.0, 262.0)",0.7333333333333333,0.168,1,8297.692
15,530,target,"[(1102, 895)]",[],[1],[],horizontal,"(390.0, 262.0)",,cti_phase,0,8302.098
15,531,target,"[(1124, 897)]",[],[1],[],vertical,"(390.0, 762.0)",,cti_phase,0,8306.079
15,532,target,"[(1132, 892)]",[],[1],[0.21666666666666667],horizontal,"(390.0, 262.0)",1.3166666666666667,0.186,1,8310.405
15,533,target,"[(1133, 897)]",[],[1],[0.08333333333333333],vertical,"(390.0, 262.0)",1.3666666666666667,0.05,1,8314.991
15,534,target,"[(1119, 889)]",[],[1],[0.05],horizontal,"(890.0, 262.0)",1.4833333333333334,0.02,1,8319.315
15,535,target,"[(1115, 917)]",[],[1],[],horizontal,"(890.0, 262.0)",,cti_phase,0,8324.29
15,536,target,"[(1129, 867)]",[],[1],"[0.85, 0.85]",vertical,"(390.0, 762.0)",1.0,"0.808,nan",0,8328.79
15,537,target,"[(1110, 872)]",[],[1],[0.3833333333333333],vertical,"(390.0, 762.0)",1.2,0.341,1,8333.023
15,538,target,"[(1100, 918)]",[],[1],[0.4],vertical,"(390.0, 762.0)",0.75,0.357,1,8337.407
15,539,target,"[(1102, 894)]",[],[1],[],horizontal,"(890.0, 762.0)",,cti_phase,0,8341.822
15,540,target,"[(1128, 915)]",[],[1],[0.5166666666666666],horizontal,"(890.0, 262.0)",0.8166666666666667,0.478,1,8345.806
15,541,target,"[(1102, 898)]",[],[1],[0.4666666666666667],horizontal,"(890.0, 262.0)",1.1,0.422,1,8350.839
15,542,target,"[(1104, 926)]",[],[1],[0.15],vertical,"(890.0, 262.0)",1.4333333333333333,0.117,1,8355.076
15,543,target,"[(1104, 901)]",[],[1],[0.5],horizontal,"(390.0, 262.0)",1.65,0.465,1,8360.19
15,544,target,"[(1104, 904)]",[],[1],[0.48333333333333334],vertical,"(390.0, 262.0)",0.8166666666666667,0.444,1,8365.101
15,545,target,"[(1128, 923)]",[],[1],[0.5],horizontal,"(890.0, 262.0)",0.5833333333333334,0.461,1,8369.474
15,546,target,"[(1111, 897)]",[],[1],[0.23333333333333334],vertical,"(890.0, 262.0)",1.6333333333333333,0.201,1,8373.614
15,547,target,"[(1097, 902)]",[],[1],[0.5333333333333333],vertical,"(390.0, 262.0)",0.8,0.489,1,8378.606
15,548,target,"[(1119, 921)]",[],[1],[0.13333333333333333],horizontal,"(890.0, 262.0)",1.6166666666666667,0.103,1,8382.674
15,549,target,"[(1128, 906)]",[],[1],[0.06666666666666667],horizontal,"(890.0, 262.0)",1.4666666666666666,0.036,1,8387.157
15,550,target,"[(1100, 894)]",[],[1],[0.11666666666666667],vertical,"(390.0, 762.0)",1.3666666666666667,0.082,1,8391.479
16,551,catch,"[(1119, 892)]",[],[1],[0.05],vertical,"(890.0, 262.0)",1.3,nan,1,8396.166
16,552,catch,"[(1100, 897)]",[],[1],[],vertical,"(890.0, 262.0)",,cti_phase,0,8400.142
16,553,catch,"[(1100, 901)]",[],[1],[0.05],vertical,"(890.0, 762.0)",1.0166666666666666,"cti_phase,nan",1,8404.956
16,554,catch,"[(1078, 909)]",[],[1],[0.05],horizontal,"(390.0, 762.0)",0.7,nan,1,8409.742
16,555,catch,"[(1085, 908)]",[],[1],[0.05],horizontal,"(390.0, 762.0)",0.7333333333333333,nan,1,8413.458
16,556,catch,"[(1102, 892)]",[],[1],[0.05],horizontal,"(390.0, 762.0)",1.25,nan,1,8417.524
16,557,catch,"[(1094, 908)]",[],[1],[0.05],horizontal,"(390.0, 262.0)",1.1666666666666667,nan,1,8422.19
16,558,catch,"[(1103, 905)]",[],[1],[0.05],vertical,"(390.0, 262.0)",0.9666666666666667,nan,1,8426.374
16,559,catch,"[(1098, 897)]",[],[1],[0.05],vertical,"(890.0, 762.0)",1.05,nan,1,8430.242
16,560,catch,"[(1100, 881)]",[],[1],[],vertical,"(890.0, 762.0)",,cti_phase,0,8434.808
16,561,catch,"[(1103, 884)]",[],[1],[0.05],horizontal,"(890.0, 262.0)",1.2666666666666666,nan,1,8439.107
16,562,catch,"[(1085, 893)]",[],[1],[0.05],vertical,"(890.0, 762.0)",1.2,nan,1,8443.187
16,563,catch,"[(1098, 899)]",[],[1],[],vertical,"(890.0, 762.0)",,cti_phase,0,8447.509
16,564,catch,"[(1066, 896)]",[],[1],[0.05],horizontal,"(890.0, 762.0)",0.7,nan,1,8451.778
16,565,catch,"[(412, 460), (518, 696), (518, 773), (524, 808), (364, 577), (524, 833), (533, 859), (528, 858), (524, 869), (1082, 897)]",[],"[0, 0, 0, 0, 0, 0, 0, 0, 0, 1]",[0.05],horizontal,"(890.0, 762.0)",0.5333333333333333,nan,1,8465.635
16,566,catch,"[(1115, 895)]",[],[1],[0.05],vertical,"(390.0, 762.0)",0.5333333333333333,nan,1,8608.524
16,567,catch,"[(1061, 936)]",[],[1],[0.05],vertical,"(390.0, 262.0)",1.5,nan,1,8622.225
16,568,catch,"[(1097, 927)]",[],[1],[0.05],horizontal,"(890.0, 762.0)",1.0,nan,1,8626.909
16,569,catch,"[(1082, 913)]",[],[1],[0.05],vertical,"(890.0, 762.0)",1.5166666666666666,nan,1,8631.175
16,570,catch,"[(1081, 882)]",[],[1],[0.05],horizontal,"(890.0, 262.0)",0.9,nan,1,8635.508
16,571,catch,"[(1075, 901)]",[],[1],[],vertical,"(390.0, 262.0)",,cti_phase,0,8649.926
16,572,catch,"[(1099, 898)]",[],[1],[],horizontal,"(390.0, 262.0)",,cti_phase,0,8654.574
16,573,catch,"[(1095, 915)]",[],[1],[0.05],vertical,"(890.0, 262.0)",0.7166666666666667,nan,1,8659.008
16,574,catch,"[(1081, 886)]",[],[1],[0.05],vertical,"(390.0, 262.0)",0.8666666666666667,nan,1,8662.708
16,575,catch,"[(1104, 911)]",[],[1],[],horizontal,"(390.0, 262.0)",,cti_phase,0,10422.065
16,576,catch,"[(1100, 871)]",[],[1],[],horizontal,"(390.0, 762.0)",,cti_phase,0,10426.413
16,577,catch,"[(1104, 905)]",[],[1],[0.05],vertical,"(390.0, 262.0)",0.6166666666666667,nan,1,10518.346
16,578,catch,"[(1105, 904)]",[],[1],[],vertical,"(890.0, 762.0)",,cti_phase,0,10521.851
16,579,catch,"[(1093, 898)]",[],[1],[0.05],vertical,"(890.0, 762.0)",0.5833333333333334,nan,1,10525.946
16,580,catch,"[(1102, 904)]",[],[1],[0.05],horizontal,"(390.0, 262.0)",0.6166666666666667,nan,1,10529.863
16,581,catch,"[(1103, 898)]",[],[1],[],vertical,"(390.0, 262.0)",,cti_phase,0,10533.864
16,582,catch,"[(1108, 868)]",[],[1],[0.05],vertical,"(890.0, 762.0)",0.5833333333333334,nan,1,10538.081
16,583,catch,"[(1104, 898)]",[],[1],[0.05],vertical,"(890.0, 262.0)",1.5333333333333332,nan,1,10541.654
16,584,catch,"[(1107, 898)]",[],[1],[0.05],vertical,"(890.0, 262.0)",0.9833333333333333,nan,1,10547.015
16,585,catch,"[(1092, 869)]",[],[1],[0.05],horizontal,"(890.0, 762.0)",0.5166666666666666,nan,1,10551.196
16,586,catch,"[(1129, 905)]",[],[1],[0.05],vertical,"(890.0, 262.0)",0.7833333333333333,nan,1,10555.197
16,587,catch,"[(1103, 904)]",[],[1],[0.05],vertical,"(890.0, 262.0)",0.9,nan,1,10559.113
16,588,catch,"[(1107, 902)]",[],[1],[0.05],vertical,"(390.0, 762.0)",0.6333333333333333,nan,1,10563.487
16,589,catch,"[(1064, 902)]",[],[1],[0.05],vertical,"(390.0, 762.0)",1.25,nan,1,10567.331
16,590,catch,"[(1104, 904)]",[],[1],[0.05],vertical,"(390.0, 762.0)",0.5333333333333333,nan,1,10571.942
16,591,catch,"[(1100, 910)]",[],[1],[0.05],horizontal,"(890.0, 262.0)",0.5166666666666666,nan,1,10575.91
16,592,catch,"[(1104, 906)]",[],[1],[],vertical,"(390.0, 262.0)",,fix_phase,0,10579.68
16,593,catch,"[(592, 457), (1099, 824)]",[],"[0, 1]",[0.05],vertical,"(890.0, 262.0)",0.95,nan,1,10581.548
16,594,catch,"[(1129, 901)]",[],[1],[],vertical,"(390.0, 762.0)",,cti_phase,0,14740.052
16,595,catch,"[(1138, 906)]",[],[1],[0.05],horizontal,"(390.0, 262.0)",0.7166666666666667,nan,1,16515.563
16,596,catch,"[(1103, 931)]",[],[1],[0.05],horizontal,"(390.0, 262.0)",0.6666666666666666,nan,1,16519.449
16,597,catch,"[(1091, 896)]",[],[1],[0.05],vertical,"(890.0, 262.0)",1.05,nan,1,16523.437
16,598,catch,"[(1104, 922)]",[],[1],[],vertical,"(390.0, 262.0)",,cti_phase,0,16527.749
16,599,catch,"[(1066, 892)]",[],[1],[],horizontal,"(390.0, 262.0)",,cti_phase,0,16532.125
16,600,catch,"[(1104, 882)]",[],[1],[0.05],vertical,"(390.0, 262.0)",0.5,nan,1,16536.582
17,601,target,"[(1105, 902)]",[],[1],[],horizontal,"(390.0, 262.0)",,cti_phase,0,16540.285
17,602,target,"[(1124, 864)]",[],[1],[],vertical,"(890.0, 262.0)",,cti_phase,0,16544.317
17,603,target,"[(1134, 885)]",[],[1],[],horizontal,"(890.0, 762.0)",,cti_phase,0,16548.267
17,604,target,"[(1104, 890)]",[],[1],[0.25],vertical,"(390.0, 262.0)",0.9833333333333333,0.217,1,16552.427
17,605,target,"[(1071, 893)]",[],[1],[0.85],vertical,"(390.0, 762.0)",1.5,"cti_phase,nan",0,16556.64
17,606,target,"[(1132, 885)]",[],[1],[0.5666666666666667],horizontal,"(890.0, 262.0)",0.6,0.526,1,16562.017
17,607,target,"[(1104, 906)]",[],[1],[],vertical,"(390.0, 762.0)",,cti_phase,0,16565.983
17,608,target,"[(1129, 904)]",[],[1],[0.55],vertical,"(890.0, 762.0)",0.6,0.51,1,16570.169
17,609,target,"[(1110, 913)]",[],[1],[0.5333333333333333],horizontal,"(890.0, 762.0)",0.6166666666666667,0.491,1,16574.008
17,610,target,"[(1102, 897)]",[],[1],[0.18333333333333332],horizontal,"(890.0, 762.0)",0.8,0.149,1,16577.843
17,611,target,"[(1129, 916)]",[],[1],[],horizontal,"(890.0, 262.0)",,cti_phase,0,16581.831
17,612,target,"[(1131, 896)]",[],[1],[0.2833333333333333],vertical,"(390.0, 262.0)",0.95,0.246,1,16586.248
17,613,target,"[(1130, 921)]",[],[1],[0.26666666666666666],vertical,"(390.0, 262.0)",0.6666666666666666,0.235,1,16590.52
17,614,target,"[(1071, 893)]",[],[1],[0.05],horizontal,"(890.0, 262.0)",1.3333333333333333,0.019,1,16594.764
17,615,target,"[(1104, 909)]",[],[1],[0.4666666666666667],horizontal,"(890.0, 262.0)",0.8166666666666667,0.432,1,16599.132
17,616,target,"[(1105, 916)]",[],[1],[0.35],horizontal,"(390.0, 262.0)",1.1166666666666667,0.313,1,16603.264
17,617,target,"[(1104, 909)]",[],[1],[0.2833333333333333],horizontal,"(890.0, 762.0)",0.9333333333333333,0.246,1,16607.554
17,618,target,"[(1101, 906)]",[],[1],[],vertical,"(890.0, 262.0)",,cti_phase,0,16612.099
17,619,target,"[(1117, 901)]",[],[1],[0.3333333333333333],vertical,"(390.0, 762.0)",0.8833333333333333,0.298,1,16616.854
17,620,target,"[(1100, 902)]",[],[1],[0.18333333333333332],vertical,"(390.0, 262.0)",1.35,0.15,1,16620.914
17,621,target,"[(1105, 915)]",[],[1],[0.43333333333333335],horizontal,"(390.0, 262.0)",1.1333333333333333,0.393,1,16625.348
17,622,target,"[(1091, 892)]",[],[1],[],vertical,"(890.0, 762.0)",,cti_phase,0,16629.882
17,623,target,"[(1128, 893)]",[],[1],[0.55],horizontal,"(390.0, 262.0)",0.8,0.507,1,16633.881
17,624,target,"[(1130, 892)]",[],[1],[0.3333333333333333],horizontal,"(890.0, 262.0)",1.1833333333333333,0.296,1,16638.266
17,625,target,"[(1101, 901)]",[],[1],[0.55],horizontal,"(390.0, 762.0)",0.9166666666666666,0.51,1,16642.727
18,626,catch,"[(1098, 893)]",[],[1],[0.05],horizontal,"(890.0, 262.0)",0.7333333333333333,nan,1,16647.027
18,627,catch,"[(1104, 871)]",[],[1],[],vertical,"(390.0, 762.0)",,cti_phase,0,16651.002
18,628,catch,"[(1104, 868)]",[],[1],[],vertical,"(390.0, 262.0)",,cti_phase,0,16655.116
18,629,catch,"[(1115, 871)]",[],[1],"[0.05, 0.05]",vertical,"(390.0, 262.0)",1.5,"0.022,nan",1,16659.498
18,630,catch,"[(1134, 907)]",[],[1],[0.05],horizontal,"(390.0, 262.0)",0.5666666666666667,nan,1,16663.77
18,631,catch,"[(1113, 901)]",[],[1],[0.05],horizontal,"(390.0, 262.0)",0.9833333333333333,nan,1,16667.264
18,632,catch,"[(1110, 903)]",[],[1],[],vertical,"(890.0, 762.0)",,cti_phase,0,16671.609
18,633,catch,"[(1104, 868)]",[],[1],[0.05],vertical,"(390.0, 262.0)",1.1666666666666667,nan,1,16675.814
18,634,catch,"[(1087, 887)]",[],[1],[0.05],horizontal,"(890.0, 262.0)",0.9833333333333333,nan,1,16679.764
18,635,catch,"[(1129, 870)]",[],[1],[],horizontal,"(390.0, 262.0)",,cti_phase,0,16684.104
18,636,catch,"[(1135, 861)]",[],[1],[],vertical,"(390.0, 762.0)",,cti_phase,0,16688.699
18,637,catch,"[(1129, 872)]",[],[1],[0.05],vertical,"(390.0, 762.0)",1.25,nan,1,16692.907
18,638,catch,"[(1129, 897)]",[],[1],[],horizontal,"(890.0, 262.0)",,cti_phase,0,16696.965
18,639,catch,"[(1172, 861)]",[],[1],[],vertical,"(890.0, 762.0)",,cti_phase,0,16701.801
18,640,catch,"[(1110, 863)]",[],[1],[0.05],vertical,"(390.0, 262.0)",0.95,nan,1,16706.148
18,641,catch,"[(1104, 869)]",[],[1],[0.05],vertical,"(390.0, 762.0)",1.4833333333333334,nan,1,16711.266
18,642,catch,"[(1129, 902)]",[],[1],[0.05],vertical,"(890.0, 262.0)",1.25,nan,1,16715.932
18,643,catch,"[(1104, 872)]",[],[1],[0.05],horizontal,"(890.0, 262.0)",1.0,nan,1,16720.281
18,644,catch,"[(1110, 902)]",[],[1],[],vertical,"(390.0, 262.0)",,cti_phase,0,16724.081
18,645,catch,"[(1128, 895)]",[],[1],[0.05],horizontal,"(890.0, 262.0)",1.2,nan,1,16729.219
18,646,catch,"[(1130, 866)]",[],[1],[0.05],horizontal,"(890.0, 762.0)",0.9833333333333333,nan,1,16733.299
18,647,catch,"[(1105, 892)]",[],[1],[0.05],vertical,"(390.0, 762.0)",1.2,nan,1,16737.733
18,648,catch,"[(1104, 897)]",[],[1],[0.05],vertical,"(390.0, 262.0)",0.5166666666666666,nan,1,16742.374
18,649,catch,"[(1101, 875)]",[],[1],[],vertical,"(390.0, 262.0)",,cti_phase,0,16745.998
18,650,catch,"[(1116, 871)]",[],[1],[0.05],horizontal,"(890.0, 262.0)",1.4,nan,1,16750.554
18,651,catch,"[(1102, 887)]",[],[1],[0.05],vertical,"(890.0, 262.0)",0.75,nan,1,16754.732
18,652,catch,"[(1084, 897)]",[],[1],[],horizontal,"(890.0, 762.0)",,cti_phase,0,16758.366
18,653,catch,"[(1129, 866)]",[],[1],[0.05],vertical,"(890.0, 262.0)",0.75,nan,1,16762.566
18,654,catch,"[(1100, 882)]",[],[1],[0.05],horizontal,"(390.0, 262.0)",0.9666666666666667,nan,1,16766.369
18,655,catch,"[(1123, 873)]",[],[1],[],vertical,"(390.0, 762.0)",,cti_phase,0,16770.394
18,656,catch,"[(1109, 877)]",[],[1],[],horizontal,"(890.0, 762.0)",,cti_phase,0,16774.593
18,657,catch,"[(1124, 868)]",[],[1],[0.05],horizontal,"(390.0, 762.0)",1.0166666666666666,nan,1,16778.565
18,658,catch,"[(1103, 889)]",[],[1],[0.05],vertical,"(390.0, 762.0)",0.5833333333333334,nan,1,16782.395
18,659,catch,"[(1104, 892)]",[],[1],[0.05],horizontal,"(390.0, 262.0)",0.8333333333333334,nan,1,16786.452
18,660,catch,"[(1081, 871)]",[],[1],[],horizontal,"(390.0, 262.0)",,cti_phase,0,16790.158
18,661,catch,"[(1124, 894)]",[],[1],[],vertical,"(390.0, 262.0)",,cti_phase,0,16794.331
18,662,catch,"[(1118, 867)]",[],[1],[],vertical,"(390.0, 762.0)",,cti_phase,0,16798.591
18,663,catch,"[(1113, 867)]",[],[1],[0.05],horizontal,"(390.0, 262.0)",1.4166666666666667,"cti_phase,nan",1,16802.933
18,664,catch,"[(1109, 897)]",[],[1],[],horizontal,"(390.0, 762.0)",,cti_phase,0,16807.497
18,665,catch,"[(1129, 896)]",[],[1],[0.05],horizontal,"(890.0, 262.0)",1.1166666666666667,nan,1,16811.846
18,666,catch,"[(1110, 886)]",[],[1],[0.05],horizontal,"(390.0, 762.0)",1.05,nan,1,16815.8
18,667,catch,"[(1111, 911)]",[],[1],[0.05],vertical,"(890.0, 262.0)",1.1166666666666667,nan,1,16819.833
18,668,catch,"[(1129, 903)]",[],[1],[0.05],vertical,"(390.0, 762.0)",1.0,nan,1,16823.998
18,669,catch,"[(1109, 908)]",[],[1],[0.05],vertical,"(390.0, 262.0)",0.5333333333333333,nan,1,16827.883
18,670,catch,"[(1104, 905)]",[],[1],[],vertical,"(390.0, 262.0)",,cti_phase,0,16831.158
18,671,catch,"[(1130, 872)]",[],[1],[0.05],horizontal,"(390.0, 262.0)",0.75,nan,1,16835.484
18,672,catch,"[(1102, 889)]",[],[1],[],horizontal,"(890.0, 762.0)",,cti_phase,0,16839.066
18,673,catch,"[(1109, 869)]",[],[1],[],vertical,"(390.0, 262.0)",,cti_phase,0,16843.329
18,674,catch,"[(1109, 862)]",[],[1],[0.05],vertical,"(390.0, 262.0)",0.5666666666666667,nan,1,16847.58
18,675,catch,"[(1112, 886)]",[],[1],[0.05],vertical,"(390.0, 762.0)",1.35,nan,1,16851.263
19,676,target,"[(1110, 906)]",[],[1],[],horizontal,"(890.0, 262.0)",,cti_phase,0,16855.749
19,677,target,"[(1132, 886)]",[],[1],[0.21666666666666667],horizontal,"(890.0, 262.0)",1.3166666666666667,0.182,1,16859.882
19,678,target,"[(1109, 902)]",[],[1],[0.6333333333333333],vertical,"(890.0, 262.0)",0.5166666666666666,0.59,1,16864.218
19,679,target,"[(1112, 911)]",[],[1],[],vertical,"(390.0, 762.0)",,cti_phase,0,16868.531
19,680,target,"[(1124, 864)]",[],[1],[0.4666666666666667],vertical,"(390.0, 262.0)",0.6833333333333333,0.432,1,16872.715
19,681,target,"[(1109, 882)]",[],[1],[],horizontal,"(390.0, 262.0)",,cti_phase,0,16877.166
19,682,target,"[(1133, 876)]",[],[1],[0.08333333333333333],vertical,"(390.0, 262.0)",1.3666666666666667,0.051,1,16881.699
19,683,target,"[(1124, 904)]",[],[1],[0.11666666666666667],horizontal,"(390.0, 762.0)",1.2166666666666666,0.084,1,16886.235
19,684,target,"[(1108, 892)]",[],[1],[0.5666666666666667],horizontal,"(390.0, 262.0)",0.9,0.524,1,16890.755
19,685,target,"[(1125, 888)]",[],[1],[0.5166666666666666],vertical,"(890.0, 762.0)",0.65,0.479,1,16895.482
19,686,target,"[(1108, 898)]",[],[1],[0.5166666666666666],vertical,"(390.0, 262.0)",0.5333333333333333,0.473,1,16899.553
19,687,target,"[(1104, 887)]",[],[1],[0.25],horizontal,"(390.0, 262.0)",0.7333333333333333,0.215,1,16903.757
19,688,target,"[(1127, 903)]",[],[1],[0.5833333333333334],horizontal,"(390.0, 762.0)",0.75,0.538,1,16907.999
19,689,target,"[(1104, 892)]",[],[1],[0.4166666666666667],horizontal,"(890.0, 762.0)",0.9,0.378,1,16912.199
19,690,target,"[(1100, 900)]",[],[1],[0.23333333333333334],horizontal,"(390.0, 762.0)",1.1333333333333333,0.198,1,16916.882
19,691,target,"[(1104, 880)]",[],[1],[],vertical,"(390.0, 762.0)",,cti_phase,0,16921.236
19,692,target,"[(1128, 867)]",[],[1],[0.6],horizontal,"(390.0, 262.0)",0.9833333333333333,0.559,1,16925.751
19,693,target,"[(1107, 903)]",[],[1],[0.6],vertical,"(390.0, 762.0)",0.5,0.557,1,16930.075
19,694,target,"[(1109, 902)]",[],[1],[],horizontal,"(890.0, 762.0)",,cti_phase,0,16933.873
19,695,target,"[(1126, 867)]",[],[1],[],horizontal,"(390.0, 762.0)",,cti_phase,0,16938.283
19,696,target,"[(1121, 879)]",[],[1],[0.21666666666666667],horizontal,"(390.0, 762.0)",1.2833333333333332,0.186,1,16942.585
19,697,target,"[(1126, 902)]",[],[1],[0.4666666666666667],vertical,"(390.0, 762.0)",0.9333333333333333,0.429,1,16947.411
19,698,target,"[(1108, 908)]",[],[1],[],horizontal,"(890.0, 262.0)",,cti_phase,0,16952.1
19,699,target,"[(1108, 872)]",[],[1],[0.2],vertical,"(890.0, 762.0)",1.0666666666666667,0.166,1,16956.783
19,700,target,"[(1127, 904)]",[],[1],[0.48333333333333334],horizontal,"(390.0, 262.0)",0.5166666666666666,0.445,1,16961.279
20,701,catch,"[(1110, 897)]",[],[1],[0.05],vertical,"(390.0, 762.0)",1.0333333333333332,nan,1,16965.593
20,702,catch,"[(1104, 897)]",[],[1],[],vertical,"(890.0, 762.0)",,cti_phase,0,16969.699
20,703,catch,"[(1132, 889)]",[],[1],[0.05],horizontal,"(390.0, 262.0)",0.5666666666666667,nan,1,16974.033
20,704,catch,"[(1104, 885)]",[],[1],[0.05],vertical,"(390.0, 762.0)",0.6166666666666667,nan,1,16977.55
20,705,catch,"[(1104, 902)]",[],[1],[0.05],horizontal,"(890.0, 762.0)",1.0666666666666667,nan,1,16980.948
20,706,catch,"[(1104, 894)]",[],[1],[0.05],horizontal,"(890.0, 762.0)",0.85,nan,1,16985.466
20,707,catch,"[(1104, 906)]",[],[1],[0.05],vertical,"(390.0, 262.0)",0.6166666666666667,nan,1,16989.35
20,708,catch,"[(1104, 899)]",[],[1],[0.05],vertical,"(890.0, 262.0)",0.5166666666666666,nan,1,16992.998
20,709,catch,"[(1104, 897)]",[],[1],[0.05],horizontal,"(890.0, 762.0)",1.0333333333333332,nan,1,16996.75
20,710,catch,"[(1081, 898)]",[],[1],[],vertical,"(390.0, 762.0)",,cti_phase,0,17000.583
20,711,catch,"[(1108, 864)]",[],[1],[],horizontal,"(390.0, 762.0)",,cti_phase,0,17004.795
20,712,catch,"[(1129, 877)]",[],[1],[0.05],horizontal,"(390.0, 262.0)",0.9666666666666667,nan,1,17008.567
20,713,catch,"[(1104, 903)]",[],[1],[0.05],vertical,"(890.0, 262.0)",0.8666666666666667,nan,1,17012.483
20,714,catch,"[(1081, 905)]",[],[1],[],horizontal,"(390.0, 262.0)",,cti_phase,0,17016.574
20,715,catch,"[(1102, 869)]",[],[1],[0.05],horizontal,"(390.0, 762.0)",1.55,"cti_phase,nan",1,17021.076
20,716,catch,"[(1129, 898)]",[],[1],[0.05],horizontal,"(390.0, 262.0)",0.6166666666666667,nan,1,17025.535
20,717,catch,"[(1104, 899)]",[],[1],[0.05],vertical,"(890.0, 262.0)",1.1333333333333333,nan,1,17029.249
20,718,catch,"[(1103, 899)]",[],[1],[0.05],horizontal,"(890.0, 262.0)",0.8,nan,1,17033.533
20,719,catch,"[(1098, 891)]",[],[1],[0.05],vertical,"(390.0, 762.0)",0.7166666666666667,nan,1,17037.355
20,720,catch,"[(1104, 874)]",[],[1],[0.05],horizontal,"(390.0, 762.0)",0.75,nan,1,17041.466
20,721,catch,"[(1104, 901)]",[],[1],[],horizontal,"(390.0, 762.0)",,cti_phase,0,17045.366
20,722,catch,"[(1133, 867)]",[],[1],[0.05],vertical,"(890.0, 262.0)",0.8833333333333333,"cti_phase,nan",1,17049.349
20,723,catch,"[(1100, 905)]",[],[1],[0.05],vertical,"(890.0, 762.0)",0.9,nan,1,17053.522
20,724,catch,"[(1098, 872)]",[],[1],[0.05],vertical,"(890.0, 762.0)",0.8166666666666667,nan,1,17057.767
20,725,catch,"[(1071, 903)]",[],[1],[],vertical,"(890.0, 262.0)",,cti_phase,0,17061.649
20,726,catch,"[(1104, 865)]",[],[1],[0.05],vertical,"(390.0, 262.0)",0.7333333333333333,nan,1,17066.149
20,727,catch,"[(1104, 877)]",[],[1],[],vertical,"(390.0, 262.0)",,cti_phase,0,17069.65
20,728,catch,"[(1081, 863)]",[],[1],[0.05],horizontal,"(390.0, 762.0)",1.0333333333333332,nan,1,17073.75
20,729,catch,"[(1103, 900)]",[],[1],[],horizontal,"(390.0, 762.0)",,cti_phase,0,17078.316
20,730,catch,"[(1128, 897)]",[],[1],[0.05],horizontal,"(390.0, 762.0)",1.1833333333333333,nan,1,17082.616
20,731,catch,"[(1104, 901)]",[],[1],[],horizontal,"(890.0, 762.0)",,cti_phase,0,17086.848
20,732,catch,"[(1128, 863)]",[],[1],[0.05],horizontal,"(390.0, 262.0)",0.85,nan,1,17090.825
20,733,catch,"[(1097, 907)]",[],[1],[0.05],vertical,"(390.0, 262.0)",0.95,nan,1,17094.533
20,734,catch,"[(1104, 898)]",[],[1],[0.05],horizontal,"(390.0, 262.0)",0.8333333333333334,nan,1,17098.465
20,735,catch,"[(1110, 909)]",[],[1],[],vertical,"(890.0, 262.0)",,cti_phase,0,17102.501
20,736,catch,"[(1105, 872)]",[],[1],[0.05],horizontal,"(390.0, 762.0)",0.9833333333333333,nan,1,17106.396
20,737,catch,"[(1104, 906)]",[],[1],[0.05],horizontal,"(890.0, 762.0)",0.5,nan,1,17110.183
20,738,catch,"[(1102, 899)]",[],[1],[],horizontal,"(890.0, 262.0)",,cti_phase,0,17113.715
20,739,catch,"[(1122, 869)]",[],[1],[],horizontal,"(890.0, 762.0)",,cti_phase,0,17118.249
20,740,catch,"[(1108, 863)]",[],[1],[],vertical,"(890.0, 762.0)",,cti_phase,0,17122.027
20,741,catch,"[(1108, 887)]",[],[1],[0.05],vertical,"(390.0, 262.0)",0.5666666666666667,nan,1,17125.999
20,742,catch,"[(1102, 888)]",[],[1],[0.05],horizontal,"(890.0, 762.0)",0.5,nan,1,17129.866
20,743,catch,"[(1098, 890)]",[],[1],[],horizontal,"(390.0, 262.0)",,cti_phase,0,17133.466
20,744,catch,"[(1128, 872)]",[],[1],[0.05],vertical,"(390.0, 762.0)",0.95,nan,1,17137.979
20,745,catch,"[(1098, 875)]",[],[1],[0.05],vertical,"(890.0, 262.0)",0.9166666666666666,nan,1,17142.016
20,746,catch,"[(1104, 902)]",[],[1],[],horizontal,"(890.0, 262.0)",,cti_phase,0,17146.186
20,747,catch,"[(1129, 872)]",[],[1],[0.05],vertical,"(890.0, 262.0)",1.1833333333333333,nan,1,17150.419
20,748,catch,"[(1104, 901)]",[],[1],[0.05],vertical,"(890.0, 262.0)",0.5,nan,1,17154.169
20,749,catch,"[(1104, 897)]",[],[1],[0.05],horizontal,"(390.0, 762.0)",0.7833333333333333,nan,1,17157.882
20,750,catch,"[(1071, 903)]",[],[1],[0.05],horizontal,"(890.0, 762.0)",0.9333333333333333,nan,1,17162.067
21,751,target,"[(1105, 892)]",[],[1],[0.25],horizontal,"(390.0, 262.0)",0.95,0.216,1,17166.175
21,752,target,"[(1079, 872)]",[],[1],[],vertical,"(890.0, 762.0)",,cti_phase,0,17170.303
21,753,target,"[(1104, 888)]",[],[1],[0.5166666666666666],horizontal,"(890.0, 262.0)",0.65,0.481,1,17174.437
21,754,target,"[(1104, 899)]",[],[1],[],horizontal,"(890.0, 762.0)",,cti_phase,0,17178.276
21,755,target,"[(1125, 859)]",[],[1],[],horizontal,"(890.0, 262.0)",,cti_phase,0,17182.267
21,756,target,"[(1134, 858)]",[],[1],[0.5833333333333334],vertical,"(390.0, 762.0)",0.7666666666666666,0.538,1,17186.106
21,757,target,"[(1104, 893)]",[],[1],[],vertical,"(390.0, 262.0)",,cti_phase,0,17190.184
21,758,target,"[(1104, 867)]",[],[1],[0.3],vertical,"(890.0, 762.0)",0.7333333333333333,0.266,1,17194.5
21,759,target,"[(1085, 892)]",[],[1],[0.5],horizontal,"(390.0, 262.0)",0.7,0.457,1,17198.866
21,760,target,"[(1104, 872)]",[],[1],[0.43333333333333335],vertical,"(890.0, 762.0)",0.7,0.401,1,17204.568
21,761,target,"[(1129, 902)]",[],[1],[0.08333333333333333],vertical,"(890.0, 762.0)",1.0166666666666666,0.052,1,17208.816
21,762,target,"[(1104, 902)]",[],[1],[],vertical,"(890.0, 762.0)",,cti_phase,0,17212.985
21,763,target,"[(1109, 862)]",[],[1],[0.3],vertical,"(890.0, 262.0)",1.2,0.267,1,17216.922
21,764,target,"[(1103, 871)]",[],[1],[],horizontal,"(890.0, 262.0)",,cti_phase,0,17221.024
21,765,target,"[(1120, 867)]",[],[1],[0.55],horizontal,"(390.0, 262.0)",0.8,0.509,1,17225.382
21,766,target,"[(1104, 904)]",[],[1],[],vertical,"(390.0, 262.0)",,cti_phase,0,17229.537
21,767,target,"[(1128, 867)]",[],[1],[0.5666666666666667],horizontal,"(390.0, 262.0)",0.5,0.525,1,17233.899
21,768,target,"[(1104, 906)]",[],[1],[0.21666666666666667],vertical,"(390.0, 262.0)",1.2833333333333332,0.185,1,17237.984
21,769,target,"[(1123, 901)]",[],[1],[0.5],horizontal,"(890.0, 762.0)",0.6166666666666667,0.457,1,17242.226
21,770,target,"[(1128, 898)]",[],[1],[0.4166666666666667],vertical,"(890.0, 262.0)",0.8,0.375,1,17246.672
21,771,target,"[(1104, 890)]",[],[1],[0.55],horizontal,"(390.0, 762.0)",0.8666666666666667,0.509,1,17251.067
21,772,target,"[(1128, 881)]",[],[1],[],horizontal,"(390.0, 262.0)",,cti_phase,0,17255.333
21,773,target,"[(1119, 872)]",[],[1],[0.55],vertical,"(390.0, 762.0)",1.0333333333333332,0.503,1,17259.75
21,774,target,"[(1104, 898)]",[],[1],[0.2],horizontal,"(890.0, 762.0)",0.9333333333333333,0.164,1,17264.088
21,775,target,"[(1103, 871)]",[],[1],[],vertical,"(390.0, 762.0)",,cti_phase,0,17268.075
22,776,catch,"[(1125, 872)]",[],[1],[0.05],horizontal,"(890.0, 262.0)",1.6333333333333333,nan,1,17272.548
22,777,catch,"[(1100, 895)]",[],[1],[],horizontal,"(390.0, 262.0)",,cti_phase,0,17276.917
22,778,catch,"[(1108, 866)]",[],[1],[],vertical,"(890.0, 762.0)",,cti_phase,0,17281.4
22,779,catch,"[(1128, 867)]",[],[1],[0.05],horizontal,"(390.0, 262.0)",0.8666666666666667,nan,1,17285.768
22,780,catch,"[(1100, 906)]",[],[1],[],vertical,"(390.0, 762.0)",,cti_phase,0,17289.267
22,781,catch,"[(1095, 867)]",[],[1],[0.05],horizontal,"(890.0, 262.0)",1.2833333333333332,nan,1,17294.051
22,782,catch,"[(1100, 878)]",[],[1],[0.05],horizontal,"(890.0, 262.0)",0.7,nan,1,17298.488
22,783,catch,"[(1127, 882)]",[],[1],[0.05],vertical,"(390.0, 262.0)",1.4333333333333333,nan,1,17302.767
22,784,catch,"[(1114, 886)]",[],[1],[0.05],horizontal,"(390.0, 262.0)",1.1,nan,1,17307.327
22,785,catch,"[(1100, 887)]",[],[1],[],vertical,"(890.0, 762.0)",,cti_phase,0,17311.534
22,786,catch,"[(1128, 868)]",[],[1],[0.05],vertical,"(390.0, 262.0)",1.1166666666666667,nan,1,17315.867
22,787,catch,"[(1107, 902)]",[],[1],[0.05],vertical,"(890.0, 762.0)",0.75,nan,1,17320.185
22,788,catch,"[(1110, 870)]",[],[1],[],vertical,"(890.0, 262.0)",,cti_phase,0,17324.418
22,789,catch,"[(1132, 867)]",[],[1],[0.05],horizontal,"(390.0, 762.0)",1.3166666666666667,nan,1,17329.184
22,790,catch,"[(1100, 903)]",[],[1],[0.05],horizontal,"(890.0, 762.0)",0.75,nan,1,17333.099
22,791,catch,"[(1100, 891)]",[],[1],[0.05],vertical,"(390.0, 262.0)",0.8333333333333334,nan,1,17337.233
22,792,catch,"[(1098, 882)]",[],[1],[0.05],horizontal,"(890.0, 262.0)",0.9833333333333333,nan,1,17341.633
22,793,catch,"[(1105, 902)]",[],[1],[],horizontal,"(890.0, 262.0)",,cti_phase,0,17345.467
22,794,catch,"[(1133, 867)]",[],[1],[0.05],horizontal,"(390.0, 262.0)",0.8333333333333334,nan,1,17349.935
22,795,catch,"[(1102, 866)]",[],[1],[],horizontal,"(890.0, 762.0)",,cti_phase,0,17353.852
22,796,catch,"[(1124, 891)]",[],[1],[0.05],vertical,"(890.0, 762.0)",0.95,nan,1,17358.517
22,797,catch,"[(1125, 900)]",[],[1],[0.05],vertical,"(890.0, 762.0)",0.75,nan,1,17362.083
22,798,catch,"[(1110, 896)]",[],[1],[0.05],vertical,"(390.0, 262.0)",0.5,nan,1,17365.93
22,799,catch,"[(1104, 897)]",[],[1],[0.05],vertical,"(890.0, 262.0)",0.95,nan,1,17369.649
22,800,catch,"[(1100, 873)]",[],[1],[0.05],horizontal,"(890.0, 262.0)",0.65,nan,1,17373.712
22,801,catch,"[(1101, 897)]",[],[1],[],vertical,"(390.0, 262.0)",,cti_phase,0,17377.749
22,802,catch,"[(1128, 859)]",[],[1],[0.05],horizontal,"(390.0, 762.0)",1.4833333333333334,nan,1,17381.884
22,803,catch,"[(1112, 899)]",[],[1],[],vertical,"(890.0, 762.0)",,cti_phase,0,17386.301
22,804,catch,"[(1124, 879)]",[],[1],[0.05],vertical,"(390.0, 762.0)",1.2666666666666666,nan,1,17390.699
22,805,catch,"[(1126, 903)]",[],[1],[0.05],horizontal,"(390.0, 262.0)",0.9,nan,1,17394.968
22,806,catch,"[(1108, 897)]",[],[1],[],horizontal,"(890.0, 262.0)",,cti_phase,0,17399.284
22,807,catch,"[(1124, 856)]",[],[1],[0.05],horizontal,"(890.0, 262.0)",1.4,nan,1,17403.752
22,808,catch,"[(1104, 893)]",[],[1],[],vertical,"(390.0, 262.0)",,cti_phase,0,17408.082
22,809,catch,"[(1128, 865)]",[],[1],[0.05],vertical,"(390.0, 262.0)",0.85,nan,1,17412.717
22,810,catch,"[(1086, 883)]",[],[1],[],horizontal,"(390.0, 762.0)",,cti_phase,0,17416.746
22,811,catch,"[(1166, 868)]",[],[1],[0.05],horizontal,"(390.0, 262.0)",1.1,nan,1,17421.359
22,812,catch,"[(1095, 880)]",[],[1],[0.05],horizontal,"(390.0, 762.0)",1.5833333333333333,nan,1,17425.568
22,813,catch,"[(1102, 866)]",[],[1],[0.05],horizontal,"(890.0, 262.0)",1.0833333333333333,nan,1,17430.316
22,814,catch,"[(1104, 897)]",[],[1],[0.05],horizontal,"(890.0, 762.0)",0.6666666666666666,nan,1,17434.45
22,815,catch,"[(1100, 864)]",[],[1],[],vertical,"(890.0, 262.0)",,cti_phase,0,17438.301
22,816,catch,"[(1130, 869)]",[],[1],[],vertical,"(890.0, 262.0)",,cti_phase,0,17443.033
22,817,catch,"[(1130, 861)]",[],[1],[0.05],horizontal,"(390.0, 262.0)",0.95,nan,1,17447.551
22,818,catch,"[(1104, 898)]",[],[1],[],horizontal,"(890.0, 262.0)",,cti_phase,0,17451.335
22,819,catch,"[(1133, 866)]",[],[1],[],horizontal,"(890.0, 262.0)",,cti_phase,0,17455.735
22,820,catch,"[(1127, 866)]","[(1100, 879)]",[1],[0.2],vertical,"(390.0, 762.0)",,bar_phase,0,17460.072
22,821,catch,"[(367, 550), (478, 540), (495, 526), (397, 596), (582, 57), (378, 540), (368, 545), (476, 86), (377, 549), (465, 592), (654, 453), (495, 564), (463, 735), (509, 560), (507, 755), (466, 184), (510, 618), (462, 551), (498, 765), (562, 750), (472, 589), (663, 769), (509, 746), (537, 712), (507, 149), (566, 155), (504, 779), (654, 750), (740, 740), (596, 325), (523, 615), (441, 765), (625, 607), (803, 599), (524, 580), (558, 194), (238, 769), (488, 618), (732, 747), (517, 750), (539, 770), (512, 842), (498, 790), (257, 276), (649, 294), (697, 766), (480, 140), (475, 149), (678, 506), (630, 771), (286, 653), (518, 789), (724, 785), (252, 667), (615, 782), (267, 762), (524, 789), (538, 645), (470, 629), (267, 228), (633, 654), (533, 638), (519, 799), (756, 665), (522, 325), (677, 365), (678, 369), (257, 638), (518, 365), (562, 723), (587, 791), (596, 660), (547, 745), (277, 799), (538, 579), (477, 750), (548, 252), (717, 653), (683, 643), (542, 228), (708, 672), (843, 633), (538, 677), (544, 671), (819, 394), (514, 669), (1129, 866)]","[(1071, 884)]","[0, 0, 0, 0, 0, 0, 0, 0, 0, 0, 0, 0, 0, 0, 0, 0, 0, 0, 0, 0, 0, 0, 0, 0, 0, 0, 0, 0, 0, 0, 0, 0, 0, 0, 0, 0, 0, 0, 0, 0, 0, 0, 0, 0, 0, 0, 0, 0, 0, 0, 0, 0, 0, 0, 0, 0, 0, 0, 0, 0, 0, 0, 0, 0, 0, 0, 0, 0, 0, 0, 0, 0, 0, 0, 0, 0, 0, 0, 0, 0, 0, 0, 0, 0, 0, 0, 1]",[0.4666666666666667],vertical,"(390.0, 262.0)",,bar_phase,0,17462.6
22,822,catch,"[(1130, 882)]","[(1080, 892)]",[1],[0.06666666666666667],vertical,"(890.0, 762.0)",,bar_phase,0,17509.6
22,823,catch,"[(486, 661), (1124, 868)]",[],"[0, 1]",[],horizontal,"(390.0, 262.0)",,fix_phase,0,17511.944
22,824,catch,"[(441, 281), (422, 760), (1119, 887)]",[],"[0, 0, 1]",[],horizontal,"(890.0, 762.0)",,cti_phase,0,17514.734
22,825,catch,"[(1121, 872)]",[],[1],[],vertical,"(390.0, 762.0)",,cti_phase,0,17524.402
23,826,target,"[(1119, 880)]",[],[1],[],horizontal,"(890.0, 262.0)",,cti_phase,0,17527.381
23,827,target,"[(1124, 863)]",[],[1],[],vertical,"(390.0, 762.0)",,cti_phase,0,17530.684
23,828,target,"[(1100, 893)]",[],[1],[0.21666666666666667],horizontal,"(390.0, 262.0)",0.8333333333333334,0.184,1,17533.666
23,829,target,"[(577, 335), (563, 413), (1054, 921)]",[],"[0, 0, 1]",[],vertical,"(390.0, 762.0)",,cti_phase,0,17538.07
23,830,target,"[(1097, 902)]",[],[1],[0.5666666666666667],horizontal,"(390.0, 762.0)",0.85,0.531,1,17627.634
23,831,target,"[(1119, 904)]",[],[1],[0.85],vertical,"(890.0, 262.0)",1.0,"cti_phase,nan",0,17632.383
23,832,target,"[(1129, 885)]",[],[1],[],vertical,"(390.0, 762.0)",,cti_phase,0,17637.568
23,833,target,"[(1132, 868)]",[],[1],[],horizontal,"(390.0, 262.0)",,cti_phase,0,17641.875
23,834,target,"[(1129, 885)]",[],[1],[0.18333333333333332],vertical,"(390.0, 762.0)",1.55,0.152,1,17646.419
23,835,target,"[(1104, 898)]",[],[1],[0.06666666666666667],horizontal,"(890.0, 762.0)",0.95,0.035,1,17650.853
23,836,target,"[(1104, 902)]",[],[1],[0.85],vertical,"(390.0, 262.0)",1.65,nan,0,17655.323
23,837,target,"[(703, 516), (1098, 875)]",[],"[0, 1]",[0.5],horizontal,"(890.0, 762.0)",0.5333333333333333,0.463,1,17660.926
23,838,target,"[(1104, 884)]",[],[1],[0.85],vertical,"(890.0, 262.0)",1.1333333333333333,nan,0,17672.903
23,839,target,"[(1128, 868)]",[],[1],[0.3333333333333333],horizontal,"(390.0, 262.0)",1.5666666666666667,0.294,1,17677.919
23,840,target,"[(1114, 897)]",[],[1],[0.23333333333333334],horizontal,"(390.0, 762.0)",1.2333333333333334,0.2,1,17682.68
23,841,target,"[(1104, 884)]",[],[1],[0.5333333333333333],vertical,"(890.0, 762.0)",0.5,0.49,1,17687.31
23,842,target,"[(1131, 889)]",[],[1],[0.3833333333333333],vertical,"(890.0, 762.0)",0.75,0.341,1,17690.951
23,843,target,"[(1111, 902)]",[],[1],[0.6],horizontal,"(390.0, 262.0)",0.85,0.565,1,17695.108
23,844,target,"[(1090, 896)]",[],[1],[],vertical,"(390.0, 762.0)",,cti_phase,0,17699.793
23,845,target,"[(1119, 863)]",[],[1],[0.55],vertical,"(390.0, 262.0)",0.8666666666666667,0.513,1,17704.375
23,846,target,"[(1115, 905)]",[],[1],[0.15],vertical,"(890.0, 762.0)",0.7666666666666666,0.117,1,17708.485
23,847,target,"[(1109, 906)]",[],[1],[0.13333333333333333],horizontal,"(390.0, 762.0)",1.4,0.099,1,17712.152
23,848,target,"[(1122, 911)]",[],[1],[0.23333333333333334],vertical,"(890.0, 762.0)",1.0,0.201,1,17716.686
23,849,target,"[(1111, 903)]",[],[1],[0.85],horizontal,"(390.0, 262.0)",1.6166666666666667,"cti_phase,nan",0,17720.56
23,850,target,"[(1133, 868)]",[],[1],[],vertical,"(890.0, 762.0)",,cti_phase,0,17726.011
24,851,catch,"[(1148, 863)]",[],[1],[0.05],horizontal,"(390.0, 762.0)",1.0166666666666666,nan,1,17730.497
24,852,catch,"[(1115, 901)]",[],[1],[0.05],horizontal,"(890.0, 262.0)",1.45,nan,1,17734.769
24,853,catch,"[(1108, 907)]",[],[1],[0.05],horizontal,"(890.0, 262.0)",0.9666666666666667,nan,1,17739.184
24,854,catch,"[(1119, 910)]",[],[1],[0.05],vertical,"(890.0, 762.0)",0.5333333333333333,nan,1,17743.335
24,855,catch,"[(1105, 876)]",[],[1],[],horizontal,"(390.0, 762.0)",,cti_phase,0,17747.623
24,856,catch,"[(1113, 896)]",[],[1],[0.05],horizontal,"(890.0, 262.0)",1.0,nan,1,17752.385
24,857,catch,"[(1104, 885)]",[],[1],[],vertical,"(890.0, 762.0)",,cti_phase,0,17756.57
24,858,catch,"[(1124, 871)]",[],[1],[0.05],vertical,"(890.0, 762.0)",0.8166666666666667,nan,1,17760.752
24,859,catch,"[(1119, 898)]",[],[1],[0.05],horizontal,"(390.0, 262.0)",1.35,nan,1,17764.286
24,860,catch,"[(1110, 896)]",[],[1],[],vertical,"(890.0, 762.0)",,cti_phase,0,17768.51
24,861,catch,"[(1131, 868)]",[],[1],[0.05],horizontal,"(390.0, 762.0)",1.05,nan,1,17772.795
24,862,catch,"[(1081, 896)]",[],[1],"[0.05, 0.05]",vertical,"(890.0, 762.0)",0.9166666666666666,"0.019,nan",1,17776.684
24,863,catch,"[(1102, 877)]",[],[1],[],horizontal,"(890.0, 262.0)",,cti_phase,0,17781.262
24,864,catch,"[(1129, 893)]",[],[1],[0.05],horizontal,"(890.0, 262.0)",1.0166666666666666,nan,1,17785.752
24,865,catch,"[(1100, 875)]",[],[1],[0.05],horizontal,"(390.0, 262.0)",1.3,nan,1,17789.684
24,866,catch,"[(1100, 895)]",[],[1],[0.05],horizontal,"(390.0, 262.0)",0.7333333333333333,nan,1,17794.509
24,867,catch,"[(1103, 897)]",[],[1],[0.05],horizontal,"(890.0, 262.0)",1.15,nan,1,17798.102
24,868,catch,"[(1100, 892)]",[],[1],[0.05],horizontal,"(890.0, 762.0)",0.6,nan,1,17802.261
24,869,catch,"[(1110, 892)]",[],[1],[],vertical,"(390.0, 762.0)",,cti_phase,0,17805.998
24,870,catch,"[(1134, 881)]",[],[1],[0.05],vertical,"(390.0, 762.0)",1.2666666666666666,nan,1,17810.311
24,871,catch,"[(1109, 897)]",[],[1],[],horizontal,"(890.0, 762.0)",,cti_phase,0,17814.582
24,872,catch,"[(1127, 882)]",[],[1],[0.05],horizontal,"(390.0, 262.0)",0.9,nan,1,17818.636
24,873,catch,"[(1104, 898)]",[],[1],[0.05],horizontal,"(890.0, 262.0)",0.8,nan,1,17822.281
24,874,catch,"[(1109, 904)]",[],[1],[],horizontal,"(890.0, 762.0)",,cti_phase,0,17826.369
24,875,catch,"[(1128, 867)]",[],[1],[0.05],vertical,"(890.0, 262.0)",0.7166666666666667,nan,1,17830.201
24,876,catch,"[(1109, 901)]",[],[1],[0.05],vertical,"(890.0, 762.0)",0.95,nan,1,17834.171
24,877,catch,"[(1109, 851)]",[],[1],[0.05],vertical,"(890.0, 762.0)",0.7833333333333333,nan,1,17838.12
24,878,catch,"[(1102, 896)]",[],[1],[0.05],horizontal,"(890.0, 262.0)",0.8333333333333334,nan,1,17842.385
24,879,catch,"[(1076, 911)]",[],[1],[0.05],vertical,"(390.0, 262.0)",0.7333333333333333,nan,1,17846.558
24,880,catch,"[(1100, 871)]",[],[1],[],vertical,"(890.0, 262.0)",,cti_phase,0,17850.619
24,881,catch,"[(1108, 874)]",[],[1],[0.05],horizontal,"(890.0, 262.0)",1.2166666666666666,nan,1,17854.878
24,882,catch,"[(1104, 873)]",[],[1],[],horizontal,"(890.0, 262.0)",,cti_phase,0,17858.664
24,883,catch,"[(1126, 864)]",[],[1],[],horizontal,"(390.0, 262.0)",,cti_phase,0,17863.184
24,884,catch,"[(1134, 867)]",[],[1],[0.05],vertical,"(390.0, 262.0)",0.8666666666666667,nan,1,17867.702
24,885,catch,"[(1100, 872)]",[],[1],[0.05],horizontal,"(390.0, 262.0)",0.7666666666666666,nan,1,17871.485
24,886,catch,"[(1081, 864)]",[],[1],[0.05],horizontal,"(890.0, 262.0)",1.0333333333333332,nan,1,17875.487
24,887,catch,"[(1105, 869)]",[],[1],[],horizontal,"(890.0, 262.0)",,cti_phase,0,17879.718
24,888,catch,"[(1126, 855)]",[],[1],[0.05],vertical,"(890.0, 762.0)",1.3166666666666667,nan,1,17883.852
24,889,catch,"[(1109, 901)]",[],[1],[],horizontal,"(890.0, 262.0)",,cti_phase,0,17887.902
24,890,catch,"[(1132, 863)]",[],[1],[],vertical,"(390.0, 762.0)",,cti_phase,0,17892.716
24,891,catch,"[(1118, 854)]",[],[1],[],horizontal,"(890.0, 762.0)",,cti_phase,0,17897.05
24,892,catch,"[(1116, 864)]",[],[1],[0.05],vertical,"(890.0, 262.0)",1.4166666666666667,nan,1,17900.945
24,893,catch,"[(1102, 867)]",[],[1],[0.05],vertical,"(390.0, 262.0)",1.3333333333333333,nan,1,17905.042
24,894,catch,"[(1107, 901)]",[],[1],[0.05],horizontal,"(890.0, 262.0)",1.0,nan,1,17909.601
24,895,catch,"[(1085, 893)]",[],[1],[0.05],horizontal,"(390.0, 262.0)",1.3166666666666667,nan,1,17914.47
24,896,catch,"[(1108, 892)]",[],[1],[0.05],horizontal,"(390.0, 262.0)",0.85,nan,1,17918.584
24,897,catch,"[(1114, 890)]",[],[1],[0.05],horizontal,"(390.0, 762.0)",0.8166666666666667,nan,1,17922.734
24,898,catch,"[(1095, 893)]",[],[1],[],vertical,"(890.0, 762.0)",,cti_phase,0,17926.818
24,899,catch,"[(1116, 866)]",[],[1],[],vertical,"(890.0, 262.0)",,cti_phase,0,17930.844
24,900,catch,"[(1113, 866)]",[],[1],[0.05],horizontal,"(390.0, 262.0)",1.1,nan,1,17934.885
25,901,target,"[(1102, 881)]",[],[1],[0.1],vertical,"(390.0, 262.0)",1.4,0.067,1,17939.093
25,902,target,"[(1100, 895)]",[],[1],[0.35],vertical,"(390.0, 762.0)",1.0,0.312,1,17943.796
25,903,target,"[(1113, 886)]",[],[1],[],vertical,"(890.0, 762.0)",,cti_phase,0,17948.468
25,904,target,"[(1116, 867)]",[],[1],[],vertical,"(890.0, 762.0)",,cti_phase,0,17952.369
25,905,target,"[(1125, 859)]",[],[1],[],vertical,"(890.0, 762.0)",,cti_phase,0,17956.375
25,906,target,"[(1109, 859)]",[],[1],[0.55],vertical,"(390.0, 262.0)",0.8166666666666667,0.507,1,17960.069
25,907,target,"[(1104, 886)]",[],[1],[0.55],vertical,"(390.0, 762.0)",0.95,0.505,1,17964.351
25,908,target,"[(1100, 869)]",[],[1],[0.6],vertical,"(890.0, 262.0)",0.65,0.554,1,17968.602
25,909,target,"[(1100, 874)]",[],[1],[0.4],vertical,"(390.0, 262.0)",1.1833333333333333,0.366,1,17972.879
25,910,target,"[(1138, 887)]",[],[1],[0.25],horizontal,"(890.0, 762.0)",1.3166666666666667,0.215,1,17977.285
25,911,target,"[(1103, 906)]",[],[1],[0.11666666666666667],horizontal,"(390.0, 262.0)",0.9,0.084,1,17981.538
25,912,target,"[(1107, 886)]",[],[1],[],vertical,"(890.0, 262.0)",,cti_phase,0,17985.635
25,913,target,"[(1100, 857)]",[],[1],[0.5166666666666666],horizontal,"(390.0, 262.0)",1.25,0.471,1,17990.236
25,914,target,"[(1085, 882)]",[],[1],[0.5166666666666666],horizontal,"(890.0, 762.0)",0.8833333333333333,0.48,1,17994.704
25,915,target,"[(1100, 894)]",[],[1],[0.4666666666666667],horizontal,"(390.0, 262.0)",0.6,0.424,1,17998.919
25,916,target,"[(1102, 902)]",[],[1],[0.5333333333333333],vertical,"(390.0, 262.0)",0.75,0.49,1,18003.173
25,917,target,"[(1104, 892)]",[],[1],[0.5166666666666666],vertical,"(890.0, 762.0)",0.65,0.473,1,18007.401
25,918,target,"[(1105, 876)]",[],[1],[0.5333333333333333],horizontal,"(890.0, 762.0)",0.5166666666666666,0.489,1,18011.868
25,919,target,"[(1100, 884)]",[],[1],[],vertical,"(390.0, 762.0)",,cti_phase,0,18015.759
25,920,target,"[(1122, 868)]",[],[1],[0.5],horizontal,"(390.0, 262.0)",1.1,0.456,1,18020.37
25,921,target,"[(1121, 894)]",[],[1],[0.05],vertical,"(890.0, 762.0)",1.0,0.018,1,18024.986
25,922,target,"[(1100, 867)]",[],[1],[0.5666666666666667],horizontal,"(890.0, 762.0)",0.6833333333333333,0.528,1,18029.248
25,923,target,"[(1109, 898)]",[],[1],[0.23333333333333334],vertical,"(390.0, 762.0)",1.6,0.198,1,18033.368
