block,practice,trial,taps_start_loc_during_fix,taps_end_loc_during_fix,taps_on_lever_during_fix,taps_on_lever_s_during_fix,bar_orientation,target_xy,cti,rt,acc,time
1,True,1,"[(1109, 873)]",[],[1],[0.4],horizontal,"(390.0, 262.0)",0.6666666666666666,0.367,1,0.062
1,True,2,"[(1109, 870)]",[],[1],[0.45],horizontal,"(390.0, 262.0)",1.0333333333333332,0.418,1,4.975
1,True,3,"[(1110, 866)]",[],[1],[0.3333333333333333],horizontal,"(890.0, 262.0)",0.6166666666666667,0.305,1,9.875
1,True,4,"[(1076, 904)]",[],[1],[0.85],vertical,"(390.0, 762.0)",1.3333333333333333,0.814,0,23.008
1,False,1,"[(1146, 856)]",[],[1],[],vertical,"(390.0, 762.0)",,fix_phase,0,109.298
1,False,2,"[(1096, 873)]",[],[1],[],horizontal,"(390.0, 762.0)",,cti_phase,0,160.113
1,False,3,"[(1073, 872)]",[],[1],[0.55],horizontal,"(890.0, 762.0)",1.1,0.519,1,174.733
1,False,4,"[(1054, 887)]",[],[1],[0.8],vertical,"(390.0, 762.0)",0.7166666666666667,0.77,1,179.237
1,False,5,"[(1074, 883)]",[],[1],[0.85],horizontal,"(390.0, 762.0)",1.3,0.827,0,183.577
1,False,6,"[(1047, 876)]",[],[1],[0.85],horizontal,"(890.0, 762.0)",1.1333333333333333,0.829,0,189.188
1,False,7,"[(1095, 894)]",[],[1],[0.85],horizontal,"(890.0, 262.0)",0.9833333333333333,0.831,0,194.504
1,False,8,"[(1018, 797)]",[],[1],[],horizontal,"(890.0, 262.0)",,fix_phase,0,199.847
1,False,9,"[(1071, 908)]",[],[1],[0.85],horizontal,"(890.0, 762.0)",0.9,0.808,0,241.767
1,False,10,"[(1062, 897)]",[],[1],[0.2],horizontal,"(390.0, 262.0)",1.65,0.168,1,284.456
1,False,11,"[(1065, 910)]",[],[1],[0.7166666666666667],vertical,"(390.0, 262.0)",0.5,0.672,1,289.7
1,False,12,"[(1063, 902)]",[],[1],[0.5833333333333334],vertical,"(890.0, 762.0)",1.15,0.544,1,293.775
1,False,13,"[(1072, 884)]",[],[1],[0.5333333333333333],vertical,"(890.0, 262.0)",1.1166666666666667,0.496,1,298.87
1,False,14,"[(1072, 904)]",[],[1],[0.5333333333333333],vertical,"(390.0, 762.0)",0.8166666666666667,0.49,1,303.616
1,False,15,"[(1051, 885)]",[],[1],[0.85],vertical,"(890.0, 262.0)",0.7166666666666667,0.804,0,308.445
1,False,16,"[(1047, 900)]",[],[1],[0.85],vertical,"(390.0, 762.0)",1.2333333333333334,0.805,0,312.845
1,False,17,"[(1014, 885)]",[],[1],[0.5],horizontal,"(890.0, 262.0)",1.15,0.47,1,324.763
1,False,18,"[(1042, 869)]",[],[1],[0.85],vertical,"(390.0, 262.0)",0.5666666666666667,0.8,0,329.474
1,False,19,"[(1084, 877)]",[],[1],[0.5666666666666667],horizontal,"(390.0, 262.0)",0.5833333333333334,0.525,1,333.924
1,False,20,"[(1062, 890)]",[],[1],[0.6166666666666667],horizontal,"(390.0, 262.0)",0.8166666666666667,0.577,1,338.09
1,False,21,"[(1081, 900)]",[],[1],[0.48333333333333334],horizontal,"(890.0, 762.0)",1.6666666666666667,0.44,1,342.832
1,False,22,"[(1077, 894)]",[],[1],[0.6666666666666666],vertical,"(890.0, 762.0)",1.4,0.626,1,348.212
1,False,23,"[(1082, 886)]",[],[1],[0.7333333333333333],horizontal,"(390.0, 262.0)",1.0,0.687,1,352.963
1,False,24,"[(1081, 901)]",[],[1],[0.7333333333333333],horizontal,"(890.0, 762.0)",1.0666666666666667,0.692,1,357.812
1,False,25,"[(1070, 892)]",[],[1],[0.6166666666666667],vertical,"(890.0, 762.0)",0.9333333333333333,0.58,1,362.939
1,False,26,"[(1066, 873)]",[],[1],[0.3833333333333333],vertical,"(390.0, 762.0)",1.5833333333333333,0.343,1,367.678
1,False,27,"[(1071, 882)]",[],[1],[0.5333333333333333],vertical,"(390.0, 762.0)",0.7666666666666666,0.492,1,372.612
1,False,28,"[(1081, 879)]",[],[1],[0.5],vertical,"(890.0, 762.0)",1.35,0.457,1,377.512
1,False,29,"[(1086, 888)]",[],[1],[0.6],horizontal,"(890.0, 262.0)",1.0333333333333332,0.556,1,382.298
1,False,30,"[(1085, 887)]",[],[1],[0.55],vertical,"(890.0, 262.0)",0.9166666666666666,0.511,1,386.595
1,False,31,"[(1081, 873)]",[],[1],[0.7],horizontal,"(390.0, 762.0)",0.8,0.657,1,390.646
1,False,32,"[(1076, 891)]",[],[1],[0.5833333333333334],horizontal,"(390.0, 762.0)",0.5166666666666666,0.545,1,395.047
1,False,33,"[(1076, 890)]",[],[1],[0.05],vertical,"(890.0, 262.0)",1.4333333333333333,0.02,1,399.069
1,False,34,"[(1076, 876)]",[],[1],[0.48333333333333334],horizontal,"(890.0, 262.0)",1.6166666666666667,0.445,1,403.634
1,False,35,"[(1075, 885)]",[],[1],[0.55],vertical,"(890.0, 762.0)",1.5333333333333332,0.512,1,408.848
1,False,36,"[(1076, 871)]",[],[1],[0.23333333333333334],horizontal,"(390.0, 762.0)",1.4666666666666666,0.199,1,413.581
1,False,37,"[(1076, 888)]",[],[1],[0.5333333333333333],vertical,"(390.0, 262.0)",0.7166666666666667,0.495,1,418.526
1,False,38,"[(1076, 875)]",[],[1],[0.5833333333333334],horizontal,"(890.0, 762.0)",1.45,0.54,1,422.884
1,False,39,"[(1075, 891)]",[],[1],[0.6666666666666666],horizontal,"(890.0, 262.0)",1.0833333333333333,0.623,1,427.631
1,False,40,"[(1076, 877)]",[],[1],[0.7166666666666667],horizontal,"(390.0, 762.0)",1.2,0.671,1,432.454
1,False,41,"[(1072, 871)]",[],[1],[0.5833333333333334],horizontal,"(890.0, 762.0)",0.55,0.54,1,437.118
1,False,42,"[(1076, 892)]",[],[1],[0.4166666666666667],horizontal,"(390.0, 762.0)",1.6666666666666667,0.379,1,441.035
1,False,43,"[(1076, 890)]",[],[1],[0.6166666666666667],vertical,"(390.0, 762.0)",0.8666666666666667,0.575,1,446.251
1,False,44,"[(1102, 869)]",[],[1],[0.5666666666666667],horizontal,"(890.0, 762.0)",1.4166666666666667,0.527,1,451.051
1,False,45,"[(1077, 885)]",[],[1],[0.5666666666666667],vertical,"(890.0, 262.0)",0.5333333333333333,0.523,1,456.165
1,False,46,"[(1078, 881)]",[],[1],[0.5833333333333334],horizontal,"(390.0, 762.0)",1.4166666666666667,0.542,1,459.852
1,False,47,"[(1071, 885)]",[],[1],[0.5666666666666667],vertical,"(890.0, 262.0)",1.5166666666666666,0.519,1,464.478
1,False,48,"[(1072, 885)]",[],[1],[0.85],horizontal,"(890.0, 262.0)",1.3,0.806,0,469.539
1,False,49,"[(1075, 876)]",[],[1],[0.65],horizontal,"(890.0, 262.0)",0.5833333333333334,0.604,1,474.702
1,False,50,"[(1072, 885)]",[],[1],[0.4166666666666667],horizontal,"(390.0, 262.0)",1.1833333333333333,0.377,1,479.84
1,False,51,"[(1072, 895)]",[],[1],[],horizontal,"(390.0, 262.0)",,cti_phase,0,484.135
1,False,52,"[(1076, 894)]",[],[1],[0.6],horizontal,"(890.0, 762.0)",1.1833333333333333,0.554,1,488.128
1,False,53,"[(1072, 886)]",[],[1],[0.85],vertical,"(390.0, 762.0)",0.5833333333333334,0.807,0,501.68
1,False,54,"[(1071, 910)]",[],[1],[0.4666666666666667],horizontal,"(890.0, 262.0)",1.25,0.426,1,506.306
1,False,55,"[(1057, 874)]",[],[1],[0.55],horizontal,"(890.0, 262.0)",0.7666666666666666,0.504,1,513.356
1,False,56,"[(1058, 893)]",[],[1],[0.5],horizontal,"(890.0, 762.0)",1.6,0.454,1,517.352
1,False,57,"[(1085, 896)]",[],[1],[0.5],vertical,"(890.0, 262.0)",0.9833333333333333,0.459,1,522.736
1,False,58,"[(1079, 876)]",[],[1],[0.06666666666666667],horizontal,"(390.0, 262.0)",1.5166666666666666,0.036,1,527.163
1,False,59,"[(1086, 903)]",[],[1],[0.5666666666666667],vertical,"(890.0, 262.0)",1.6333333333333333,0.523,1,531.972
1,False,60,"[(1068, 885)]",[],[1],[0.5666666666666667],horizontal,"(390.0, 762.0)",1.1833333333333333,0.521,1,537.055
2,False,61,"[(1070, 878)]",[],[1],[0.5666666666666667],vertical,"(890.0, 262.0)",0.75,0.52,1,542.166
2,False,62,"[(1081, 892)]",[],[1],[0.45],vertical,"(890.0, 262.0)",1.3833333333333333,0.411,1,546.78
2,False,63,"[(1070, 882)]",[],[1],[0.4666666666666667],horizontal,"(390.0, 262.0)",0.7666666666666666,0.427,1,551.523
2,False,64,"[(1072, 895)]",[],[1],[0.3],horizontal,"(390.0, 762.0)",1.6666666666666667,0.263,1,555.997
2,False,65,"[(1058, 898)]",[],[1],[0.6166666666666667],horizontal,"(890.0, 762.0)",1.25,0.575,1,560.74
2,False,66,"[(1067, 884)]",[],[1],[0.5166666666666666],horizontal,"(890.0, 262.0)",1.1833333333333333,0.478,1,566.304
2,False,67,"[(1057, 902)]",[],[1],[0.2833333333333333],horizontal,"(390.0, 262.0)",1.55,0.254,1,570.746
2,False,68,"[(1076, 881)]",[],[1],[0.5833333333333334],horizontal,"(890.0, 762.0)",0.55,0.541,1,575.504
2,False,69,"[(1062, 881)]",[],[1],[0.5166666666666666],vertical,"(890.0, 262.0)",0.6833333333333333,0.482,1,580.096
2,False,70,"[(1060, 882)]",[],[1],[0.6166666666666667],horizontal,"(390.0, 762.0)",0.8,0.575,1,584.351
2,False,71,"[(1080, 885)]",[],[1],[0.55],horizontal,"(390.0, 762.0)",1.0166666666666666,0.511,1,588.751
2,False,72,"[(1070, 873)]",[],[1],[0.5166666666666666],vertical,"(390.0, 262.0)",1.5333333333333332,0.475,1,593.234
2,False,73,"[(1085, 885)]",[],[1],[0.3833333333333333],horizontal,"(390.0, 262.0)",1.0833333333333333,0.346,1,597.961
2,False,74,"[(1070, 873)]",[],[1],[0.6333333333333333],horizontal,"(390.0, 262.0)",0.8833333333333333,0.59,1,602.099
2,False,75,"[(1063, 881)]",[],[1],[0.21666666666666667],vertical,"(890.0, 762.0)",0.5666666666666667,0.184,1,609.564
2,False,76,"[(1086, 911)]",[],[1],[0.6166666666666667],horizontal,"(890.0, 262.0)",1.3166666666666667,0.577,1,614.222
2,False,77,"[(1057, 916)]",[],[1],[0.6],horizontal,"(390.0, 762.0)",1.3333333333333333,0.563,1,855.353
2,False,78,"[(1023, 908)]",[],[1],[0.55],vertical,"(890.0, 262.0)",0.8166666666666667,0.511,1,859.969
2,False,79,"[(1035, 898)]",[],[1],[0.5],horizontal,"(390.0, 262.0)",1.1,0.463,1,864.784
2,False,80,"[(1066, 910)]",[],[1],[0.5333333333333333],vertical,"(390.0, 262.0)",1.1666666666666667,0.495,1,870.592
2,False,81,"[(1036, 901)]",[],[1],[0.3333333333333333],vertical,"(890.0, 262.0)",1.6166666666666667,0.296,1,875.032
2,False,82,"[(1070, 899)]",[],[1],[0.23333333333333334],vertical,"(390.0, 262.0)",1.55,0.197,1,893.983
2,False,83,"[(1069, 882)]",[],[1],[0.5166666666666666],horizontal,"(390.0, 262.0)",1.1833333333333333,0.478,1,898.849
2,False,84,"[(1042, 911)]",[],[1],[0.6],horizontal,"(890.0, 262.0)",1.0,0.559,1,903.347
2,False,85,"[(1090, 890)]",[],[1],[0.6],vertical,"(390.0, 762.0)",1.1,0.562,1,907.815
2,False,86,"[(1097, 898)]",[],[1],[0.6],horizontal,"(890.0, 762.0)",1.2833333333333332,0.557,1,912.482
2,False,87,"[(1072, 915)]",[],[1],[0.65],vertical,"(890.0, 762.0)",0.6333333333333333,0.603,1,917.085
2,False,88,"[(1076, 877)]",[],[1],"[0.85, 0.85]",horizontal,"(390.0, 262.0)",0.7,"0.802,0.802",0,921.198
2,False,89,"[(1089, 903)]",[],[1],[0.6833333333333333],horizontal,"(390.0, 762.0)",0.6833333333333333,0.641,1,925.744
2,False,90,"[(1086, 911)]",[],[1],[0.6333333333333333],vertical,"(890.0, 262.0)",0.5,0.589,1,930.264
2,False,91,"[(1071, 878)]",[],[1],[0.5333333333333333],vertical,"(890.0, 762.0)",0.9833333333333333,0.491,1,934.579
2,False,92,"[(1065, 868)]",[],[1],[0.5166666666666666],vertical,"(890.0, 262.0)",1.45,0.476,1,939.552
2,False,93,"[(1079, 899)]",[],[1],[0.48333333333333334],horizontal,"(390.0, 262.0)",1.5666666666666667,0.443,1,946.481
2,False,94,"[(1074, 895)]",[],[1],[0.6166666666666667],horizontal,"(890.0, 762.0)",0.95,0.569,1,951.89
2,False,95,"[(1053, 890)]",[],[1],[0.7166666666666667],horizontal,"(390.0, 762.0)",0.85,0.668,1,956.247
2,False,96,"[(1061, 876)]",[],[1],[0.6666666666666666],vertical,"(390.0, 262.0)",0.9166666666666666,0.618,1,960.696
2,False,97,"[(1062, 894)]",[],[1],[0.5333333333333333],vertical,"(890.0, 262.0)",0.5833333333333334,0.494,1,965.223
2,False,98,"[(1067, 894)]",[],[1],[0.85],horizontal,"(390.0, 762.0)",1.4666666666666666,0.799,0,969.369
2,False,99,"[(1062, 874)]",[],[1],[0.2833333333333333],horizontal,"(890.0, 262.0)",1.6166666666666667,0.252,1,974.453
2,False,100,"[(1066, 896)]",[],[1],[0.5333333333333333],horizontal,"(890.0, 262.0)",0.75,0.491,1,980.931
2,False,101,"[(1101, 883)]",[],[1],[0.5333333333333333],vertical,"(390.0, 762.0)",1.1333333333333333,0.491,1,984.945
2,False,102,"[(1043, 909)]",[],[1],[0.5833333333333334],vertical,"(890.0, 262.0)",0.6166666666666667,0.535,1,989.903
2,False,103,"[(1067, 887)]",[],[1],[0.6166666666666667],horizontal,"(890.0, 262.0)",0.5166666666666666,0.577,1,994.231
2,False,104,"[(1072, 908)]",[],[1],[0.55],vertical,"(890.0, 262.0)",1.2333333333333334,0.507,1,998.468
2,False,105,"[(1077, 878)]",[],[1],[0.6166666666666667],vertical,"(390.0, 762.0)",0.85,0.577,1,1003.302
2,False,106,"[(1062, 893)]",[],[1],[0.5333333333333333],vertical,"(390.0, 262.0)",0.6333333333333333,0.492,1,1007.984
2,False,107,"[(1067, 876)]",[],[1],[0.55],vertical,"(890.0, 262.0)",0.6,0.507,1,1012.2
2,False,108,"[(1066, 889)]",[],[1],[0.6166666666666667],vertical,"(390.0, 762.0)",1.4166666666666667,0.569,1,1016.88
2,False,109,"[(1072, 896)]",[],[1],[0.6],vertical,"(890.0, 262.0)",0.95,0.556,1,1021.619
2,False,110,"[(1067, 901)]",[],[1],[0.6166666666666667],vertical,"(890.0, 762.0)",1.6166666666666667,0.572,1,1025.832
2,False,111,"[(1070, 894)]",[],[1],[0.6833333333333333],horizontal,"(390.0, 762.0)",0.8166666666666667,0.641,1,1031.487
2,False,112,"[(1067, 896)]",[],[1],[0.5666666666666667],vertical,"(890.0, 262.0)",1.4,0.525,1,1035.769
2,False,113,"[(1067, 867)]",[],[1],[0.7166666666666667],horizontal,"(890.0, 762.0)",0.5833333333333334,0.669,1,1040.833
2,False,114,"[(1042, 881)]",[],[1],[0.7666666666666666],horizontal,"(390.0, 262.0)",0.8333333333333334,0.724,1,1045.488
2,False,115,"[(1093, 892)]",[],[1],[0.6166666666666667],horizontal,"(890.0, 262.0)",1.2333333333333334,0.587,1,1050.291
2,False,116,"[(1083, 890)]",[],[1],[0.5666666666666667],horizontal,"(390.0, 762.0)",1.5333333333333332,0.523,1,1055.295
2,False,117,"[(1085, 897)]",[],[1],[0.5666666666666667],vertical,"(390.0, 262.0)",1.1333333333333333,0.526,1,1060.431
2,False,118,"[(1067, 869)]",[],[1],[],vertical,"(390.0, 762.0)",,cti_phase,0,1064.909
2,False,119,"[(1067, 893)]",[],[1],[0.5833333333333334],vertical,"(390.0, 762.0)",0.5166666666666666,0.55,1,1068.967
2,False,120,"[(1054, 890)]",[],[1],[0.55],horizontal,"(390.0, 262.0)",1.0833333333333333,0.508,1,1075.118
3,False,121,"[(1061, 888)]",[],[1],[0.5833333333333334],vertical,"(890.0, 762.0)",1.45,0.546,1,1079.879
3,False,122,"[(1076, 911)]",[],[1],[0.5166666666666666],horizontal,"(390.0, 262.0)",0.5666666666666667,0.476,1,1085.114
3,False,123,"[(1096, 897)]",[],[1],[0.5166666666666666],horizontal,"(890.0, 262.0)",1.65,0.478,1,1089.351
3,False,124,"[(1018, 896)]",[],[1],[0.5833333333333334],horizontal,"(890.0, 262.0)",0.7,0.54,1,1094.887
3,False,125,"[(1075, 879)]",[],[1],[0.5666666666666667],vertical,"(890.0, 262.0)",1.1166666666666667,0.526,1,1099.002
3,False,126,"[(1081, 890)]",[],[1],[0.55],vertical,"(390.0, 762.0)",0.85,0.511,1,1103.853
3,False,127,"[(1066, 894)]",[],[1],[0.5833333333333334],vertical,"(390.0, 262.0)",0.9166666666666666,0.541,1,1108.094
3,False,128,"[(1072, 905)]",[],[1],[0.6833333333333333],vertical,"(890.0, 762.0)",1.3666666666666667,0.636,1,1112.928
3,False,129,"[(1067, 906)]",[],[1],[0.5666666666666667],vertical,"(890.0, 262.0)",0.6166666666666667,0.525,1,1117.879
3,False,130,"[(1081, 886)]",[],[1],[0.5666666666666667],vertical,"(890.0, 262.0)",0.5166666666666666,0.535,1,1122.035
3,False,131,"[(1069, 876)]",[],[1],[0.5333333333333333],vertical,"(390.0, 762.0)",0.85,0.502,1,1126.165
3,False,132,"[(1064, 894)]",[],[1],[0.6666666666666666],horizontal,"(390.0, 762.0)",0.5666666666666667,0.622,1,1130.948
3,False,133,"[(1062, 886)]",[],[1],[0.6],horizontal,"(890.0, 762.0)",0.6833333333333333,0.552,1,1135.297
3,False,134,"[(1068, 892)]",[],[1],[0.6],vertical,"(890.0, 262.0)",0.7166666666666667,0.558,1,1139.911
3,False,135,"[(1054, 879)]",[],[1],[0.7333333333333333],horizontal,"(390.0, 262.0)",0.7666666666666666,0.687,1,1144.288
3,False,136,"[(1053, 862)]",[],[1],[0.48333333333333334],vertical,"(390.0, 262.0)",1.4666666666666666,0.441,1,1148.803
3,False,137,"[(1078, 889)]",[],[1],[0.5666666666666667],horizontal,"(890.0, 762.0)",0.75,0.529,1,1153.399
3,False,138,"[(1075, 884)]",[],[1],[0.55],vertical,"(390.0, 762.0)",1.45,0.508,1,1157.427
3,False,139,"[(1086, 887)]",[],[1],[0.5666666666666667],horizontal,"(890.0, 762.0)",0.55,0.532,1,1162.53
3,False,140,"[(1067, 893)]",[],[1],[0.7666666666666666],vertical,"(890.0, 262.0)",1.15,0.722,1,1166.365
3,False,141,"[(1049, 907)]",[],[1],[0.55],vertical,"(390.0, 762.0)",0.5833333333333334,0.511,1,1171.308
3,False,142,"[(1042, 867)]",[],[1],[0.6166666666666667],horizontal,"(890.0, 762.0)",0.8,0.575,1,1175.79
3,False,143,"[(1065, 886)]",[],[1],[0.48333333333333334],horizontal,"(390.0, 262.0)",1.5833333333333333,0.444,1,1180.328
3,False,144,"[(1045, 909)]",[],[1],[0.6],horizontal,"(390.0, 762.0)",0.5,0.565,1,1185.714
3,False,145,"[(1041, 905)]",[],[1],[0.55],vertical,"(890.0, 262.0)",1.4833333333333334,0.507,1,1190.248
3,False,146,"[(1094, 897)]",[],[1],[0.5666666666666667],horizontal,"(890.0, 762.0)",0.8,0.526,1,1195.087
3,False,147,"[(1038, 896)]",[],[1],[0.7],horizontal,"(890.0, 262.0)",1.3166666666666667,0.659,1,1199.457
3,False,148,"[(1067, 909)]",[],[1],[0.6166666666666667],horizontal,"(890.0, 762.0)",0.9,0.579,1,1212.129
3,False,149,"[(1081, 880)]",[],[1],[0.5833333333333334],vertical,"(890.0, 762.0)",0.5,0.542,1,1216.852
3,False,150,"[(1053, 894)]",[],[1],[0.5],horizontal,"(890.0, 262.0)",1.65,0.466,1,1220.604
3,False,151,"[(1076, 896)]",[],[1],[0.45],vertical,"(390.0, 262.0)",1.3166666666666667,0.409,1,1238.485
3,False,152,"[(1089, 896)]",[],[1],[0.5666666666666667],vertical,"(890.0, 762.0)",0.8,0.528,1,1243.585
3,False,153,"[(1076, 890)]",[],[1],[0.6],horizontal,"(390.0, 762.0)",1.0333333333333332,0.558,1,1247.902
3,False,154,"[(1057, 890)]",[],[1],[0.23333333333333334],horizontal,"(390.0, 262.0)",1.65,0.204,1,1252.467
3,False,155,"[(1081, 902)]",[],[1],[0.6],horizontal,"(890.0, 762.0)",1.4833333333333334,0.563,1,1257.05
3,False,156,"[(1102, 906)]",[],[1],[0.6333333333333333],vertical,"(390.0, 762.0)",1.3333333333333333,0.591,1,1262.468
3,False,157,"[(1069, 898)]",[],[1],[0.5166666666666666],vertical,"(890.0, 762.0)",1.25,0.48,1,1267.537
3,False,158,"[(1065, 876)]",[],[1],[0.6],horizontal,"(390.0, 762.0)",1.1833333333333333,0.557,1,1272.081
3,False,159,"[(1038, 878)]",[],[1],"[0.85, 0.85]",vertical,"(890.0, 262.0)",0.5666666666666667,"0.804,0.804",0,1276.659
3,False,160,"[(1068, 906)]",[],[1],[0.6166666666666667],horizontal,"(890.0, 762.0)",1.5333333333333332,0.574,1,1280.938
3,False,161,"[(1067, 899)]",[],[1],[0.5666666666666667],vertical,"(890.0, 762.0)",1.3833333333333333,0.523,1,1301.802
3,False,162,"[(1076, 908)]",[],[1],[0.6666666666666666],horizontal,"(890.0, 762.0)",1.3333333333333333,0.625,1,1306.915
3,False,163,"[(1039, 894)]",[],[1],[0.7166666666666667],vertical,"(390.0, 262.0)",0.6166666666666667,0.669,1,1312.296
3,False,164,"[(1053, 910)]",[],[1],[0.6333333333333333],horizontal,"(390.0, 762.0)",0.5666666666666667,0.594,1,1316.518
3,False,165,"[(1043, 901)]",[],[1],[0.55],horizontal,"(390.0, 262.0)",0.75,0.502,1,1320.843
3,False,166,"[(1105, 892)]",[],[1],[0.5666666666666667],vertical,"(890.0, 262.0)",1.4166666666666667,0.527,1,1325.549
3,False,167,"[(1073, 889)]",[],[1],[0.6833333333333333],horizontal,"(390.0, 262.0)",0.6,0.634,1,1330.762
3,False,168,"[(1073, 897)]",[],[1],[0.6],vertical,"(890.0, 762.0)",0.75,0.554,1,1334.776
3,False,169,"[(1073, 899)]",[],[1],[0.5833333333333334],horizontal,"(890.0, 762.0)",0.5666666666666667,0.537,1,1339.338
3,False,170,"[(1077, 895)]",[],[1],[0.6833333333333333],horizontal,"(890.0, 262.0)",0.5166666666666666,0.638,1,1343.73
3,False,171,"[(1079, 888)]",[],[1],[0.5666666666666667],horizontal,"(890.0, 262.0)",0.8833333333333333,0.523,1,1348.343
3,False,172,"[(1081, 898)]",[],[1],[0.31666666666666665],vertical,"(390.0, 762.0)",1.3166666666666667,0.282,1,1352.842
3,False,173,"[(1063, 883)]",[],[1],[0.5666666666666667],horizontal,"(390.0, 762.0)",1.1666666666666667,0.52,1,1357.878
3,False,174,"[(1079, 880)]",[],[1],[0.5666666666666667],vertical,"(890.0, 762.0)",0.85,0.525,1,1362.739
3,False,175,"[(1076, 882)]",[],[1],[0.5833333333333334],horizontal,"(890.0, 262.0)",1.0,0.541,1,1366.897
3,False,176,"[(1072, 890)]",[],[1],[0.5333333333333333],horizontal,"(390.0, 262.0)",0.6333333333333333,0.492,1,1371.748
3,False,177,"[(1083, 902)]",[],[1],[0.6],horizontal,"(390.0, 762.0)",1.0,0.553,1,1377.266
3,False,178,"[(1064, 910)]",[],[1],[0.6],vertical,"(390.0, 262.0)",0.65,0.562,1,1381.587
3,False,179,"[(1067, 865)]",[],[1],[0.6166666666666667],vertical,"(390.0, 262.0)",1.2666666666666666,0.567,1,1385.875
3,False,180,"[(1072, 889)]",[],[1],[0.6833333333333333],horizontal,"(890.0, 262.0)",1.65,0.641,1,1390.374
4,False,181,"[(1047, 895)]",[],[1],[0.6],horizontal,"(890.0, 762.0)",0.5666666666666667,0.551,1,1395.567
4,False,182,"[(1067, 897)]",[],[1],[0.6],horizontal,"(890.0, 262.0)",0.5666666666666667,0.562,1,1399.779
4,False,183,"[(1014, 911)]",[],[1],[0.5833333333333334],vertical,"(890.0, 762.0)",0.5,0.545,1,1404.233
4,False,184,"[(1063, 897)]",[],[1],[0.55],horizontal,"(890.0, 262.0)",0.6666666666666666,0.509,1,1409.063
4,False,185,"[(1079, 868)]",[],[1],[0.6166666666666667],horizontal,"(890.0, 262.0)",0.8,0.575,1,1413.28
4,False,186,"[(1076, 889)]",[],[1],[0.6333333333333333],horizontal,"(890.0, 762.0)",1.25,0.589,1,1417.98
4,False,187,"[(1043, 907)]",[],[1],[0.6],vertical,"(390.0, 762.0)",1.3833333333333333,0.556,1,1422.832
4,False,188,"[(353, 545), (1070, 886)]",[],"[0, 1]",[0.5666666666666667],horizontal,"(890.0, 762.0)",1.0833333333333333,0.525,1,1428.251
4,False,189,"[(1068, 912)]",[],[1],[0.65],vertical,"(890.0, 762.0)",0.6166666666666667,0.613,1,1449.048
4,False,190,"[(1081, 907)]",[],[1],[0.55],vertical,"(890.0, 762.0)",1.0166666666666666,0.505,1,1453.669
4,False,191,"[(1085, 893)]",[],[1],[0.05],horizontal,"(390.0, 262.0)",1.4,0.019,1,1458.535
4,False,192,"[(1076, 912)]",[],[1],[0.5166666666666666],horizontal,"(390.0, 262.0)",0.6833333333333333,0.473,1,1463.182
4,False,193,"[(1042, 906)]",[],[1],[0.5666666666666667],horizontal,"(390.0, 262.0)",0.8666666666666667,0.526,1,1467.203
4,False,194,"[(1078, 898)]",[],[1],[0.55],vertical,"(890.0, 262.0)",1.6833333333333333,0.506,1,1471.897
4,False,195,"[(1038, 894)]",[],[1],[0.6],vertical,"(390.0, 762.0)",1.1,0.557,1,1477.221
4,False,196,"[(1079, 889)]",[],[1],[0.5333333333333333],vertical,"(390.0, 262.0)",1.5,0.493,1,1482.087
4,False,197,"[(1069, 888)]",[],[1],[0.6833333333333333],vertical,"(890.0, 762.0)",1.2333333333333334,0.642,1,1487.18
4,False,198,"[(1058, 866)]",[],[1],[0.55],horizontal,"(890.0, 262.0)",1.1666666666666667,0.509,1,1492.315
4,False,199,"[(1009, 914)]",[],[1],[0.15],vertical,"(390.0, 262.0)",1.5666666666666667,0.118,1,1502.986
4,False,200,"[(1038, 888)]",[],[1],[0.5],horizontal,"(890.0, 262.0)",1.5666666666666667,0.463,1,1507.511
4,False,201,"[(1067, 906)]",[],[1],[0.85],horizontal,"(390.0, 762.0)",0.8666666666666667,0.806,0,1520.994
4,False,202,"[(1064, 907)]",[],[1],[0.7],vertical,"(890.0, 762.0)",1.5833333333333333,0.659,1,1525.636
4,False,203,"[(1076, 893)]",[],[1],[0.5833333333333334],vertical,"(390.0, 762.0)",0.9833333333333333,0.552,1,1530.79
4,False,204,"[(1062, 894)]",[],[1],[0.5833333333333334],horizontal,"(890.0, 262.0)",0.7833333333333333,0.543,1,1535.427
4,False,205,"[(1067, 879)]",[],[1],[0.6],horizontal,"(390.0, 762.0)",1.15,0.561,1,1539.47
4,False,206,"[(1038, 879)]",[],[1],[0.5],horizontal,"(390.0, 262.0)",1.5666666666666667,0.465,1,1543.946
4,False,207,"[(1081, 891)]",[],[1],[0.5333333333333333],vertical,"(390.0, 262.0)",0.5833333333333334,0.495,1,1549.127
4,False,208,"[(1076, 896)]",[],[1],[0.55],vertical,"(390.0, 762.0)",1.3833333333333333,0.516,1,1552.952
4,False,209,"[(1067, 905)]",[],[1],[0.6],vertical,"(390.0, 262.0)",0.7333333333333333,0.558,1,1558.081
4,False,210,"[(1069, 885)]",[],[1],[0.5666666666666667],vertical,"(390.0, 762.0)",1.0166666666666666,0.524,1,1562.485
4,False,211,"[(1067, 900)]",[],[1],[0.5666666666666667],horizontal,"(390.0, 262.0)",1.0833333333333333,0.533,1,1567.068
4,False,212,"[(1067, 890)]",[],[1],[0.7],vertical,"(890.0, 762.0)",1.45,0.658,1,1571.917
4,False,213,"[(1057, 911)]",[],[1],[0.55],horizontal,"(390.0, 762.0)",1.5666666666666667,0.503,1,1577.253
4,False,214,"[(1058, 893)]",[],[1],[0.6666666666666666],vertical,"(390.0, 762.0)",0.85,0.624,1,1583.769
4,False,215,"[(1058, 872)]",[],[1],[0.5833333333333334],vertical,"(390.0, 262.0)",0.7166666666666667,0.548,1,1588.805
4,False,216,"[(1071, 894)]",[],[1],[0.7833333333333333],horizontal,"(390.0, 262.0)",0.5333333333333333,0.739,1,1596.687
4,False,217,"[(1062, 884)]",[],[1],[0.6],horizontal,"(890.0, 762.0)",1.55,0.557,1,1600.852
4,False,218,"[(1064, 894)]",[],[1],[0.5],horizontal,"(890.0, 262.0)",1.1333333333333333,0.458,1,1605.73
4,False,219,"[(1081, 886)]",[],[1],[0.5166666666666666],vertical,"(890.0, 762.0)",1.1833333333333333,0.484,1,2671.531
4,False,220,"[(1072, 898)]",[],[1],[0.55],horizontal,"(890.0, 762.0)",1.6,0.507,1,2676.053
4,False,221,"[(1055, 890)]",[],[1],[0.55],vertical,"(390.0, 762.0)",0.95,0.506,1,2680.938
4,False,222,"[(1039, 910)]",[],[1],[0.6],vertical,"(390.0, 262.0)",0.8166666666666667,0.555,1,2685.635
4,False,223,"[(1074, 899)]",[],[1],[0.2],vertical,"(390.0, 262.0)",1.15,0.169,1,2690.455
4,False,224,"[(1042, 909)]",[],[1],[0.48333333333333334],vertical,"(390.0, 762.0)",1.5333333333333332,0.439,1,2695.025
4,False,225,"[(1046, 905)]",[],[1],[0.6666666666666666],vertical,"(390.0, 262.0)",1.5,0.625,1,2700.356
4,False,226,"[(1073, 890)]",[],[1],[0.6],vertical,"(390.0, 762.0)",1.55,0.558,1,2705.27
4,False,227,"[(1235, 704), (1243, 641), (1067, 849)]",[],"[0, 0, 1]",[0.5333333333333333],horizontal,"(890.0, 262.0)",0.95,0.492,1,2710.004
4,False,228,"[(1056, 881)]",[],[1],[0.5833333333333334],vertical,"(390.0, 262.0)",0.6333333333333333,0.542,1,4257.274
4,False,229,"[(1055, 878)]",[],[1],[0.5666666666666667],horizontal,"(890.0, 262.0)",0.9833333333333333,0.525,1,4261.735
4,False,230,"[(1051, 890)]",[],[1],[0.5666666666666667],vertical,"(390.0, 262.0)",0.7,0.527,1,4265.956
4,False,231,"[(1049, 909)]",[],[1],[0.6666666666666666],horizontal,"(890.0, 762.0)",1.0166666666666666,0.615,1,4270.297
4,False,232,"[(1072, 914)]",[],[1],[0.85],horizontal,"(890.0, 762.0)",1.6666666666666667,0.802,0,4275.95
4,False,233,"[(1067, 895)]",[],[1],[0.05],horizontal,"(890.0, 262.0)",1.3833333333333333,0.02,1,4281.527
4,False,234,"[(1067, 899)]",[],[1],[0.55],vertical,"(890.0, 762.0)",1.2333333333333334,0.511,1,4291.415
4,False,235,"[(1069, 905)]",[],[1],[0.55],horizontal,"(390.0, 262.0)",0.8833333333333333,0.51,1,4297.04
4,False,236,"[(1067, 907)]",[],[1],[0.6333333333333333],horizontal,"(890.0, 762.0)",0.5166666666666666,0.593,1,4301.485
4,False,237,"[(1032, 911)]",[],[1],[0.8333333333333334],vertical,"(890.0, 262.0)",0.7166666666666667,0.787,1,4305.458
4,False,238,"[(1062, 910)]",[],[1],[0.5],vertical,"(890.0, 262.0)",1.2166666666666666,0.454,1,4310.339
4,False,239,"[(1081, 890)]",[],[1],[0.5666666666666667],vertical,"(390.0, 262.0)",0.5166666666666666,0.525,1,4317.672
4,False,240,"[(1072, 867)]",[],[1],[0.3833333333333333],horizontal,"(390.0, 262.0)",0.9333333333333333,0.344,1,4321.776
5,False,241,"[(1060, 895)]",[],[1],[0.6166666666666667],vertical,"(390.0, 262.0)",0.9833333333333333,0.576,1,4326.122
5,False,242,"[(1081, 910)]",[],[1],[0.55],vertical,"(390.0, 762.0)",1.35,0.508,1,4330.581
5,False,243,"[(1067, 882)]",[],[1],[0.6333333333333333],horizontal,"(390.0, 762.0)",1.15,0.591,1,4335.671
5,False,244,"[(1081, 894)]",[],[1],[0.7],vertical,"(890.0, 262.0)",0.6833333333333333,0.654,1,4340.74
5,False,245,"[(1085, 894)]",[],[1],[0.6333333333333333],vertical,"(390.0, 262.0)",1.1833333333333333,0.591,1,4345.286
5,False,246,"[(1074, 898)]",[],[1],[0.6166666666666667],horizontal,"(890.0, 762.0)",1.1166666666666667,0.574,1,4349.818
5,False,247,"[(1111, 901)]",[],[1],[0.7],vertical,"(890.0, 762.0)",0.65,0.657,1,4355.033
5,False,248,"[(1067, 898)]",[],[1],[0.2],vertical,"(390.0, 762.0)",1.1,0.163,1,4359.847
5,False,249,"[(1067, 894)]",[],[1],[0.55],vertical,"(390.0, 762.0)",1.1333333333333333,0.508,1,4364.106
5,False,250,"[(1069, 887)]",[],[1],[0.55],horizontal,"(390.0, 762.0)",1.3,0.516,1,4368.721
5,False,251,"[(1067, 893)]",[],[1],[0.6333333333333333],vertical,"(390.0, 762.0)",0.7,0.591,1,4373.484
5,False,252,"[(1070, 876)]",[],[1],[0.5666666666666667],vertical,"(890.0, 262.0)",0.9166666666666666,0.526,1,4378.269
5,False,253,"[(1067, 874)]",[],[1],[0.65],horizontal,"(890.0, 762.0)",1.1,0.609,1,4382.94
5,False,254,"[(1068, 883)]",[],[1],[0.4166666666666667],vertical,"(390.0, 262.0)",1.2333333333333334,0.377,1,4387.884
5,False,255,"[(1058, 893)]",[],[1],[0.6],vertical,"(890.0, 762.0)",1.4166666666666667,0.558,1,4392.934
5,False,256,"[(1072, 896)]",[],[1],[0.6333333333333333],horizontal,"(890.0, 762.0)",1.3666666666666667,0.59,1,4397.677
5,False,257,"[(1066, 902)]",[],[1],[0.55],horizontal,"(390.0, 762.0)",0.6,0.505,1,4402.812
5,False,258,"[(1053, 875)]",[],[1],[0.48333333333333334],horizontal,"(390.0, 262.0)",0.7166666666666667,0.44,1,4407.237
5,False,259,"[(1081, 906)]",[],[1],[],vertical,"(390.0, 262.0)",,cti_phase,0,4411.55
5,False,260,"[(1067, 877)]",[],[1],[],horizontal,"(390.0, 262.0)",,cti_phase,0,4415.805
5,False,261,"[(1067, 876)]",[],[1],[0.5333333333333333],horizontal,"(890.0, 262.0)",1.05,0.49,1,4421.768
5,False,262,"[(1076, 881)]",[],[1],[0.5666666666666667],horizontal,"(890.0, 262.0)",0.9833333333333333,0.53,1,4426.388
5,False,263,"[(1079, 899)]",[],[1],[0.5166666666666666],horizontal,"(390.0, 762.0)",0.75,0.476,1,4430.906
5,False,264,"[(1032, 901)]",[],[1],[0.5833333333333334],vertical,"(890.0, 762.0)",1.3333333333333333,0.545,1,4435.582
5,False,265,"[(1052, 888)]",[],[1],[0.6333333333333333],horizontal,"(390.0, 762.0)",0.9,0.589,1,4440.279
5,False,266,"[(1072, 886)]",[],[1],[0.6166666666666667],vertical,"(890.0, 262.0)",1.4,0.578,1,4444.686
5,False,267,"[(1071, 894)]",[],[1],[0.5666666666666667],horizontal,"(390.0, 262.0)",1.2833333333333332,0.525,1,4450.135
5,False,268,"[(1081, 875)]",[],[1],[0.5833333333333334],vertical,"(390.0, 762.0)",0.85,0.545,1,4455.439
5,False,269,"[(1066, 887)]",[],[1],[0.5333333333333333],horizontal,"(390.0, 262.0)",1.1833333333333333,0.492,1,4459.955
5,False,270,"[(1067, 872)]",[],[1],[0.5666666666666667],vertical,"(890.0, 262.0)",1.1666666666666667,0.527,1,4464.471
5,False,271,"[(1081, 869)]",[],[1],[0.6333333333333333],horizontal,"(390.0, 262.0)",0.5166666666666666,0.592,1,4469.453
5,False,272,"[(1070, 883)]",[],[1],[0.5166666666666666],horizontal,"(390.0, 262.0)",1.0,0.481,1,4473.387
5,False,273,"[(1054, 900)]",[],[1],[0.5666666666666667],horizontal,"(390.0, 762.0)",1.3,0.528,1,4477.933
5,False,274,"[(1067, 872)]",[],[1],[0.6666666666666666],vertical,"(890.0, 762.0)",1.15,0.62,1,4483.166
5,False,275,"[(1079, 892)]",[],[1],[0.5166666666666666],horizontal,"(890.0, 262.0)",0.7333333333333333,0.473,1,4488.407
5,False,276,"[(1070, 893)]",[],[1],[0.6333333333333333],vertical,"(890.0, 762.0)",0.75,0.593,1,4492.514
5,False,277,"[(1079, 893)]",[],[1],[0.5833333333333334],horizontal,"(890.0, 262.0)",1.2833333333333332,0.54,1,4496.817
5,False,278,"[(1081, 902)]",[],[1],[0.5666666666666667],horizontal,"(890.0, 762.0)",0.5833333333333334,0.527,1,4501.842
5,False,279,"[(1062, 878)]",[],[1],[0.55],vertical,"(890.0, 762.0)",1.35,0.508,1,4527.617
5,False,280,"[(1049, 876)]",[],[1],[0.65],vertical,"(390.0, 262.0)",1.0333333333333332,0.608,1,4532.415
5,False,281,"[(1077, 880)]",[],[1],[0.5833333333333334],vertical,"(890.0, 762.0)",1.2333333333333334,0.541,1,4537.271
5,False,282,"[(1052, 902)]",[],[1],[0.55],vertical,"(890.0, 262.0)",0.85,0.504,1,4542.261
5,False,283,"[(1079, 890)]",[],[1],[0.6],vertical,"(390.0, 762.0)",1.5833333333333333,0.558,1,4547.03
5,False,284,"[(1046, 888)]",[],[1],[0.65],horizontal,"(390.0, 762.0)",1.6666666666666667,0.603,1,4552.395
5,False,285,"[(1039, 900)]",[],[1],[0.6166666666666667],horizontal,"(890.0, 262.0)",1.3833333333333333,0.568,1,4557.745
5,False,286,"[(1052, 890)]",[],[1],[0.85],horizontal,"(390.0, 262.0)",1.1833333333333333,0.803,0,4562.902
5,False,287,"[(1070, 880)]",[],[1],[0.65],vertical,"(390.0, 262.0)",1.6833333333333333,0.601,1,4567.744
5,False,288,"[(1067, 864)]",[],[1],[0.5666666666666667],horizontal,"(890.0, 762.0)",1.2833333333333332,0.523,1,4572.966
5,False,289,"[(1086, 911)]",[],[1],[0.55],vertical,"(390.0, 762.0)",0.6833333333333333,0.511,1,4577.811
5,False,290,"[(1057, 912)]",[],[1],[0.7],horizontal,"(890.0, 762.0)",1.0166666666666666,0.656,1,4656.673
5,False,291,"[(1047, 908)]",[],[1],[0.48333333333333334],vertical,"(390.0, 262.0)",1.2833333333333332,0.441,1,4661.673
5,False,292,"[(1072, 910)]",[],[1],[0.5333333333333333],horizontal,"(390.0, 262.0)",1.2333333333333334,0.493,1,4666.48
5,False,293,"[(1076, 897)]",[],[1],[0.55],horizontal,"(390.0, 262.0)",1.6333333333333333,0.505,1,4670.94
5,False,294,"[(1072, 898)]",[],[1],[0.65],horizontal,"(890.0, 762.0)",0.9,0.61,1,4676.059
5,False,295,"[(1035, 905)]",[],[1],[0.7333333333333333],vertical,"(890.0, 762.0)",1.4166666666666667,0.69,1,4680.969
5,False,296,"[(1081, 895)]",[],[1],[0.5166666666666666],vertical,"(890.0, 762.0)",1.5666666666666667,0.473,1,4686.017
5,False,297,"[(1075, 887)]",[],[1],[0.65],vertical,"(390.0, 762.0)",1.5,0.604,1,4690.837
5,False,298,"[(1044, 899)]",[],[1],[0.5333333333333333],vertical,"(390.0, 262.0)",1.3666666666666667,0.488,1,4696.006
5,False,299,"[(1072, 862)]",[],[1],[0.5333333333333333],vertical,"(390.0, 262.0)",0.7833333333333333,0.494,1,4700.637
5,False,300,"[(1076, 904)]",[],[1],[0.43333333333333335],vertical,"(890.0, 262.0)",1.4666666666666666,0.394,1,4704.77
6,False,301,"[(1073, 893)]",[],[1],[0.55],vertical,"(890.0, 762.0)",1.3666666666666667,0.509,1,4710.019
6,False,302,"[(1078, 910)]",[],[1],[0.5166666666666666],horizontal,"(890.0, 262.0)",1.1833333333333333,0.478,1,4715.251
6,False,303,"[(1065, 909)]",[],[1],[0.55],horizontal,"(890.0, 762.0)",1.2666666666666666,0.51,1,4720.077
6,False,304,"[(1058, 903)]",[],[1],[0.7],horizontal,"(890.0, 262.0)",0.5333333333333333,0.652,1,4724.792
6,False,305,"[(1060, 903)]",[],[1],[0.75],vertical,"(390.0, 262.0)",0.7666666666666666,0.711,1,4728.873
6,False,306,"[(1069, 889)]",[],[1],[],horizontal,"(890.0, 262.0)",,cti_phase,0,4733.224
6,False,307,"[(1071, 874)]",[],[1],[0.3833333333333333],vertical,"(890.0, 262.0)",1.6666666666666667,0.344,1,4737.29
6,False,308,"[(1076, 903)]",[],[1],[0.5333333333333333],vertical,"(890.0, 762.0)",1.4,0.49,1,4742.603
6,False,309,"[(1096, 888)]",[],[1],[0.5833333333333334],vertical,"(890.0, 762.0)",0.65,0.542,1,4747.826
6,False,310,"[(1076, 887)]",[],[1],[0.6],vertical,"(390.0, 262.0)",0.9333333333333333,0.559,1,4752.406
6,False,311,"[(1072, 916)]",[],[1],[0.6166666666666667],vertical,"(890.0, 262.0)",0.9833333333333333,0.571,1,4756.724
6,False,312,"[(1072, 910)]",[],[1],[0.65],horizontal,"(390.0, 762.0)",1.0833333333333333,0.61,1,4762.182
6,False,313,"[(1075, 885)]",[],[1],[0.5833333333333334],horizontal,"(390.0, 262.0)",0.6,0.545,1,4767.129
6,False,314,"[(1071, 910)]",[],[1],[0.55],horizontal,"(890.0, 762.0)",0.5166666666666666,0.52,1,4771.347
6,False,315,"[(1077, 893)]",[],[1],[0.6],horizontal,"(390.0, 762.0)",1.2,0.561,1,4775.705
6,False,316,"[(1072, 900)]",[],[1],[0.5666666666666667],horizontal,"(890.0, 762.0)",1.4666666666666666,0.523,1,4780.854
6,False,317,"[(1071, 890)]",[],[1],[0.7],vertical,"(890.0, 762.0)",1.2,0.657,1,4785.907
6,False,318,"[(1076, 903)]",[],[1],[0.5666666666666667],horizontal,"(890.0, 262.0)",0.7833333333333333,0.53,1,4790.689
6,False,319,"[(1072, 880)]",[],[1],[0.6166666666666667],vertical,"(390.0, 262.0)",1.1166666666666667,0.579,1,4794.772
6,False,320,"[(1079, 885)]",[],[1],[0.55],horizontal,"(390.0, 762.0)",1.3833333333333333,0.509,1,4804.933
6,False,321,"[(1064, 886)]",[],[1],[0.55],vertical,"(890.0, 262.0)",1.65,0.506,1,4809.79
6,False,322,"[(1067, 900)]",[],[1],[0.55],horizontal,"(890.0, 262.0)",0.5333333333333333,0.508,1,4814.626
6,False,323,"[(1069, 893)]",[],[1],[0.6166666666666667],vertical,"(890.0, 762.0)",0.9833333333333333,0.577,1,6420.825
6,False,324,"[(1076, 905)]",[],[1],[0.5666666666666667],vertical,"(890.0, 762.0)",1.1833333333333333,0.525,1,6425.608
6,False,325,"[(1097, 894)]",[],[1],[0.6166666666666667],vertical,"(390.0, 262.0)",1.0166666666666666,0.575,1,6430.208
6,False,326,"[(1060, 884)]",[],[1],[0.48333333333333334],horizontal,"(890.0, 262.0)",1.2666666666666666,0.445,1,6434.638
6,False,327,"[(1052, 901)]",[],[1],[0.55],horizontal,"(890.0, 262.0)",0.8166666666666667,0.508,1,6445.31
6,False,328,"[(1068, 896)]",[],[1],[0.11666666666666667],vertical,"(390.0, 262.0)",1.6,0.084,1,6449.459
6,False,329,"[(1056, 885)]",[],[1],[0.7166666666666667],horizontal,"(890.0, 762.0)",1.1833333333333333,0.671,1,6454.319
6,False,330,"[(1058, 890)]",[],[1],[0.5666666666666667],vertical,"(890.0, 262.0)",1.0,0.525,1,6459.493
6,False,331,"[(1074, 902)]",[],[1],[0.5666666666666667],vertical,"(890.0, 262.0)",1.3166666666666667,0.526,1,6464.205
6,False,332,"[(1073, 880)]",[],[1],[0.5],vertical,"(390.0, 262.0)",1.4833333333333334,0.456,1,6469.058
6,False,333,"[(1072, 885)]",[],[1],[0.6666666666666666],vertical,"(890.0, 262.0)",1.2333333333333334,0.623,1,6474.141
6,False,334,"[(1052, 895)]",[],[1],[0.65],vertical,"(890.0, 762.0)",1.0833333333333333,0.607,1,6478.984
6,False,335,"[(1077, 883)]",[],[1],[0.5666666666666667],vertical,"(890.0, 262.0)",0.8166666666666667,0.528,1,6483.935
6,False,336,"[(1072, 898)]",[],[1],[0.6166666666666667],horizontal,"(890.0, 762.0)",1.4166666666666667,0.576,1,6488.338
6,False,337,"[(1073, 893)]",[],[1],[0.85],horizontal,"(890.0, 762.0)",1.5333333333333332,0.803,0,6493.57
6,False,338,"[(1091, 871)]",[],[1],[0.5666666666666667],horizontal,"(890.0, 262.0)",1.4833333333333334,0.521,1,6498.971
6,False,339,"[(1069, 912)]",[],[1],[0.7166666666666667],horizontal,"(390.0, 762.0)",0.65,0.678,1,6504.206
6,False,340,"[(1067, 898)]",[],[1],[0.5333333333333333],horizontal,"(890.0, 262.0)",1.2833333333333332,0.491,1,6508.47
6,False,341,"[(1072, 877)]",[],[1],[0.6],horizontal,"(890.0, 762.0)",1.1333333333333333,0.553,1,6513.341
6,False,342,"[(1036, 886)]",[],[1],[0.6],horizontal,"(890.0, 262.0)",1.2166666666666666,0.562,1,6517.91
6,False,343,"[(1069, 876)]",[],[1],[0.5833333333333334],vertical,"(390.0, 762.0)",0.8166666666666667,0.546,1,6522.59
6,False,344,"[(1038, 903)]",[],[1],[0.55],horizontal,"(390.0, 762.0)",0.8333333333333334,0.502,1,6526.938
6,False,345,"[(1072, 895)]",[],[1],[0.5],vertical,"(390.0, 762.0)",1.4833333333333334,0.458,1,6532.045
6,False,346,"[(1061, 896)]",[],[1],[0.6166666666666667],horizontal,"(390.0, 262.0)",0.6,0.573,1,6537.059
6,False,347,"[(1053, 891)]",[],[1],[0.6],horizontal,"(890.0, 762.0)",0.5833333333333334,0.555,1,6541.034
6,False,348,"[(1052, 899)]",[],[1],[0.5166666666666666],horizontal,"(890.0, 262.0)",1.4666666666666666,0.475,1,6544.913
6,False,349,"[(1068, 895)]",[],[1],[0.85],horizontal,"(890.0, 262.0)",1.1833333333333333,0.8,0,6550.24
6,False,350,"[(1038, 880)]",[],[1],[0.7166666666666667],vertical,"(890.0, 762.0)",0.9833333333333333,0.675,1,6555.322
6,False,351,"[(1043, 901)]",[],[1],[0.6666666666666666],vertical,"(890.0, 262.0)",0.9333333333333333,0.616,1,6562.089
6,False,352,"[(1082, 881)]",[],[1],[0.5666666666666667],horizontal,"(890.0, 762.0)",0.55,0.527,1,6566.769
6,False,353,"[(1059, 877)]",[],[1],[0.5833333333333334],vertical,"(890.0, 762.0)",1.5,0.543,1,6571.101
6,False,354,"[(1072, 881)]",[],[1],[],vertical,"(390.0, 762.0)",,cti_phase,0,6576.042
6,False,355,"[(1074, 873)]",[],[1],[0.5],vertical,"(390.0, 762.0)",1.3,0.462,1,6579.644
6,False,356,"[(1072, 900)]",[],[1],[0.5833333333333334],horizontal,"(890.0, 762.0)",0.6,0.539,1,6584.638
6,False,357,"[(1040, 884)]",[],[1],[0.5333333333333333],vertical,"(890.0, 262.0)",0.9166666666666666,0.492,1,6588.808
6,False,358,"[(1047, 881)]",[],[1],[0.5833333333333334],horizontal,"(390.0, 762.0)",1.2833333333333332,0.536,1,6593.243
6,False,359,"[(1072, 901)]",[],[1],[0.6],vertical,"(890.0, 262.0)",0.6833333333333333,0.55,1,6598.26
6,False,360,"[(1072, 868)]",[],[1],[],horizontal,"(390.0, 762.0)",,cti_phase,0,6602.893
7,False,361,"[(1060, 890)]",[],[1],[0.3],vertical,"(390.0, 262.0)",1.45,0.262,1,6607.826
7,False,362,"[(1075, 875)]",[],[1],[0.5833333333333334],horizontal,"(890.0, 762.0)",1.2166666666666666,0.539,1,6613.494
7,False,363,"[(1062, 891)]",[],[1],[0.5833333333333334],horizontal,"(390.0, 762.0)",1.3,0.542,1,6618.16
7,False,364,"[(1080, 899)]",[],[1],[0.55],vertical,"(890.0, 262.0)",1.0333333333333332,0.503,1,6623.131
7,False,365,"[(1072, 882)]",[],[1],[0.7],horizontal,"(890.0, 762.0)",1.45,0.657,1,6627.397
7,False,366,"[(1067, 885)]",[],[1],[0.5],horizontal,"(390.0, 762.0)",0.9833333333333333,0.469,1,6632.56
7,False,367,"[(1073, 895)]",[],[1],[0.5],vertical,"(890.0, 262.0)",1.35,0.456,1,6636.628
7,False,368,"[(1071, 879)]",[],[1],[0.5],horizontal,"(890.0, 262.0)",1.1,0.457,1,6641.328
7,False,369,"[(1082, 890)]",[],[1],[0.5166666666666666],vertical,"(390.0, 762.0)",1.5333333333333332,0.475,1,6645.512
7,False,370,"[(1063, 900)]",[],[1],[0.6],horizontal,"(890.0, 762.0)",0.5833333333333334,0.557,1,6650.491
7,False,371,"[(1065, 904)]",[],[1],[0.85],vertical,"(890.0, 262.0)",1.3166666666666667,0.8,0,6654.654
7,False,372,"[(1060, 853)]",[],[1],[0.5],horizontal,"(890.0, 262.0)",1.2,0.457,1,6659.974
7,False,373,"[(1080, 879)]",[],[1],[0.6166666666666667],vertical,"(890.0, 262.0)",0.5333333333333333,0.575,1,6677.907
7,False,374,"[(1072, 890)]",[],[1],[0.5333333333333333],horizontal,"(390.0, 762.0)",1.05,0.491,1,6681.965
7,False,375,"[(1067, 867)]",[],[1],[0.5833333333333334],horizontal,"(390.0, 762.0)",1.3,0.537,1,6686.773
7,False,376,"[(1028, 897)]",[],[1],[0.5666666666666667],vertical,"(390.0, 762.0)",0.5833333333333334,0.539,1,6691.779
7,False,377,"[(1075, 898)]",[],[1],[],vertical,"(390.0, 762.0)",,cti_phase,0,6695.992
7,False,378,"[(1076, 881)]",[],[1],[0.6833333333333333],vertical,"(890.0, 262.0)",1.5666666666666667,0.639,1,6700.25
7,False,379,"[(1073, 886)]",[],[1],[0.48333333333333334],horizontal,"(390.0, 262.0)",1.5833333333333333,0.449,1,6705.32
7,False,380,"[(1077, 910)]",[],[1],[0.85],vertical,"(390.0, 262.0)",0.85,0.804,0,6710.342
7,False,381,"[(1049, 893)]",[],[1],[0.6],horizontal,"(390.0, 262.0)",0.6166666666666667,0.559,1,6715.471
7,False,382,"[(1071, 881)]",[],[1],[0.55],horizontal,"(390.0, 262.0)",1.5166666666666666,0.509,1,6850.71
7,False,383,"[(1081, 892)]",[],[1],[0.6333333333333333],horizontal,"(890.0, 262.0)",0.5833333333333334,0.601,1,6856.173
7,False,384,"[(1064, 912)]",[],[1],[0.6],horizontal,"(390.0, 762.0)",0.9,0.555,1,6859.942
7,False,385,"[(1062, 898)]",[],[1],[0.6833333333333333],vertical,"(890.0, 262.0)",0.55,0.65,1,6864.236
7,False,386,"[(1072, 900)]",[],[1],[0.6166666666666667],vertical,"(390.0, 762.0)",0.7333333333333333,0.579,1,6868.568
7,False,387,"[(1062, 909)]",[],[1],[0.6666666666666666],horizontal,"(390.0, 262.0)",1.65,0.622,1,6872.873
7,False,388,"[(1077, 876)]",[],[1],[0.6666666666666666],horizontal,"(890.0, 762.0)",1.2,0.634,1,6878.076
7,False,389,"[(1072, 902)]",[],[1],[0.6],vertical,"(390.0, 762.0)",0.7,0.558,1,6883.249
7,False,390,"[(1063, 906)]",[],[1],[0.5333333333333333],vertical,"(390.0, 262.0)",0.9,0.493,1,6887.63
7,False,391,"[(1086, 906)]",[],[1],[0.6166666666666667],vertical,"(890.0, 262.0)",1.2,0.571,1,6892.544
7,False,392,"[(1072, 897)]",[],[1],[0.5833333333333334],vertical,"(890.0, 762.0)",1.3666666666666667,0.541,1,6897.67
7,False,393,"[(1092, 885)]",[],[1],[0.6166666666666667],horizontal,"(390.0, 262.0)",0.75,0.574,1,6909.444
7,False,394,"[(1086, 910)]",[],[1],[0.6],vertical,"(390.0, 762.0)",1.2833333333333332,0.561,1,6914.155
7,False,395,"[(1067, 886)]",[],[1],[0.5666666666666667],horizontal,"(890.0, 262.0)",0.7833333333333333,0.536,1,6918.866
7,False,396,"[(1059, 892)]",[],[1],[0.6833333333333333],vertical,"(390.0, 762.0)",1.0,0.641,1,6923.494
7,False,397,"[(1069, 873)]",[],[1],[0.6666666666666666],horizontal,"(390.0, 762.0)",1.05,0.622,1,6929.5
7,False,398,"[(1033, 900)]",[],[1],[0.5666666666666667],horizontal,"(890.0, 762.0)",0.7666666666666666,0.527,1,6934.307
7,False,399,"[(1073, 875)]",[],[1],[0.5666666666666667],horizontal,"(890.0, 762.0)",0.7,0.527,1,6939.325
7,False,400,"[(1072, 895)]",[],[1],[0.6333333333333333],horizontal,"(890.0, 762.0)",1.0666666666666667,0.595,1,6943.561
7,False,401,"[(1077, 906)]",[],[1],[0.5833333333333334],vertical,"(390.0, 262.0)",1.6333333333333333,0.545,1,6948.374
7,False,402,"[(1072, 882)]",[],[1],[0.5666666666666667],vertical,"(390.0, 262.0)",0.6666666666666666,0.526,1,6953.528
7,False,403,"[(1074, 904)]",[],[1],[0.5666666666666667],horizontal,"(890.0, 762.0)",1.55,0.528,1,6968.027
7,False,404,"[(1055, 896)]",[],[1],[0.6],horizontal,"(890.0, 762.0)",1.4833333333333334,0.552,1,6973.273
7,False,405,"[(1072, 884)]",[],[1],[0.6],vertical,"(390.0, 262.0)",1.1833333333333333,0.561,1,6978.545
7,False,406,"[(1070, 887)]",[],[1],[0.6],horizontal,"(890.0, 762.0)",1.1,0.55,1,6983.076
7,False,407,"[(1072, 902)]",[],[1],[0.55],horizontal,"(390.0, 262.0)",1.15,0.509,1,6987.686
7,False,408,"[(1072, 897)]",[],[1],[0.5166666666666666],horizontal,"(390.0, 262.0)",1.1833333333333333,0.471,1,6992.922
7,False,409,"[(1073, 902)]",[],[1],[0.6166666666666667],horizontal,"(890.0, 262.0)",0.65,0.573,1,6997.689
7,False,410,"[(1075, 904)]",[],[1],[0.55],vertical,"(890.0, 262.0)",1.0833333333333333,0.508,1,7002.281
7,False,411,"[(1078, 886)]",[],[1],[0.43333333333333335],horizontal,"(890.0, 262.0)",1.6833333333333333,0.396,1,7007.156
7,False,412,"[(1099, 895)]",[],[1],[0.5833333333333334],vertical,"(890.0, 762.0)",0.7333333333333333,0.541,1,7012.573
7,False,413,"[(1082, 900)]",[],[1],[0.6166666666666667],horizontal,"(890.0, 262.0)",0.8833333333333333,0.573,1,7017.023
7,False,414,"[(1091, 897)]",[],[1],[0.5],horizontal,"(390.0, 262.0)",1.4833333333333334,0.457,1,7021.208
7,False,415,"[(1078, 900)]",[],[1],[0.65],horizontal,"(890.0, 762.0)",1.1333333333333333,0.602,1,7026.064
7,False,416,"[(1076, 900)]",[],[1],[0.85],vertical,"(890.0, 262.0)",0.9666666666666667,0.799,0,7031.127
7,False,417,"[(1057, 900)]",[],[1],[0.7833333333333333],horizontal,"(890.0, 262.0)",1.5333333333333332,0.736,1,7035.953
7,False,418,"[(1075, 904)]",[],[1],[0.5666666666666667],vertical,"(890.0, 762.0)",1.5666666666666667,0.527,1,7042.236
7,False,419,"[(1076, 899)]",[],[1],[0.8166666666666667],horizontal,"(390.0, 262.0)",0.95,0.771,1,7047.591
7,False,420,"[(1062, 898)]",[],[1],[0.35],vertical,"(890.0, 762.0)",1.3166666666666667,0.313,1,7052.443
8,False,421,"[(1081, 890)]",[],[1],[0.5833333333333334],vertical,"(890.0, 762.0)",0.8833333333333333,0.552,1,7057.226
8,False,422,"[(1051, 906)]",[],[1],[0.55],horizontal,"(890.0, 262.0)",1.3333333333333333,0.507,1,7061.693
8,False,423,"[(1068, 893)]",[],[1],[0.85],horizontal,"(890.0, 762.0)",0.7666666666666666,0.8,0,7066.637
8,False,424,"[(1056, 897)]",[],[1],[0.6333333333333333],horizontal,"(890.0, 762.0)",1.0833333333333333,0.591,1,7071.44
8,False,425,"[(1073, 900)]",[],[1],[0.06666666666666667],vertical,"(890.0, 262.0)",0.8,0.037,1,7079.025
8,False,426,"[(1085, 910)]",[],[1],[0.5666666666666667],horizontal,"(390.0, 762.0)",1.1333333333333333,0.523,1,7082.909
8,False,427,"[(1076, 868)]",[],[1],[0.4166666666666667],horizontal,"(390.0, 262.0)",1.4666666666666666,0.378,1,7087.674
8,False,428,"[(1050, 903)]",[],[1],[0.5166666666666666],vertical,"(890.0, 262.0)",0.9166666666666666,0.472,1,7092.758
8,False,429,"[(1072, 892)]",[],[1],[0.8],vertical,"(890.0, 762.0)",0.9333333333333333,0.756,1,7097.734
8,False,430,"[(1110, 899)]",[],[1],[0.6166666666666667],horizontal,"(890.0, 762.0)",1.0666666666666667,0.575,1,7103.007
8,False,431,"[(1071, 885)]",[],[1],[0.85],horizontal,"(890.0, 262.0)",0.7666666666666666,0.802,0,7107.842
8,False,432,"[(1096, 891)]",[],[1],[0.6166666666666667],horizontal,"(890.0, 762.0)",1.25,0.577,1,7113.991
8,False,433,"[(1094, 900)]",[],[1],[0.5166666666666666],vertical,"(390.0, 262.0)",1.4833333333333334,0.474,1,7118.963
8,False,434,"[(1086, 902)]",[],[1],[0.5666666666666667],vertical,"(390.0, 262.0)",1.05,0.527,1,7124.108
8,False,435,"[(1065, 864)]",[],[1],[0.75],horizontal,"(390.0, 262.0)",0.6666666666666666,0.706,1,7128.623
8,False,436,"[(1072, 889)]",[],[1],[0.4666666666666667],vertical,"(890.0, 262.0)",1.3166666666666667,0.429,1,7132.974
8,False,437,"[(1071, 888)]",[],[1],[0.6],vertical,"(890.0, 262.0)",0.85,0.56,1,7137.72
8,False,438,"[(1081, 868)]",[],[1],[0.6],horizontal,"(390.0, 262.0)",1.3166666666666667,0.555,1,7142.466
8,False,439,"[(1088, 899)]",[],[1],[0.6333333333333333],horizontal,"(390.0, 262.0)",1.4833333333333334,0.595,1,7147.01
8,False,440,"[(1076, 890)]",[],[1],[0.5666666666666667],horizontal,"(390.0, 762.0)",1.35,0.529,1,7152.328
8,False,441,"[(1110, 890)]",[],[1],[0.7166666666666667],vertical,"(390.0, 762.0)",1.1833333333333333,0.674,1,7159.785
8,False,442,"[(1072, 889)]",[],[1],[0.55],horizontal,"(390.0, 762.0)",1.55,0.507,1,7164.544
8,False,443,"[(1072, 876)]",[],[1],[0.85],horizontal,"(890.0, 262.0)",0.6,0.805,0,7169.692
8,False,444,"[(1072, 867)]",[],[1],[0.5833333333333334],vertical,"(890.0, 762.0)",0.85,0.542,1,7174.267
8,False,445,"[(1076, 885)]",[],[1],[0.85],horizontal,"(390.0, 262.0)",0.6,0.8,0,7179.721
8,False,446,"[(1073, 876)]",[],[1],[0.7],horizontal,"(390.0, 762.0)",0.95,0.657,1,7184.613
8,False,447,"[(1086, 904)]",[],[1],[0.85],horizontal,"(390.0, 262.0)",1.0166666666666666,0.798,0,7189.82
8,False,448,"[(1075, 881)]",[],[1],[0.6333333333333333],horizontal,"(390.0, 762.0)",1.65,0.597,1,7194.988
8,False,449,"[(1072, 888)]",[],[1],[0.5833333333333334],horizontal,"(890.0, 762.0)",1.1666666666666667,0.546,1,7199.791
8,False,450,"[(1052, 871)]",[],[1],[0.6833333333333333],horizontal,"(390.0, 762.0)",1.2,0.641,1,7204.762
8,False,451,"[(1077, 892)]",[],[1],[0.5333333333333333],vertical,"(890.0, 262.0)",0.7166666666666667,0.494,1,7209.128
8,False,452,"[(1072, 885)]",[],[1],[0.4666666666666667],horizontal,"(890.0, 262.0)",1.2166666666666666,0.429,1,7213.323
8,False,453,"[(1070, 881)]",[],[1],[0.5333333333333333],horizontal,"(390.0, 262.0)",1.5,0.489,1,7218.305
8,False,454,"[(1072, 896)]",[],[1],[0.6],vertical,"(890.0, 762.0)",0.9333333333333333,0.564,1,7223.577
8,False,455,"[(1115, 893)]",[],[1],[0.55],horizontal,"(890.0, 262.0)",0.9166666666666666,0.506,1,7228.7
8,False,456,"[(1094, 901)]",[],[1],[0.4666666666666667],vertical,"(890.0, 262.0)",1.4833333333333334,0.431,1,7232.698
8,False,457,"[(1074, 877)]",[],[1],[0.65],vertical,"(890.0, 762.0)",0.9833333333333333,0.611,1,7238.045
8,False,458,"[(1077, 883)]",[],[1],[0.45],vertical,"(890.0, 762.0)",1.0833333333333333,0.413,1,7242.574
8,False,459,"[(1066, 898)]",[],[1],[0.55],horizontal,"(890.0, 262.0)",1.25,0.51,1,7247.259
8,False,460,"[(1080, 887)]",[],[1],[0.5833333333333334],horizontal,"(890.0, 262.0)",1.5166666666666666,0.537,1,7251.823
8,False,461,"[(1074, 876)]",[],[1],[0.5666666666666667],vertical,"(390.0, 262.0)",0.6833333333333333,0.527,1,7256.925
8,False,462,"[(1105, 900)]",[],[1],[0.7833333333333333],horizontal,"(890.0, 262.0)",1.2666666666666666,0.74,1,7261.592
8,False,463,"[(1048, 896)]",[],[1],[0.5333333333333333],vertical,"(390.0, 262.0)",1.5166666666666666,0.495,1,7266.691
8,False,464,"[(1072, 872)]",[],[1],[0.5666666666666667],horizontal,"(390.0, 262.0)",0.8,0.526,1,7272.092
8,False,465,"[(1072, 880)]",[],[1],[0.5833333333333334],horizontal,"(390.0, 762.0)",1.0333333333333332,0.549,1,7276.507
8,False,466,"[(1076, 878)]",[],[1],[0.5666666666666667],vertical,"(390.0, 262.0)",1.3666666666666667,0.531,1,7281.32
8,False,467,"[(1074, 868)]",[],[1],[0.6333333333333333],vertical,"(390.0, 262.0)",0.5166666666666666,0.587,1,7286.261
8,False,468,"[(1072, 871)]",[],[1],[0.6],vertical,"(890.0, 762.0)",1.2166666666666666,0.555,1,7290.554
8,False,469,"[(1081, 897)]",[],[1],[0.5333333333333333],horizontal,"(890.0, 762.0)",0.9833333333333333,0.497,1,7295.23
8,False,470,"[(1086, 885)]",[],[1],[0.55],vertical,"(390.0, 762.0)",1.1333333333333333,0.509,1,7299.436
8,False,471,"[(1076, 901)]",[],[1],[0.6],horizontal,"(890.0, 262.0)",1.1,0.56,1,7304.156
8,False,472,"[(1072, 873)]",[],[1],[0.65],vertical,"(890.0, 762.0)",0.7333333333333333,0.613,1,7308.993
8,False,473,"[(1073, 887)]",[],[1],[0.65],horizontal,"(890.0, 762.0)",1.6333333333333333,0.607,1,7313.355
8,False,474,"[(1075, 893)]",[],[1],[0.6333333333333333],horizontal,"(390.0, 762.0)",0.7,0.586,1,7318.791
8,False,475,"[(1075, 910)]",[],[1],[0.5333333333333333],vertical,"(890.0, 262.0)",1.2166666666666666,0.49,1,7322.718
8,False,476,"[(1086, 901)]",[],[1],[0.5833333333333334],horizontal,"(890.0, 762.0)",1.0166666666666666,0.545,1,7327.757
8,False,477,"[(1086, 901)]",[],[1],[0.55],vertical,"(390.0, 262.0)",1.5166666666666666,0.505,1,7332.546
8,False,478,"[(1072, 895)]",[],[1],[0.5833333333333334],horizontal,"(890.0, 262.0)",0.65,0.544,1,7337.925
8,False,479,"[(1051, 889)]",[],[1],[0.5666666666666667],horizontal,"(390.0, 262.0)",0.95,0.529,1,7342.419
8,False,480,"[(1072, 885)]",[],[1],[0.5666666666666667],vertical,"(890.0, 262.0)",1.1,0.523,1,7347.038
9,False,481,"[(1076, 876)]",[],[1],[0.6666666666666666],vertical,"(890.0, 762.0)",1.35,0.641,1,7351.921
9,False,482,"[(1073, 863)]",[],[1],[0.5833333333333334],vertical,"(890.0, 262.0)",0.6666666666666666,0.545,1,7356.701
9,False,483,"[(1072, 902)]",[],[1],[0.6666666666666666],horizontal,"(390.0, 762.0)",0.8333333333333334,0.624,1,7360.498
9,False,484,"[(1072, 881)]",[],[1],[0.5833333333333334],vertical,"(390.0, 262.0)",1.2666666666666666,0.545,1,7364.776
9,False,485,"[(1073, 861)]",[],[1],[0.65],horizontal,"(390.0, 762.0)",0.9,0.602,1,7369.974
9,False,486,"[(1077, 890)]",[],[1],[0.3333333333333333],vertical,"(890.0, 762.0)",1.2833333333333332,0.294,1,7374.198
9,False,487,"[(1041, 890)]",[],[1],[0.6333333333333333],vertical,"(390.0, 262.0)",0.5333333333333333,0.594,1,7378.975
9,False,488,"[(1074, 899)]",[],[1],[0.55],horizontal,"(390.0, 762.0)",0.8666666666666667,0.509,1,7383.16
9,False,489,"[(1100, 900)]",[],[1],[0.55],vertical,"(390.0, 762.0)",1.4833333333333334,0.509,1,7387.723
9,False,490,"[(1072, 880)]",[],[1],[0.6],horizontal,"(390.0, 762.0)",0.6833333333333333,0.554,1,7392.759
9,False,491,"[(1075, 906)]",[],[1],[0.5666666666666667],vertical,"(890.0, 762.0)",0.7833333333333333,0.524,1,7397.087
9,False,492,"[(1072, 877)]",[],[1],[0.5833333333333334],vertical,"(390.0, 762.0)",0.8333333333333334,0.541,1,7401.404
9,False,493,"[(1076, 900)]",[],[1],[0.85],vertical,"(390.0, 262.0)",0.7666666666666666,0.798,0,7405.566
9,False,494,"[(1067, 904)]",[],[1],[0.5666666666666667],vertical,"(390.0, 262.0)",1.25,0.523,1,7410.365
9,False,495,"[(1061, 901)]",[],[1],[0.2833333333333333],horizontal,"(390.0, 262.0)",1.6666666666666667,0.244,1,8600.561
9,False,496,"[(1091, 913)]",[],[1],[0.5833333333333334],vertical,"(890.0, 262.0)",1.0833333333333333,0.547,1,8605.578
9,False,497,"[(1071, 896)]",[],[1],[0.5166666666666666],horizontal,"(890.0, 762.0)",0.5666666666666667,0.479,1,9545.864
9,False,498,"[(1074, 878)]",[],[1],[0.43333333333333335],horizontal,"(390.0, 262.0)",1.6666666666666667,0.391,1,9550.331
9,False,499,"[(1067, 900)]",[],[1],[0.48333333333333334],vertical,"(890.0, 762.0)",1.5833333333333333,0.441,1,9566.944
9,False,500,"[(1071, 883)]",[],[1],[0.6666666666666666],vertical,"(890.0, 762.0)",0.9833333333333333,0.63,1,9572.279
9,False,501,"[(1072, 883)]",[],[1],[0.65],horizontal,"(390.0, 762.0)",0.7666666666666666,0.612,1,9577.013
9,False,502,"[(1062, 878)]",[],[1],[0.5833333333333334],horizontal,"(890.0, 762.0)",1.3166666666666667,0.538,1,9581.842
9,False,503,"[(1072, 900)]",[],[1],[0.55],horizontal,"(890.0, 262.0)",0.5833333333333334,0.506,1,9588.398
9,False,504,"[(1105, 893)]",[],[1],[0.55],horizontal,"(890.0, 762.0)",0.8166666666666667,0.511,1,9592.325
9,False,505,"[(1085, 896)]",[],[1],[0.6166666666666667],vertical,"(390.0, 262.0)",1.05,0.575,1,9596.555
9,False,506,"[(1067, 883)]",[],[1],[0.5333333333333333],vertical,"(390.0, 262.0)",0.9333333333333333,0.498,1,9601.492
9,False,507,"[(1072, 890)]",[],[1],[0.6333333333333333],vertical,"(390.0, 762.0)",0.65,0.591,1,9606.924
9,False,508,"[(1072, 889)]",[],[1],[0.6166666666666667],vertical,"(390.0, 762.0)",1.3333333333333333,0.575,1,9611.327
9,False,509,"[(1074, 892)]",[],[1],[0.5333333333333333],vertical,"(890.0, 262.0)",0.7833333333333333,0.493,1,9616.563
9,False,510,"[(1076, 899)]",[],[1],[0.6333333333333333],vertical,"(890.0, 762.0)",1.4833333333333334,0.599,1,9620.971
9,False,511,"[(1081, 871)]",[],[1],[],vertical,"(890.0, 262.0)",,cti_phase,0,9626.215
9,False,512,"[(1068, 855)]",[],[1],[0.55],vertical,"(890.0, 762.0)",0.7666666666666666,0.509,1,9629.861
9,False,513,"[(1047, 889)]",[],[1],[0.55],vertical,"(390.0, 262.0)",1.5833333333333333,0.511,1,10080.297
9,False,514,"[(1054, 882)]",[],[1],[0.7166666666666667],horizontal,"(390.0, 762.0)",1.4166666666666667,0.672,1,10086.377
9,False,515,"[(1052, 901)]",[],[1],[0.55],horizontal,"(890.0, 262.0)",1.0,0.507,1,10091.015
9,False,516,"[(1050, 902)]",[],[1],[0.5166666666666666],vertical,"(890.0, 262.0)",0.9333333333333333,0.481,1,10095.747
9,False,517,"[(1077, 887)]",[],[1],[0.4],horizontal,"(890.0, 262.0)",1.6666666666666667,0.363,1,10100.09
9,False,518,"[(1062, 878)]",[],[1],[0.5333333333333333],horizontal,"(390.0, 762.0)",0.55,0.492,1,10105.088
9,False,519,"[(1035, 899)]",[],[1],[0.23333333333333334],vertical,"(390.0, 762.0)",1.0333333333333332,0.199,1,10109.078
9,False,520,"[(1067, 897)]",[],[1],[0.48333333333333334],horizontal,"(390.0, 762.0)",0.65,0.442,1,10114.261
9,False,521,"[(1073, 909)]",[],[1],[0.6],vertical,"(890.0, 762.0)",0.8166666666666667,0.554,1,10118.532
9,False,522,"[(1072, 902)]",[],[1],[0.6333333333333333],horizontal,"(890.0, 262.0)",1.0333333333333332,0.594,1,10122.559
9,False,523,"[(1056, 879)]",[],[1],[0.65],horizontal,"(890.0, 762.0)",1.5833333333333333,0.612,1,10126.95
9,False,524,"[(1070, 879)]",[],[1],[0.4666666666666667],horizontal,"(390.0, 262.0)",0.9833333333333333,0.426,1,10132.018
9,False,525,"[(1068, 876)]",[],[1],[0.48333333333333334],vertical,"(390.0, 762.0)",0.7666666666666666,0.445,1,10137.014
9,False,526,"[(1072, 910)]",[],[1],[0.5],vertical,"(390.0, 262.0)",1.25,0.459,1,10141.579
9,False,527,"[(1054, 899)]",[],[1],[0.7166666666666667],horizontal,"(390.0, 762.0)",0.6,0.686,1,10146.677
9,False,528,"[(1078, 905)]",[],[1],[0.5333333333333333],vertical,"(890.0, 262.0)",1.0666666666666667,0.498,1,10151.256
9,False,529,"[(1071, 892)]",[],[1],[0.6],horizontal,"(390.0, 762.0)",1.15,0.56,1,10156.076
9,False,530,"[(1071, 899)]",[],[1],[0.65],horizontal,"(890.0, 262.0)",1.6333333333333333,0.608,1,10161.232
9,False,531,"[(1071, 905)]",[],[1],[0.6166666666666667],vertical,"(890.0, 262.0)",0.7333333333333333,0.576,1,10166.124
9,False,532,"[(1058, 910)]",[],[1],[0.6],horizontal,"(890.0, 762.0)",0.6833333333333333,0.558,1,10170.555
9,False,533,"[(1072, 895)]",[],[1],[0.85],vertical,"(890.0, 262.0)",1.2333333333333334,0.799,0,10175.1
9,False,534,"[(1087, 915)]",[],[1],[0.6166666666666667],horizontal,"(890.0, 762.0)",1.0166666666666666,0.58,1,10180.583
9,False,535,"[(1086, 927)]",[],[1],[0.6833333333333333],horizontal,"(390.0, 762.0)",1.65,0.634,1,10186.957
9,False,536,"[(1082, 900)]",[],[1],[0.7],horizontal,"(390.0, 762.0)",1.2,0.652,1,10192.039
9,False,537,"[(1072, 905)]",[],[1],[0.5833333333333334],vertical,"(890.0, 262.0)",1.6333333333333333,0.54,1,10378.361
9,False,538,"[(1072, 895)]",[],[1],[0.5833333333333334],vertical,"(890.0, 762.0)",0.8833333333333333,0.545,1,10383.361
9,False,539,"[(1071, 892)]",[],[1],[0.7],horizontal,"(390.0, 762.0)",1.0166666666666666,0.655,1,10387.939
9,False,540,"[(1037, 910)]",[],[1],[0.5333333333333333],vertical,"(390.0, 762.0)",1.5,0.49,1,10392.558
10,False,541,"[(1047, 910)]",[],[1],[0.48333333333333334],horizontal,"(390.0, 262.0)",1.6,0.44,1,10397.706
10,False,542,"[(1069, 884)]",[],[1],[0.5666666666666667],vertical,"(890.0, 762.0)",0.9833333333333333,0.528,1,10402.884
10,False,543,"[(1072, 885)]",[],[1],[0.6],vertical,"(390.0, 262.0)",0.7666666666666666,0.556,1,10407.981
10,False,544,"[(1037, 899)]",[],[1],[0.6],vertical,"(890.0, 262.0)",1.4333333333333333,0.553,1,10412.475
10,False,545,"[(1072, 906)]",[],[1],[0.7166666666666667],horizontal,"(390.0, 762.0)",0.55,0.674,1,10417.859
10,False,546,"[(1053, 889)]",[],[1],[0.6333333333333333],horizontal,"(390.0, 262.0)",1.3833333333333333,0.593,1,10422.255
10,False,547,"[(1047, 905)]",[],[1],[0.6],horizontal,"(390.0, 262.0)",0.8333333333333334,0.557,1,10427.552
10,False,548,"[(1049, 901)]",[],[1],[0.5333333333333333],horizontal,"(390.0, 262.0)",0.8666666666666667,0.498,1,10431.805
10,False,549,"[(1075, 901)]",[],[1],[0.55],vertical,"(890.0, 762.0)",1.4,0.512,1,10436.561
10,False,550,"[(1072, 902)]",[],[1],[0.85],horizontal,"(390.0, 762.0)",0.9,0.807,0,10441.395
10,False,551,"[(1076, 895)]",[],[1],[0.5666666666666667],horizontal,"(390.0, 762.0)",1.35,0.524,1,10446.145
10,False,552,"[(1072, 905)]",[],[1],[0.5666666666666667],horizontal,"(890.0, 762.0)",0.6333333333333333,0.531,1,10465.218
10,False,553,"[(1071, 887)]",[],[1],[0.5],vertical,"(390.0, 262.0)",0.6666666666666666,0.459,1,10469.438
10,False,554,"[(1072, 889)]",[],[1],[0.6],horizontal,"(390.0, 762.0)",1.0,0.56,1,10473.816
10,False,555,"[(1047, 908)]",[],[1],[0.6],vertical,"(890.0, 762.0)",1.05,0.555,1,10478.799
10,False,556,"[(1070, 904)]",[],[1],[0.5666666666666667],horizontal,"(390.0, 262.0)",0.9,0.525,1,10485.569
10,False,557,"[(1072, 914)]",[],[1],[0.5666666666666667],horizontal,"(390.0, 262.0)",0.95,0.527,1,10490.061
10,False,558,"[(1039, 906)]",[],[1],[0.5166666666666666],vertical,"(390.0, 762.0)",1.3333333333333333,0.478,1,10494.493
10,False,559,"[(1038, 883)]",[],[1],[0.5333333333333333],vertical,"(890.0, 262.0)",1.25,0.498,1,10511.862
10,False,560,"[(1078, 876)]",[],[1],[0.5333333333333333],horizontal,"(390.0, 762.0)",1.6166666666666667,0.494,1,10532.795
10,False,561,"[(1072, 892)]",[],[1],[0.5666666666666667],horizontal,"(890.0, 762.0)",0.6,0.527,1,10537.825
10,False,562,"[(1072, 902)]",[],[1],[0.5833333333333334],vertical,"(390.0, 762.0)",0.6833333333333333,0.539,1,10542.113
10,False,563,"[(1072, 895)]",[],[1],[0.5666666666666667],vertical,"(390.0, 262.0)",0.5833333333333334,0.522,1,10546.415
10,False,564,"[(1072, 888)]",[],[1],[0.6166666666666667],horizontal,"(890.0, 762.0)",0.55,0.579,1,10550.459
10,False,565,"[(1052, 880)]",[],[1],[0.45],vertical,"(890.0, 262.0)",1.2166666666666666,0.412,1,10554.644
10,False,566,"[(1072, 886)]",[],[1],[0.6833333333333333],horizontal,"(890.0, 262.0)",1.6,0.64,1,10568.157
10,False,567,"[(1062, 884)]",[],[1],[0.5833333333333334],horizontal,"(890.0, 762.0)",0.85,0.539,1,10573.515
10,False,568,"[(1072, 892)]",[],[1],[0.5],vertical,"(390.0, 762.0)",1.5,0.463,1,10578.344
10,False,569,"[(1040, 893)]",[],[1],[0.6166666666666667],horizontal,"(890.0, 262.0)",0.65,0.576,1,10583.081
10,False,570,"[(1074, 885)]",[],[1],[0.5833333333333334],vertical,"(890.0, 762.0)",1.35,0.546,1,10587.427
10,False,571,"[(1062, 894)]",[],[1],[0.5833333333333334],vertical,"(390.0, 762.0)",1.5666666666666667,0.544,1,10592.429
10,False,572,"[(1072, 885)]",[],[1],[0.5666666666666667],horizontal,"(890.0, 762.0)",0.6166666666666667,0.525,1,10597.864
10,False,573,"[(1072, 889)]",[],[1],[0.65],vertical,"(390.0, 262.0)",0.5666666666666667,0.601,1,10602.131
10,False,574,"[(1072, 886)]",[],[1],[0.55],horizontal,"(890.0, 762.0)",0.6833333333333333,0.506,1,10606.118
10,False,575,"[(1058, 895)]",[],[1],[0.6833333333333333],horizontal,"(390.0, 762.0)",1.0333333333333332,0.643,1,10610.022
10,False,576,"[(1078, 885)]",[],[1],[0.5833333333333334],horizontal,"(890.0, 762.0)",0.7333333333333333,0.536,1,10614.834
10,False,577,"[(1077, 893)]",[],[1],[0.5666666666666667],vertical,"(890.0, 762.0)",0.6166666666666667,0.519,1,10619.244
10,False,578,"[(1072, 867)]",[],[1],[0.5666666666666667],vertical,"(890.0, 262.0)",0.7833333333333333,0.522,1,10623.575
10,False,579,"[(1078, 881)]",[],[1],[0.55],horizontal,"(890.0, 262.0)",1.3333333333333333,0.507,1,10627.819
10,False,580,"[(1079, 880)]",[],[1],[0.6833333333333333],horizontal,"(890.0, 762.0)",0.5166666666666666,0.636,1,10632.599
10,False,581,"[(1074, 890)]",[],[1],[0.5833333333333334],vertical,"(890.0, 762.0)",1.2666666666666666,0.539,1,10636.859
10,False,582,"[(1072, 907)]",[],[1],[0.55],horizontal,"(390.0, 262.0)",0.6666666666666666,0.505,1,10641.708
10,False,583,"[(1072, 885)]",[],[1],[0.6],horizontal,"(890.0, 762.0)",1.55,0.556,1,10645.807
10,False,584,"[(1077, 883)]",[],[1],[0.5666666666666667],horizontal,"(390.0, 262.0)",0.85,0.522,1,10650.84
10,False,585,"[(1072, 889)]",[],[1],[0.5833333333333334],horizontal,"(390.0, 762.0)",0.7,0.537,1,10655.68
10,False,586,"[(1072, 880)]",[],[1],[0.6],vertical,"(390.0, 762.0)",1.3,0.557,1,10660.247
10,False,587,"[(1077, 893)]",[],[1],[0.4166666666666667],vertical,"(890.0, 262.0)",1.4333333333333333,0.376,1,10664.823
10,False,588,"[(1077, 878)]",[],[1],[0.5666666666666667],horizontal,"(890.0, 262.0)",0.5833333333333334,0.524,1,10669.994
10,False,589,"[(1072, 881)]",[],[1],[0.5333333333333333],horizontal,"(890.0, 262.0)",1.15,0.491,1,10674.024
10,False,590,"[(1072, 878)]",[],[1],[0.5833333333333334],vertical,"(390.0, 262.0)",1.1166666666666667,0.539,1,10678.784
10,False,591,"[(1072, 882)]",[],[1],[0.5666666666666667],horizontal,"(890.0, 762.0)",0.75,0.524,1,10683.382
10,False,592,"[(1094, 882)]",[],[1],[0.55],horizontal,"(890.0, 262.0)",1.5833333333333333,0.512,1,10687.773
10,False,593,"[(1072, 895)]",[],[1],[0.55],horizontal,"(390.0, 262.0)",0.5666666666666667,0.512,1,10693.05
10,False,594,"[(1077, 880)]",[],[1],[0.55],horizontal,"(890.0, 762.0)",0.6333333333333333,0.513,1,10697.488
10,False,595,"[(1072, 905)]",[],[1],[0.55],vertical,"(390.0, 762.0)",0.9666666666666667,0.509,1,10701.721
10,False,596,"[(1072, 889)]",[],[1],[0.5666666666666667],horizontal,"(890.0, 262.0)",1.5,0.521,1,10706.548
10,False,597,"[(1072, 887)]",[],[1],[0.55],vertical,"(890.0, 762.0)",0.65,0.514,1,10711.828
10,False,598,"[(1073, 893)]",[],[1],[0.5666666666666667],horizontal,"(890.0, 262.0)",0.5,0.523,1,10716.238
10,False,599,"[(1072, 895)]",[],[1],[0.5833333333333334],horizontal,"(890.0, 262.0)",1.3666666666666667,0.537,1,10720.21
10,False,600,"[(1076, 878)]",[],[1],[0.6166666666666667],horizontal,"(890.0, 762.0)",1.4666666666666666,0.576,1,10725.098
11,False,601,"[(1074, 891)]",[],[1],[0.7166666666666667],vertical,"(390.0, 762.0)",1.55,0.672,1,10730.397
11,False,602,"[(1078, 892)]",[],[1],[0.6833333333333333],vertical,"(390.0, 262.0)",0.5833333333333334,0.644,1,10735.482
11,False,603,"[(1058, 882)]",[],[1],[0.5166666666666666],horizontal,"(890.0, 262.0)",1.4166666666666667,0.47,1,10739.99
11,False,604,"[(1066, 899)]",[],[1],[0.6],vertical,"(890.0, 762.0)",1.3,0.564,1,10745.078
11,False,605,"[(1072, 880)]",[],[1],[0.5166666666666666],horizontal,"(390.0, 262.0)",1.4,0.476,1,10749.801
11,False,606,"[(1071, 884)]",[],[1],[0.6166666666666667],horizontal,"(890.0, 762.0)",1.4666666666666666,0.573,1,10755.081
11,False,607,"[(1062, 889)]",[],[1],[0.5833333333333334],horizontal,"(390.0, 762.0)",0.9333333333333333,0.543,1,10760.429
11,False,608,"[(1075, 884)]",[],[1],[0.6666666666666666],horizontal,"(890.0, 762.0)",1.1833333333333333,0.621,1,10765.602
11,False,609,"[(1072, 881)]",[],[1],[0.5333333333333333],horizontal,"(390.0, 262.0)",1.4166666666666667,0.496,1,10770.292
11,False,610,"[(1070, 867)]",[],[1],[0.5],vertical,"(890.0, 762.0)",1.65,0.461,1,10775.044
11,False,611,"[(1077, 875)]",[],[1],[0.6],vertical,"(890.0, 762.0)",1.0166666666666666,0.553,1,10779.961
11,False,612,"[(1072, 889)]",[],[1],[0.5833333333333334],horizontal,"(390.0, 762.0)",0.75,0.546,1,10784.28
11,False,613,"[(1072, 875)]",[],[1],[0.6166666666666667],vertical,"(390.0, 262.0)",0.6666666666666666,0.573,1,10788.648
11,False,614,"[(1101, 865)]",[],[1],[0.55],horizontal,"(890.0, 262.0)",1.6833333333333333,0.513,1,10792.974
11,False,615,"[(1072, 892)]",[],[1],[0.5333333333333333],vertical,"(890.0, 762.0)",1.4666666666666666,0.492,1,10798.361
11,False,616,"[(1069, 895)]",[],[1],[0.5166666666666666],horizontal,"(890.0, 262.0)",1.4333333333333333,0.476,1,10865.761
11,False,617,"[(1072, 902)]",[],[1],[0.6166666666666667],horizontal,"(390.0, 762.0)",0.6,0.573,1,10870.86
11,False,618,"[(1050, 915)]",[],[1],[0.5333333333333333],vertical,"(390.0, 762.0)",1.3333333333333333,0.498,1,10874.917
11,False,619,"[(1060, 918)]",[],[1],[0.65],vertical,"(890.0, 762.0)",0.6166666666666667,0.607,1,10880.348
11,False,620,"[(1075, 910)]",[],[1],[0.6],vertical,"(390.0, 762.0)",0.95,0.557,1,10884.897
11,False,621,"[(1072, 907)]",[],[1],[0.6166666666666667],vertical,"(390.0, 262.0)",1.3833333333333333,0.569,1,10889.366
11,False,622,"[(1072, 898)]",[],[1],[0.5333333333333333],horizontal,"(390.0, 262.0)",0.9833333333333333,0.491,1,10894.165
11,False,623,"[(1079, 881)]",[],[1],[0.65],vertical,"(390.0, 262.0)",1.3833333333333333,0.609,1,10898.448
11,False,624,"[(1090, 893)]",[],[1],[0.6],vertical,"(390.0, 762.0)",1.2333333333333334,0.557,1,10902.99
11,False,625,"[(1072, 891)]",[],[1],[0.7166666666666667],horizontal,"(390.0, 762.0)",1.2666666666666666,0.67,1,10907.827
11,False,626,"[(1070, 905)]",[],[1],[],vertical,"(390.0, 262.0)",,cti_phase,0,10912.798
11,False,627,"[(1067, 902)]",[],[1],[0.55],horizontal,"(390.0, 262.0)",0.5,0.51,1,11452.331
11,False,628,"[(1090, 901)]",[],[1],[0.85],vertical,"(890.0, 762.0)",0.6166666666666667,0.8,0,11456.879
11,False,629,"[(1075, 863)]",[],[1],[0.5166666666666666],horizontal,"(390.0, 762.0)",1.6166666666666667,0.473,1,11460.98
11,False,630,"[(1096, 900)]",[],[1],[0.15],horizontal,"(890.0, 262.0)",1.3,0.116,1,11467.082
11,False,631,"[(1072, 887)]",[],[1],[0.6],vertical,"(890.0, 262.0)",1.1166666666666667,0.556,1,11471.3
11,False,632,"[(1091, 887)]",[],[1],[0.5166666666666666],horizontal,"(890.0, 262.0)",0.9833333333333333,0.477,1,11476.028
11,False,633,"[(1072, 891)]",[],[1],[0.65],horizontal,"(890.0, 762.0)",1.2333333333333334,0.606,1,11480.425
11,False,634,"[(1072, 896)]",[],[1],[0.5333333333333333],vertical,"(890.0, 262.0)",1.1,0.488,1,11485.445
11,False,635,"[(1091, 880)]",[],[1],[0.6],vertical,"(390.0, 262.0)",1.0166666666666666,0.555,1,11489.994
11,False,636,"[(1074, 892)]",[],[1],[0.5333333333333333],horizontal,"(390.0, 262.0)",1.3,0.497,1,11501.815
11,False,637,"[(1075, 885)]",[],[1],[0.85],horizontal,"(390.0, 762.0)",0.9333333333333333,0.797,0,11506.562
11,False,638,"[(1072, 888)]",[],[1],[0.13333333333333333],horizontal,"(390.0, 262.0)",0.85,0.1,1,11510.933
11,False,639,"[(1096, 908)]",[],[1],[0.6],horizontal,"(890.0, 762.0)",0.7666666666666666,0.562,1,11516.331
11,False,640,"[(1054, 905)]",[],[1],[0.5333333333333333],horizontal,"(890.0, 262.0)",1.55,0.49,1,11520.678
11,False,641,"[(1072, 871)]",[],[1],[0.7],vertical,"(890.0, 762.0)",1.2333333333333334,0.652,1,11526.069
11,False,642,"[(1075, 895)]",[],[1],[0.6666666666666666],horizontal,"(390.0, 762.0)",0.9666666666666667,0.616,1,11530.801
11,False,643,"[(1074, 899)]",[],[1],[0.6833333333333333],horizontal,"(890.0, 262.0)",1.5,0.638,1,11535.378
11,False,644,"[(1072, 881)]",[],[1],[0.5333333333333333],horizontal,"(390.0, 762.0)",0.85,0.494,1,11540.582
11,False,645,"[(1075, 890)]",[],[1],[0.5],vertical,"(390.0, 262.0)",1.3166666666666667,0.457,1,11545.382
11,False,646,"[(1072, 894)]",[],[1],[0.5166666666666666],horizontal,"(890.0, 262.0)",1.1666666666666667,0.481,1,11550.207
11,False,647,"[(1091, 903)]",[],[1],[0.6333333333333333],horizontal,"(390.0, 762.0)",1.45,0.587,1,11554.935
11,False,648,"[(1077, 896)]",[],[1],[0.48333333333333334],vertical,"(890.0, 262.0)",1.4333333333333333,0.442,1,11560.43
11,False,649,"[(1085, 902)]",[],[1],[0.5166666666666666],vertical,"(890.0, 762.0)",0.5333333333333333,0.479,1,11564.936
11,False,650,"[(1076, 890)]",[],[1],[0.26666666666666666],horizontal,"(390.0, 762.0)",1.0833333333333333,0.231,1,11568.963
11,False,651,"[(1079, 883)]",[],[1],[0.5833333333333334],vertical,"(890.0, 762.0)",0.9833333333333333,0.541,1,11572.95
11,False,652,"[(1072, 876)]",[],[1],[0.7],horizontal,"(890.0, 762.0)",1.6166666666666667,0.655,1,11577.726
11,False,653,"[(1078, 889)]",[],[1],[],horizontal,"(890.0, 262.0)",,cti_phase,0,11583.244
11,False,654,"[(1085, 876)]",[],[1],[0.65],vertical,"(890.0, 262.0)",1.3166666666666667,0.612,1,11587.277
11,False,655,"[(1091, 901)]",[],[1],[0.5666666666666667],vertical,"(390.0, 262.0)",0.8166666666666667,0.526,1,11593.095
11,False,656,"[(1097, 890)]",[],[1],[0.5833333333333334],horizontal,"(890.0, 762.0)",1.0833333333333333,0.539,1,11597.329
11,False,657,"[(1072, 895)]",[],[1],[0.5833333333333334],vertical,"(390.0, 762.0)",0.6166666666666667,0.54,1,11601.71
11,False,658,"[(1084, 902)]",[],[1],[0.6666666666666666],horizontal,"(890.0, 762.0)",1.2,0.627,1,11605.71
11,False,659,"[(1097, 872)]",[],[1],[0.55],vertical,"(890.0, 762.0)",0.5333333333333333,0.505,1,11610.574
11,False,660,"[(1105, 877)]",[],[1],[0.6833333333333333],horizontal,"(890.0, 762.0)",1.0,0.644,1,11614.643
12,False,661,"[(1067, 884)]",[],[1],[0.55],vertical,"(890.0, 762.0)",1.6333333333333333,0.511,1,11619.593
12,False,662,"[(1072, 863)]",[],[1],[0.5833333333333334],horizontal,"(890.0, 762.0)",0.5833333333333334,0.54,1,11624.732
12,False,663,"[(1070, 898)]",[],[1],[0.55],vertical,"(890.0, 262.0)",0.95,0.507,1,11628.796
12,False,664,"[(1073, 876)]",[],[1],[0.6],vertical,"(890.0, 262.0)",0.7,0.557,1,11633.507
12,False,665,"[(1082, 869)]",[],[1],[0.5333333333333333],horizontal,"(890.0, 262.0)",1.4166666666666667,0.499,1,11637.915
12,False,666,"[(1091, 882)]",[],[1],[0.36666666666666664],vertical,"(390.0, 762.0)",0.7166666666666667,0.326,1,11643.233
12,False,667,"[(1071, 869)]",[],[1],[0.6],vertical,"(890.0, 762.0)",0.9666666666666667,0.562,1,11646.802
12,False,668,"[(1098, 885)]",[],[1],[0.5833333333333334],horizontal,"(390.0, 262.0)",1.5166666666666666,0.544,1,11651.638
12,False,669,"[(1070, 890)]",[],[1],[0.65],horizontal,"(390.0, 762.0)",1.4833333333333334,0.606,1,11656.543
12,False,670,"[(1071, 886)]",[],[1],[0.6333333333333333],horizontal,"(890.0, 762.0)",0.8333333333333334,0.592,1,11661.833
12,False,671,"[(1078, 885)]",[],[1],[0.5333333333333333],horizontal,"(390.0, 762.0)",1.2333333333333334,0.491,1,11666.499
12,False,672,"[(1067, 876)]",[],[1],[0.7],vertical,"(890.0, 262.0)",1.0166666666666666,0.653,1,11943.793
12,False,673,"[(1057, 890)]",[],[1],[0.5666666666666667],vertical,"(890.0, 762.0)",1.45,0.52,1,11948.937
12,False,674,"[(1056, 908)]",[],[1],[0.5833333333333334],horizontal,"(390.0, 262.0)",1.3666666666666667,0.54,1,11956.552
12,False,675,"[(1038, 883)]",[],[1],[0.6166666666666667],vertical,"(390.0, 262.0)",0.9333333333333333,0.571,1,11961.15
12,False,676,"[(1105, 905)]",[],[1],[],horizontal,"(390.0, 762.0)",,cti_phase,0,11967.467
12,False,677,"[(1073, 890)]",[],[1],[],vertical,"(390.0, 762.0)",,cti_phase,0,11971.896
12,False,678,"[(1062, 896)]",[],[1],[0.48333333333333334],horizontal,"(890.0, 262.0)",1.6166666666666667,0.45,1,11979.016
12,False,679,"[(1076, 886)]",[],[1],[0.5333333333333333],horizontal,"(890.0, 762.0)",0.7333333333333333,0.49,1,11986.267
12,False,680,"[(1081, 901)]",[],[1],[0.5666666666666667],vertical,"(390.0, 262.0)",0.6,0.525,1,11990.118
12,False,681,"[(1078, 896)]",[],[1],[0.5],horizontal,"(890.0, 262.0)",1.3,0.462,1,11994.429
12,False,682,"[(1084, 902)]",[],[1],[0.5333333333333333],vertical,"(390.0, 762.0)",0.6833333333333333,0.493,1,11998.882
12,False,683,"[(1077, 900)]",[],[1],[0.5666666666666667],horizontal,"(390.0, 762.0)",1.1,0.523,1,12003.498
12,False,684,"[(1069, 904)]",[],[1],[0.5833333333333334],horizontal,"(390.0, 762.0)",0.8833333333333333,0.539,1,12007.989
12,False,685,"[(1082, 909)]",[],[1],[0.6833333333333333],vertical,"(890.0, 762.0)",1.25,0.645,1,12012.141
12,False,686,"[(1066, 901)]",[],[1],[0.7],vertical,"(390.0, 262.0)",0.6666666666666666,0.659,1,12016.864
12,False,687,"[(1073, 894)]",[],[1],[0.5],vertical,"(890.0, 262.0)",1.4666666666666666,0.462,1,12024.476
12,False,688,"[(1057, 902)]",[],[1],[0.55],horizontal,"(890.0, 262.0)",1.6666666666666667,0.514,1,12029.767
12,False,689,"[(1091, 896)]",[],[1],[],vertical,"(390.0, 262.0)",,cti_phase,0,12035.029
12,False,690,"[(1058, 890)]",[],[1],[0.85],horizontal,"(390.0, 262.0)",1.3333333333333333,0.801,0,12039.082
12,False,691,"[(890, 406), (898, 409), (1028, 305), (989, 291), (888, 761), (331, 912), (948, 910), (994, 910), (983, 813), (1071, 890)]","[(1028, 902)]","[0, 0, 0, 0, 0, 0, 0, 0, 0, 1]",[0.016666666666666666],horizontal,"(390.0, 762.0)",,bar_phase,0,12045.353
12,False,692,"[(1073, 890)]",[],[1],[0.4666666666666667],vertical,"(890.0, 762.0)",1.2833333333333332,0.431,1,15209.271
12,False,693,"[(523, 255), (507, 262), (517, 267), (1119, 837)]",[],"[0, 0, 0, 1]",[0.43333333333333335],horizontal,"(890.0, 262.0)",0.9,0.396,1,15235.656
12,False,694,"[(1259, 545), (1068, 899)]",[],"[0, 1]",[0.6],vertical,"(890.0, 262.0)",1.1,0.557,1,15383.63
12,False,695,"[(1069, 888)]",[],[1],[0.85],vertical,"(890.0, 262.0)",0.95,0.805,0,17187.899
12,False,696,"[(1064, 919)]",[],[1],[0.85],horizontal,"(390.0, 762.0)",0.7833333333333333,0.801,0,17192.876
12,False,697,"[(1086, 900)]",[],[1],[0.85],horizontal,"(390.0, 262.0)",1.3166666666666667,0.803,0,17702.522
12,False,698,"[(1083, 893)]",[],[1],[0.5833333333333334],vertical,"(390.0, 262.0)",1.3333333333333333,0.538,1,17710.194
12,False,699,"[(1084, 893)]",[],[1],[0.6333333333333333],horizontal,"(390.0, 762.0)",1.5333333333333332,0.592,1,17714.94
12,False,700,"[(1067, 887)]",[],[1],[0.6166666666666667],horizontal,"(890.0, 762.0)",0.5333333333333333,0.577,1,17720.157
12,False,701,"[(1073, 893)]",[],[1],[0.1],vertical,"(390.0, 762.0)",1.2666666666666666,0.067,1,17724.62
12,False,702,"[(1081, 898)]",[],[1],[0.85],horizontal,"(890.0, 262.0)",0.6833333333333333,0.796,0,17729.346
12,False,703,"[(1058, 885)]",[],[1],[0.65],vertical,"(890.0, 762.0)",0.5833333333333334,0.608,1,17733.765
12,False,704,"[(1077, 933)]",[],[1],[0.75],vertical,"(390.0, 262.0)",0.8666666666666667,0.703,1,17738.39
