block,practice,trial,trial_type,taps_start_loc_during_fix,taps_end_loc_during_fix,taps_on_lever_during_fix,taps_on_lever_s_during_fix,bar_orientation,target_xy,cti,rt,acc,time
1,True,1,target,"[(1116, 845)]",[],[1],[0.3833333333333333],vertical,"(890.0, 262.0)",0.9666666666666667,0.345,1,0.103
1,True,2,target,"[(1072, 894)]",[],[1],[0.5],vertical,"(390.0, 762.0)",0.9666666666666667,0.468,1,5.352
1,True,3,target,"[(1076, 881)]",[],[1],[0.85],vertical,"(890.0, 762.0)",1.6166666666666667,nan,0,173.098
1,True,4,target,"[(1072, 869)]",[],[1],[0.48333333333333334],vertical,"(890.0, 262.0)",1.5666666666666667,0.443,1,178.768
1,False,1,target,"[(1076, 903)]",[],[1],[0.5833333333333334],horizontal,"(890.0, 762.0)",0.85,0.542,1,183.882
1,False,2,target,"[(1072, 887)]",[],[1],[0.55],horizontal,"(890.0, 762.0)",0.55,0.512,1,188.422
1,False,3,target,"[(1072, 881)]",[],[1],[0.5166666666666666],horizontal,"(890.0, 262.0)",0.5,0.477,1,192.221
1,False,4,target,"[(1067, 871)]",[],[1],[0.5],horizontal,"(890.0, 262.0)",1.1,0.464,1,196.385
1,False,5,catch,"[(1076, 880)]",[],[1],[0.7833333333333333],vertical,"(890.0, 762.0)",1.6666666666666667,0.742,0,200.935
1,False,6,target,"[(1045, 876)]",[],[1],[0.5333333333333333],horizontal,"(890.0, 262.0)",0.55,0.493,1,206.432
1,False,7,target,"[(1072, 877)]",[],[1],[0.55],vertical,"(890.0, 762.0)",0.7833333333333333,0.507,1,211.172
1,False,8,target,"[(1086, 888)]",[],[1],[0.5833333333333334],vertical,"(390.0, 762.0)",1.1333333333333333,0.542,1,215.206
1,False,9,target,"[(1079, 882)]",[],[1],[0.6666666666666666],horizontal,"(890.0, 762.0)",0.5833333333333334,0.622,1,219.803
1,False,10,catch,"[(1076, 873)]",[],[1],[0.85],vertical,"(890.0, 262.0)",0.9333333333333333,nan,1,224.201
1,False,11,target,"[(1077, 885)]",[],[1],[0.45],horizontal,"(890.0, 762.0)",1.4333333333333333,0.411,1,229.422
1,False,12,target,"[(1076, 889)]",[],[1],[0.55],horizontal,"(390.0, 262.0)",1.15,0.508,1,238.802
1,False,13,target,"[(1071, 852)]",[],[1],[],horizontal,"(390.0, 262.0)",,cti_phase,0,243.602
1,False,14,target,"[(1081, 900)]",[],[1],[0.5166666666666666],vertical,"(390.0, 262.0)",1.0,0.476,1,251.228
1,False,15,target,"[(1072, 901)]",[],[1],[0.5],horizontal,"(890.0, 762.0)",1.1,0.461,1,263.567
1,False,16,target,"[(1076, 896)]",[],[1],[0.5166666666666666],vertical,"(890.0, 262.0)",0.9666666666666667,0.475,1,269.49
1,False,17,catch,"[(1075, 895)]",[],[1],[0.85],vertical,"(890.0, 262.0)",1.0666666666666667,nan,1,273.873
1,False,18,target,"[(1072, 888)]",[],[1],[0.55],vertical,"(390.0, 762.0)",0.7,0.511,1,278.737
1,False,19,catch,"[(1081, 895)]",[],[1],[0.6],horizontal,"(390.0, 262.0)",1.4166666666666667,0.56,0,284.151
1,False,20,target,"[(1085, 873)]",[],[1],[0.5833333333333334],vertical,"(390.0, 762.0)",1.0666666666666667,0.543,1,289.181
1,False,21,target,"[(1088, 890)]",[],[1],[0.65],horizontal,"(390.0, 762.0)",0.7833333333333333,0.612,1,294.392
1,False,22,target,"[(1072, 893)]",[],[1],[0.5333333333333333],vertical,"(890.0, 262.0)",1.6833333333333333,0.498,1,299.101
1,False,23,target,"[(1082, 901)]",[],[1],[0.5833333333333334],horizontal,"(890.0, 262.0)",0.9333333333333333,0.542,1,304.039
1,False,24,target,"[(1101, 883)]",[],[1],[0.5833333333333334],horizontal,"(890.0, 262.0)",0.9333333333333333,0.539,1,308.952
1,False,25,target,"[(1074, 859)]",[],[1],[0.35],horizontal,"(390.0, 762.0)",0.8,0.311,1,313.286
1,False,26,target,"[(1081, 890)]",[],[1],[0.6333333333333333],vertical,"(890.0, 762.0)",1.1833333333333333,0.585,1,317.242
1,False,27,target,"[(1072, 878)]",[],[1],[0.5833333333333334],vertical,"(890.0, 762.0)",0.7666666666666666,0.545,1,321.923
1,False,28,target,"[(1085, 886)]",[],[1],[0.5666666666666667],vertical,"(890.0, 762.0)",1.2833333333333332,0.524,1,326.814
1,False,29,target,"[(1067, 887)]",[],[1],[0.6],vertical,"(890.0, 762.0)",0.7833333333333333,0.553,1,331.282
1,False,30,target,"[(1072, 890)]",[],[1],[0.5166666666666666],horizontal,"(390.0, 762.0)",1.6,0.475,1,335.45
1,False,31,target,"[(1062, 902)]",[],[1],[0.5],horizontal,"(390.0, 262.0)",1.5166666666666666,0.463,1,340.232
1,False,32,target,"[(1075, 872)]",[],[1],[0.5666666666666667],horizontal,"(890.0, 762.0)",1.65,0.525,1,345.386
1,False,33,target,"[(1076, 883)]",[],[1],[0.5833333333333334],horizontal,"(890.0, 262.0)",0.5833333333333334,0.538,1,350.872
1,False,34,target,"[(1070, 871)]",[],[1],[0.5166666666666666],vertical,"(890.0, 262.0)",1.6333333333333333,0.476,1,354.892
1,False,35,target,"[(1112, 881)]",[],[1],[0.55],horizontal,"(890.0, 762.0)",0.9833333333333333,0.507,1,360.105
1,False,36,target,"[(1072, 872)]",[],[1],[0.55],vertical,"(890.0, 262.0)",0.75,0.506,1,364.634
1,False,37,target,"[(1072, 881)]",[],[1],[0.6333333333333333],horizontal,"(890.0, 762.0)",1.1666666666666667,0.595,1,368.912
1,False,38,target,"[(1075, 854)]",[],[1],[0.65],vertical,"(390.0, 262.0)",0.6166666666666667,0.601,1,373.492
1,False,39,catch,"[(1089, 888)]",[],[1],[0.85],vertical,"(890.0, 762.0)",0.6333333333333333,nan,1,377.539
1,False,40,target,"[(173, 481), (52, 481), (738, 579), (1255, 852), (1245, 872), (584, 435), (1173, 199), (474, 840), (469, 707), (387, 843), (1098, 868)]",[],"[0, 0, 0, 0, 0, 0, 0, 0, 0, 0, 1]",[0.6666666666666666],horizontal,"(890.0, 762.0)",0.5166666666666666,0.624,1,381.936
1,False,41,target,"[(1070, 860)]",[],[1],[0.06666666666666667],horizontal,"(390.0, 762.0)",1.2,0.036,1,395.601
1,False,42,target,"[(1037, 900)]",[],[1],[0.85],vertical,"(390.0, 262.0)",1.1833333333333333,"cti_phase,nan",0,399.796
1,False,43,target,"[(1062, 869)]",[],[1],[0.48333333333333334],vertical,"(890.0, 762.0)",0.9666666666666667,0.439,1,405.013
1,False,44,target,"[(1058, 901)]",[],[1],[0.8],vertical,"(890.0, 762.0)",1.05,0.751,1,409.414
1,False,45,catch,"[(469, 449), (1057, 895)]",[],"[0, 1]",[0.5],horizontal,"(890.0, 262.0)",1.0166666666666666,0.464,0,414.41
1,False,46,target,"[(1062, 874)]",[],[1],[0.5333333333333333],horizontal,"(390.0, 762.0)",0.5,0.489,1,424.283
1,False,47,target,"[(1078, 901)]",[],[1],[0.5166666666666666],horizontal,"(390.0, 762.0)",1.4833333333333334,0.473,1,428.883
1,False,48,target,"[(1052, 907)]",[],[1],[0.5833333333333334],vertical,"(890.0, 262.0)",1.3166666666666667,0.542,1,433.979
1,False,49,target,"[(1071, 905)]",[],[1],[0.5833333333333334],vertical,"(390.0, 762.0)",1.5166666666666666,0.543,1,438.536
1,False,50,target,"[(1082, 896)]",[],[1],[0.6833333333333333],vertical,"(890.0, 762.0)",0.9166666666666666,0.637,1,443.197
1,False,51,target,"[(1066, 881)]",[],[1],[0.5333333333333333],horizontal,"(890.0, 762.0)",0.8333333333333334,0.494,1,448.338
1,False,52,target,"[(1077, 877)]",[],[1],[0.85],vertical,"(890.0, 762.0)",0.8666666666666667,nan,0,452.656
1,False,53,target,"[(1097, 872)]",[],[1],[],horizontal,"(390.0, 762.0)",,fix_phase,0,457.186
1,False,54,target,"[(1101, 880)]",[],[1],[0.7333333333333333],vertical,"(390.0, 262.0)",0.7833333333333333,0.692,1,458.93
1,False,55,target,"[(1086, 859)]",[],[1],"[0.85, 0.85]",vertical,"(390.0, 762.0)",0.5,"0.807,nan",0,463.238
1,False,56,target,"[(1067, 868)]",[],[1],[0.55],vertical,"(390.0, 262.0)",1.45,0.509,1,467.413
1,False,57,target,"[(1068, 880)]",[],[1],[0.85],vertical,"(890.0, 262.0)",0.6166666666666667,nan,0,472.536
1,False,58,target,"[(1057, 874)]",[],[1],[0.85],horizontal,"(890.0, 762.0)",1.5166666666666666,nan,0,477.029
1,False,59,target,"[(1073, 862)]",[],[1],[0.85],vertical,"(890.0, 262.0)",0.5,nan,0,482.721
1,False,60,target,"[(1076, 873)]",[],[1],[0.85],vertical,"(890.0, 262.0)",0.8666666666666667,nan,0,486.937
2,False,61,target,"[(1072, 888)]",[],[1],[0.55],horizontal,"(390.0, 262.0)",0.55,0.506,1,491.922
2,False,62,target,"[(1067, 879)]",[],[1],[0.5333333333333333],vertical,"(890.0, 262.0)",0.9333333333333333,0.496,1,496.11
2,False,63,target,"[(1074, 890)]",[],[1],[0.85],vertical,"(390.0, 762.0)",1.3,nan,0,500.237
2,False,64,target,"[(1086, 890)]",[],[1],[0.85],vertical,"(890.0, 262.0)",0.6,nan,0,505.168
2,False,65,target,"[(1083, 860)]",[],[1],[0.5166666666666666],horizontal,"(390.0, 762.0)",1.4666666666666666,0.481,1,519.718
2,False,66,target,"[(1081, 907)]",[],[1],[0.3333333333333333],vertical,"(890.0, 262.0)",0.8666666666666667,0.3,1,530.835
2,False,67,target,"[(1081, 893)]",[],[1],[0.85],vertical,"(390.0, 762.0)",1.3,nan,0,535.098
2,False,68,target,"[(1080, 867)]",[],[1],[0.85],horizontal,"(390.0, 762.0)",1.05,nan,0,540.502
2,False,69,target,"[(1094, 870)]",[],[1],[0.5666666666666667],horizontal,"(890.0, 762.0)",0.7666666666666666,0.524,1,546.272
2,False,70,target,"[(1069, 890)]",[],[1],[0.85],vertical,"(890.0, 762.0)",0.6333333333333333,nan,0,550.523
2,False,71,target,"[(1060, 871)]",[],[1],[0.85],horizontal,"(390.0, 762.0)",1.55,nan,0,554.769
2,False,72,target,"[(1058, 883)]",[],[1],[0.5666666666666667],horizontal,"(390.0, 262.0)",1.1,0.528,1,560.303
2,False,73,target,"[(1072, 876)]",[],[1],[0.26666666666666666],vertical,"(390.0, 762.0)",0.95,0.234,1,568.203
2,False,74,target,"[(1076, 886)]",[],[1],[0.5166666666666666],vertical,"(390.0, 262.0)",1.2833333333333332,0.48,1,572.499
2,False,75,target,"[(1072, 873)]",[],[1],[0.48333333333333334],vertical,"(390.0, 762.0)",0.9,0.444,1,577.153
2,False,76,target,"[(1068, 864)]",[],[1],[0.5],horizontal,"(890.0, 262.0)",1.4,0.458,1,582.139
2,False,77,target,"[(1077, 881)]",[],[1],[0.85],horizontal,"(390.0, 262.0)",1.6166666666666667,nan,0,586.996
2,False,78,target,"[(1076, 876)]",[],[1],[0.5833333333333334],vertical,"(390.0, 262.0)",1.2333333333333334,0.551,1,593.02
2,False,79,catch,"[(1072, 864)]",[],[1],[0.85],vertical,"(390.0, 262.0)",0.5166666666666666,nan,1,598.019
2,False,80,target,"[(1073, 871)]",[],[1],[0.5],horizontal,"(890.0, 262.0)",1.3833333333333333,0.457,1,602.691
2,False,81,target,"[(1074, 897)]",[],[1],[0.6333333333333333],horizontal,"(390.0, 262.0)",1.0166666666666666,0.589,1,610.728
2,False,82,target,"[(1087, 898)]",[],[1],[0.5333333333333333],horizontal,"(890.0, 262.0)",1.2833333333333332,0.488,1,615.09
2,False,83,catch,"[(1069, 902)]",[],[1],[0.85],horizontal,"(390.0, 762.0)",1.1833333333333333,nan,1,619.531
2,False,84,target,"[(1066, 897)]",[],[1],[0.6166666666666667],vertical,"(390.0, 262.0)",1.35,0.58,1,624.434
2,False,85,target,"[(1076, 890)]",[],[1],[0.16666666666666666],vertical,"(390.0, 762.0)",0.9666666666666667,0.136,1,631.237
2,False,86,target,"[(1054, 896)]",[],[1],[0.85],vertical,"(890.0, 762.0)",1.4333333333333333,nan,0,635.603
2,False,87,target,"[(1058, 902)]",[],[1],[0.85],vertical,"(390.0, 262.0)",1.2666666666666666,nan,0,640.782
2,False,88,target,"[(1057, 890)]",[],[1],[0.85],horizontal,"(390.0, 762.0)",0.85,nan,0,646.362
2,False,89,target,"[(1029, 900)]",[],[1],[0.7333333333333333],horizontal,"(890.0, 262.0)",0.55,0.685,1,652.747
2,False,90,target,"[(1034, 906)]",[],[1],"[0.85, 0.85]",horizontal,"(390.0, 762.0)",0.9166666666666666,"0.805,nan",0,658.107
2,False,91,target,"[(1037, 898)]",[],[1],[0.5833333333333334],horizontal,"(390.0, 762.0)",0.6166666666666667,0.542,1,662.769
2,False,92,target,"[(1039, 909)]",[],[1],[0.65],vertical,"(390.0, 262.0)",0.5166666666666666,0.609,1,667.95
2,False,93,target,"[(1035, 902)]",[],[1],[0.6166666666666667],horizontal,"(890.0, 762.0)",0.6666666666666666,0.571,1,671.889
2,False,94,target,"[(1072, 905)]",[],[1],[0.6333333333333333],horizontal,"(890.0, 262.0)",0.55,0.592,1,676.549
2,False,95,target,"[(1067, 896)]",[],[1],[0.55],vertical,"(390.0, 762.0)",0.5666666666666667,0.506,1,680.552
2,False,96,target,"[(1071, 903)]",[],[1],[0.85],horizontal,"(890.0, 262.0)",0.8333333333333334,nan,0,684.651
2,False,97,target,"[(1080, 882)]",[],[1],[0.5833333333333334],horizontal,"(390.0, 262.0)",1.3,0.54,1,689.038
2,False,98,target,"[(1052, 898)]",[],[1],[0.5666666666666667],vertical,"(890.0, 262.0)",0.9,0.526,1,693.871
2,False,99,target,"[(1077, 901)]",[],[1],[0.5833333333333334],horizontal,"(890.0, 762.0)",0.7833333333333333,0.542,1,698.637
2,False,100,target,"[(1082, 887)]",[],[1],[0.5],vertical,"(390.0, 262.0)",1.6,0.457,1,702.791
2,False,101,target,"[(1073, 901)]",[],[1],[0.85],vertical,"(890.0, 262.0)",1.1666666666666667,nan,0,707.709
2,False,102,target,"[(1095, 872)]",[],[1],[0.55],horizontal,"(890.0, 262.0)",0.95,0.505,1,713.086
2,False,103,target,"[(1070, 915)]",[],[1],[0.15],vertical,"(890.0, 762.0)",1.5666666666666667,0.116,1,717.701
2,False,104,target,"[(1075, 911)]",[],[1],[0.6],horizontal,"(890.0, 762.0)",0.8333333333333334,0.554,1,722.787
2,False,105,target,"[(1081, 903)]",[],[1],[0.5333333333333333],horizontal,"(890.0, 262.0)",1.4333333333333333,0.489,1,727.762
2,False,106,target,"[(1060, 880)]",[],[1],[0.6],vertical,"(890.0, 762.0)",1.0,0.55,1,732.822
2,False,107,target,"[(1076, 871)]",[],[1],[0.5833333333333334],horizontal,"(390.0, 262.0)",0.9666666666666667,0.54,1,737.191
2,False,108,target,"[(1037, 883)]",[],[1],[0.6],horizontal,"(390.0, 762.0)",1.5,0.558,1,741.452
2,False,109,catch,"[(1058, 881)]",[],[1],[0.85],vertical,"(890.0, 762.0)",0.9166666666666666,nan,1,747.904
2,False,110,target,"[(1079, 864)]",[],[1],[0.85],horizontal,"(890.0, 262.0)",1.2666666666666666,nan,0,752.71
2,False,111,target,"[(1079, 860)]",[],[1],[0.5333333333333333],vertical,"(890.0, 762.0)",0.9333333333333333,0.49,1,759.716
2,False,112,target,"[(1068, 897)]",[],[1],[0.85],horizontal,"(890.0, 262.0)",1.3666666666666667,nan,0,763.867
2,False,113,target,"[(1113, 870)]",[],[1],[0.5],horizontal,"(890.0, 262.0)",0.8,0.459,1,769.088
2,False,114,target,"[(1075, 887)]",[],[1],[],horizontal,"(390.0, 262.0)",,cti_phase,0,773.266
2,False,115,target,"[(1062, 876)]",[],[1],[0.6833333333333333],horizontal,"(890.0, 262.0)",1.4666666666666666,0.641,1,777.687
2,False,116,target,"[(1076, 864)]",[],[1],[0.85],horizontal,"(890.0, 762.0)",0.55,nan,0,782.85
2,False,117,target,"[(1058, 862)]",[],[1],[0.55],horizontal,"(390.0, 762.0)",1.15,0.505,1,787.548
2,False,118,catch,"[(1076, 876)]",[],[1],[0.85],vertical,"(390.0, 262.0)",1.3166666666666667,nan,1,803.279
2,False,119,target,"[(1072, 869)]",[],[1],[],vertical,"(390.0, 262.0)",,cti_phase,0,808.301
2,False,120,target,"[(1072, 892)]",[],[1],[0.5166666666666666],horizontal,"(890.0, 762.0)",1.6333333333333333,0.483,1,812.45
3,False,121,catch,"[(1072, 908)]",[],[1],[0.85],horizontal,"(890.0, 262.0)",1.0,nan,1,817.945
3,False,122,target,"[(1110, 864)]",[],[1],[0.85],vertical,"(890.0, 262.0)",1.6833333333333333,nan,0,822.987
3,False,123,catch,"[(1072, 883)]",[],[1],[0.5],vertical,"(390.0, 762.0)",1.3333333333333333,0.462,0,831.817
3,False,124,target,"[(1072, 894)]",[],[1],[0.6333333333333333],vertical,"(890.0, 262.0)",0.5833333333333334,0.596,1,842.273
3,False,125,target,"[(1075, 874)]",[],[1],[0.85],vertical,"(390.0, 762.0)",1.3333333333333333,nan,0,846.434
3,False,126,target,"[(1073, 865)]",[],[1],[0.55],horizontal,"(890.0, 762.0)",1.6333333333333333,0.511,1,851.871
3,False,127,catch,"[(1086, 887)]",[],[1],[0.85],horizontal,"(390.0, 762.0)",1.5,nan,1,857.411
3,False,128,catch,"[(1072, 595), (1244, 570), (739, 901), (768, 612), (1078, 569), (671, 559), (932, 962), (1023, 559), (1139, 610), (787, 951), (1057, 564), (917, 945), (1060, 607), (797, 943), (1079, 884)]",[],"[0, 0, 0, 0, 0, 0, 0, 0, 0, 0, 0, 0, 0, 0, 1]",[0.85],vertical,"(890.0, 262.0)",1.5166666666666666,nan,1,862.607
3,False,129,target,"[(1089, 874)]",[],[1],[0.4666666666666667],vertical,"(390.0, 262.0)",1.0166666666666666,0.429,1,895.741
3,False,130,catch,"[(1078, 906)]",[],[1],[],horizontal,"(390.0, 762.0)",,cti_phase,0,900.263
3,False,131,target,"[(1072, 897)]",[],[1],[0.5166666666666666],horizontal,"(390.0, 262.0)",1.1833333333333333,0.48,1,904.1
3,False,132,target,"[(1091, 885)]",[],[1],[0.6333333333333333],horizontal,"(390.0, 762.0)",1.5,0.595,1,912.313
3,False,133,target,"[(1104, 888)]",[],[1],[0.55],vertical,"(890.0, 762.0)",1.0666666666666667,0.511,1,917.35
3,False,134,target,"[(1077, 862)]",[],[1],[0.5166666666666666],vertical,"(890.0, 262.0)",1.4333333333333333,0.475,1,922.096
3,False,135,target,"[(1077, 879)]",[],[1],[0.85],horizontal,"(390.0, 262.0)",1.3666666666666667,nan,0,927.037
3,False,136,catch,"[(1105, 859)]",[],[1],[0.85],horizontal,"(890.0, 262.0)",1.0666666666666667,nan,1,931.865
3,False,137,target,"[(1131, 872)]",[],[1],[0.45],horizontal,"(390.0, 762.0)",1.4333333333333333,0.414,1,936.816
3,False,138,target,"[(1089, 882)]",[],[1],[0.85],vertical,"(890.0, 262.0)",1.5333333333333332,nan,0,941.475
3,False,139,target,"[(1078, 885)]",[],[1],[0.6166666666666667],horizontal,"(390.0, 762.0)",0.6,0.575,1,946.937
3,False,140,target,"[(1092, 885)]",[],[1],[0.5166666666666666],vertical,"(390.0, 262.0)",1.5,0.478,1,951.631
3,False,141,target,"[(1062, 882)]",[],[1],[0.85],horizontal,"(890.0, 762.0)",1.3833333333333333,nan,0,956.54
3,False,142,target,"[(1091, 841)]",[],[1],[0.85],horizontal,"(390.0, 762.0)",1.1833333333333333,nan,0,961.956
3,False,143,catch,"[(1091, 869)]",[],[1],[0.85],vertical,"(390.0, 262.0)",1.05,nan,1,967.095
3,False,144,target,"[(1084, 881)]",[],[1],[0.5166666666666666],horizontal,"(890.0, 762.0)",1.3333333333333333,0.476,1,972.689
3,False,145,catch,"[(1076, 884)]",[],[1],[0.85],vertical,"(890.0, 762.0)",1.2,nan,1,982.463
3,False,146,target,"[(1087, 852)]",[],[1],[0.5666666666666667],vertical,"(890.0, 262.0)",0.9333333333333333,0.528,1,987.344
3,False,147,catch,"[(1100, 885)]",[],[1],[0.85],vertical,"(890.0, 762.0)",0.5166666666666666,nan,1,995.765
3,False,148,target,"[(1107, 890)]",[],[1],[0.7166666666666667],horizontal,"(890.0, 762.0)",0.8,0.673,1,1000.388
3,False,149,target,"[(1087, 864)]",[],[1],[0.6],vertical,"(890.0, 262.0)",1.4,0.552,1,1004.623
3,False,150,target,"[(1134, 880)]",[],[1],[0.85],vertical,"(390.0, 762.0)",1.2166666666666666,nan,0,1010.204
3,False,151,target,"[(1103, 866)]",[],[1],[0.43333333333333335],horizontal,"(390.0, 762.0)",1.4666666666666666,0.393,1,1015.45
3,False,152,target,"[(1096, 885)]",[],[1],[0.85],vertical,"(390.0, 262.0)",1.6666666666666667,nan,0,1020.086
3,False,153,target,"[(1097, 881)]",[],[1],[0.85],horizontal,"(390.0, 262.0)",0.5666666666666667,nan,0,1025.558
3,False,154,target,"[(1085, 867)]",[],[1],[0.6166666666666667],horizontal,"(390.0, 262.0)",0.7166666666666667,0.577,1,1030.123
3,False,155,target,"[(1081, 885)]",[],[1],[0.75],vertical,"(890.0, 262.0)",0.8166666666666667,0.71,1,1034.722
3,False,156,target,"[(1099, 876)]",[],[1],[0.6333333333333333],vertical,"(890.0, 262.0)",0.9833333333333333,0.594,1,1039.417
3,False,157,target,"[(1081, 885)]",[],[1],[0.75],horizontal,"(390.0, 762.0)",0.5333333333333333,0.71,1,1044.174
3,False,158,target,"[(1067, 875)]",[],[1],[0.5166666666666666],horizontal,"(890.0, 262.0)",1.65,0.478,1,1048.801
3,False,159,target,"[(1104, 891)]",[],[1],[0.6166666666666667],horizontal,"(390.0, 262.0)",0.6,0.575,1,1054.324
3,False,160,target,"[(1091, 872)]",[],[1],[0.55],vertical,"(390.0, 262.0)",0.8,0.503,1,1058.44
3,False,161,target,"[(1089, 889)]",[],[1],[0.85],horizontal,"(390.0, 262.0)",1.35,nan,0,1063.109
3,False,162,target,"[(1086, 854)]",[],[1],[0.65],vertical,"(890.0, 762.0)",1.4833333333333334,0.605,1,1068.519
3,False,163,target,"[(1084, 886)]",[],[1],[0.5833333333333334],horizontal,"(890.0, 762.0)",0.55,0.542,1,1073.384
3,False,164,target,"[(1061, 885)]",[],[1],[0.85],vertical,"(390.0, 262.0)",0.9166666666666666,nan,0,1077.385
3,False,165,target,"[(1066, 869)]",[],[1],[0.5333333333333333],vertical,"(890.0, 762.0)",0.9333333333333333,0.497,1,1082.061
3,False,166,target,"[(1072, 890)]",[],[1],[0.5666666666666667],vertical,"(890.0, 262.0)",0.7666666666666666,0.52,1,1086.373
3,False,167,catch,"[(1086, 870)]",[],[1],[0.85],vertical,"(890.0, 762.0)",1.5833333333333333,nan,1,1090.532
3,False,168,target,"[(1072, 892)]",[],[1],[0.55],vertical,"(890.0, 762.0)",1.1,0.505,1,1096.156
3,False,169,target,"[(1093, 872)]",[],[1],[0.5333333333333333],vertical,"(390.0, 762.0)",0.9666666666666667,0.485,1,1105.54
3,False,170,target,"[(1078, 879)]",[],[1],[0.4666666666666667],vertical,"(890.0, 762.0)",1.1166666666666667,0.423,1,1110.131
3,False,171,target,"[(1099, 866)]",[],[1],[0.36666666666666664],horizontal,"(890.0, 762.0)",1.65,0.332,1,1114.617
3,False,172,target,"[(1096, 885)]",[],[1],[0.5833333333333334],horizontal,"(890.0, 762.0)",1.6666666666666667,0.536,1,1119.612
3,False,173,target,"[(1081, 873)]",[],[1],[0.5333333333333333],horizontal,"(390.0, 762.0)",0.5666666666666667,0.492,1,1125.02
3,False,174,target,"[(1076, 875)]",[],[1],[],vertical,"(890.0, 762.0)",,cti_phase,0,1129.318
3,False,175,target,"[(1086, 864)]",[],[1],[0.48333333333333334],vertical,"(390.0, 762.0)",1.0666666666666667,0.447,1,1134.084
3,False,176,target,"[(1071, 878)]",[],[1],[0.48333333333333334],vertical,"(390.0, 762.0)",0.9833333333333333,0.442,1,1139.388
3,False,177,target,"[(1058, 890)]",[],[1],[0.7],horizontal,"(890.0, 262.0)",1.5333333333333332,0.653,1,1143.651
3,False,178,target,"[(1083, 863)]",[],[1],[0.5333333333333333],vertical,"(390.0, 262.0)",1.0833333333333333,0.492,1,1148.985
3,False,179,target,"[(1064, 882)]",[],[1],[0.5666666666666667],vertical,"(890.0, 762.0)",0.85,0.524,1,1153.321
3,False,180,target,"[(1090, 877)]",[],[1],[0.5333333333333333],vertical,"(390.0, 262.0)",1.25,0.493,1,1158.053
4,False,181,catch,"[(1100, 860)]",[],[1],[0.6833333333333333],horizontal,"(890.0, 762.0)",1.3666666666666667,0.637,0,1162.655
4,False,182,target,"[(1096, 881)]",[],[1],[0.5],horizontal,"(390.0, 762.0)",1.0,0.455,1,1167.627
4,False,183,target,"[(1099, 892)]",[],[1],[0.23333333333333334],vertical,"(890.0, 262.0)",1.6,0.199,1,1172.151
4,False,184,target,"[(1091, 868)]",[],[1],[0.6166666666666667],vertical,"(890.0, 762.0)",0.9,0.576,1,1177.401
4,False,185,catch,"[(1086, 867)]",[],[1],[0.85],vertical,"(390.0, 262.0)",0.9,nan,1,1182.164
4,False,186,target,"[(912, 852), (709, 596), (909, 430), (1102, 857)]",[],"[0, 0, 0, 1]",[0.55],vertical,"(390.0, 762.0)",1.55,0.504,1,1187.07
4,False,187,target,"[(1081, 892)]",[],[1],[0.55],vertical,"(890.0, 762.0)",1.3,0.508,1,1200.526
4,False,188,target,"[(1046, 842)]",[],[1],[0.55],horizontal,"(890.0, 262.0)",1.0333333333333332,0.509,1,1205.283
4,False,189,target,"[(1218, 878)]",[],[1],[0.85],vertical,"(390.0, 262.0)",0.7,nan,0,1217.952
4,False,190,target,"[(1096, 856)]",[],[1],[0.85],horizontal,"(390.0, 762.0)",0.7166666666666667,nan,0,1222.661
4,False,191,target,"[(1063, 861)]",[],[1],[0.8],vertical,"(890.0, 262.0)",1.4,0.754,1,1227.04
4,False,192,catch,"[(1101, 875)]",[],[1],[0.85],vertical,"(890.0, 262.0)",0.8166666666666667,nan,1,1232.57
4,False,193,target,"[(1082, 849)]",[],[1],[0.5333333333333333],horizontal,"(890.0, 762.0)",1.2,0.489,1,1237.043
4,False,194,target,"[(1082, 882)]",[],[1],[0.4666666666666667],horizontal,"(890.0, 762.0)",1.5833333333333333,0.424,1,1241.872
4,False,195,target,"[(882, 896), (1100, 866)]",[],"[0, 1]",[0.5],vertical,"(890.0, 262.0)",1.3833333333333333,0.46,1,1247.223
4,False,196,target,"[(1082, 883)]",[],[1],[0.5666666666666667],horizontal,"(890.0, 262.0)",1.65,0.527,1,1254.11
4,False,197,target,"[(1072, 877)]",[],[1],[0.5166666666666666],horizontal,"(390.0, 762.0)",0.7666666666666666,0.473,1,1259.03
4,False,198,target,"[(1072, 890)]",[],[1],[0.55],vertical,"(890.0, 762.0)",0.8666666666666667,0.505,1,1275.73
4,False,199,catch,"[(1072, 870)]",[],[1],[0.8166666666666667],vertical,"(390.0, 262.0)",1.4833333333333334,0.773,0,1280.434
4,False,200,target,"[(1076, 842)]",[],[1],[0.5166666666666666],horizontal,"(890.0, 262.0)",1.2833333333333332,0.481,1,1285.591
4,False,201,target,"[(1076, 888)]",[],[1],[0.55],vertical,"(390.0, 762.0)",0.5833333333333334,0.511,1,1290.675
4,False,202,target,"[(1076, 868)]",[],[1],[0.6],horizontal,"(890.0, 762.0)",0.8333333333333334,0.56,1,1294.852
4,False,203,catch,"[(1072, 883)]",[],[1],[0.6333333333333333],vertical,"(390.0, 262.0)",1.6666666666666667,0.591,0,1299.464
4,False,204,target,"[(1076, 870)]",[],[1],[0.4],horizontal,"(890.0, 762.0)",1.2333333333333334,0.368,1,1305.074
4,False,205,target,"[(1078, 886)]",[],[1],[0.5333333333333333],horizontal,"(890.0, 262.0)",1.0333333333333332,0.489,1,1310.368
4,False,206,target,"[(1076, 885)]",[],[1],[0.6666666666666666],vertical,"(890.0, 262.0)",0.95,0.629,1,1314.67
4,False,207,target,"[(1087, 893)]",[],[1],[0.5666666666666667],horizontal,"(890.0, 762.0)",0.7666666666666666,0.527,1,1319.003
4,False,208,catch,"[(1076, 910)]",[],[1],[0.3833333333333333],horizontal,"(390.0, 762.0)",1.05,0.346,0,1323.538
4,False,209,catch,"[(1076, 874)]",[],[1],[0.85],vertical,"(390.0, 262.0)",0.7,nan,1,1328.321
4,False,210,target,"[(483, 980), (445, 637), (496, 636), (422, 617), (440, 996), (625, 1005), (425, 780), (168, 684), (170, 798), (1068, 899)]",[],"[0, 0, 0, 0, 0, 0, 0, 0, 0, 1]",[0.85],horizontal,"(890.0, 262.0)",0.9,nan,0,1334.173
4,False,211,target,"[(751, 488), (647, 181), (622, 387), (719, 238), (944, 852), (239, 622), (170, 530), (430, 654), (194, 885), (522, 885), (213, 436), (425, 660), (175, 502), (165, 769), (439, 727), (542, 497), (166, 900), (170, 919), (1056, 914)]",[],"[0, 0, 0, 0, 0, 0, 0, 0, 0, 0, 0, 0, 0, 0, 0, 0, 0, 0, 1]",[0.6333333333333333],vertical,"(890.0, 262.0)",0.65,0.59,1,1465.892
4,False,212,target,"[(1077, 896)]",[],[1],[0.85],horizontal,"(890.0, 762.0)",1.1833333333333333,nan,0,1765.024
4,False,213,catch,"[(1072, 890)]",[],[1],[0.6166666666666667],vertical,"(390.0, 262.0)",1.2333333333333334,0.584,0,1769.738
4,False,214,target,"[(1041, 889)]",[],[1],[0.48333333333333334],horizontal,"(390.0, 262.0)",0.5666666666666667,0.449,1,1776.395
4,False,215,catch,"[(1055, 871)]",[],[1],[0.85],vertical,"(890.0, 262.0)",0.95,nan,1,1781.601
4,False,216,target,"[(1076, 905)]",[],[1],[0.85],vertical,"(390.0, 762.0)",0.8833333333333333,nan,0,1786.302
4,False,217,target,"[(1063, 859)]",[],[1],[0.85],horizontal,"(890.0, 762.0)",0.9166666666666666,nan,0,1791.179
4,False,218,target,"[(1100, 890)]",[],[1],[0.85],horizontal,"(890.0, 762.0)",1.0333333333333332,nan,0,1798.027
4,False,219,target,"[(1072, 868)]",[],[1],[0.85],horizontal,"(390.0, 762.0)",1.1,nan,0,1803.551
4,False,220,target,"[(1076, 868)]",[],[1],[0.85],vertical,"(390.0, 262.0)",0.7833333333333333,nan,0,1811.058
4,False,221,catch,"[(1063, 864)]",[],[1],[0.85],vertical,"(890.0, 762.0)",1.4666666666666666,nan,1,1817.376
4,False,222,target,"[(1081, 881)]",[],[1],[],horizontal,"(390.0, 262.0)",,cti_phase,0,1822.938
4,False,223,catch,"[(1107, 868)]",[],[1],[0.35],horizontal,"(890.0, 762.0)",1.0333333333333332,0.314,0,1827.601
4,False,224,target,"[(1099, 864)]",[],[1],[0.7333333333333333],horizontal,"(890.0, 262.0)",0.6,0.709,1,1832.11
4,False,225,target,"[(1102, 882)]",[],[1],[0.5666666666666667],horizontal,"(890.0, 762.0)",1.05,0.522,1,1838.007
4,False,226,target,"[(1105, 885)]",[],[1],[0.43333333333333335],horizontal,"(890.0, 762.0)",1.35,0.392,1,1842.874
4,False,227,target,"[(1120, 905)]",[],[1],[0.55],horizontal,"(890.0, 262.0)",0.7666666666666666,0.504,1,1847.516
4,False,228,target,"[(1081, 872)]",[],[1],[],vertical,"(390.0, 262.0)",,cti_phase,0,1851.863
4,False,229,target,"[(1096, 879)]",[],[1],[],vertical,"(390.0, 762.0)",,cti_phase,0,1856.562
4,False,230,target,"[(1076, 872)]",[],[1],[],horizontal,"(390.0, 762.0)",,cti_phase,0,1861.854
4,False,231,target,"[(1057, 880)]",[],[1],[0.5166666666666666],horizontal,"(890.0, 762.0)",0.6833333333333333,0.482,1,1865.834
4,False,232,target,"[(1076, 890)]",[],[1],[0.55],horizontal,"(890.0, 762.0)",1.3333333333333333,0.505,1,1870.827
4,False,233,target,"[(1077, 876)]",[],[1],[0.5333333333333333],horizontal,"(890.0, 262.0)",1.1833333333333333,0.49,1,1875.702
4,False,234,catch,"[(1081, 890)]",[],[1],[0.6],horizontal,"(890.0, 262.0)",1.3,0.565,0,1880.008
4,False,235,target,"[(1074, 856)]",[],[1],[0.6333333333333333],horizontal,"(390.0, 262.0)",0.7666666666666666,0.589,1,1885.001
4,False,236,target,"[(1076, 871)]",[],[1],[0.55],horizontal,"(890.0, 262.0)",1.4166666666666667,0.506,1,1898.432
4,False,237,target,"[(1079, 873)]",[],[1],[0.16666666666666666],horizontal,"(890.0, 262.0)",1.6333333333333333,0.136,1,1903.603
4,False,238,target,"[(1124, 886)]",[],[1],[0.7],vertical,"(390.0, 262.0)",1.0,0.655,1,1908.325
4,False,239,target,"[(1086, 896)]",[],[1],[0.5166666666666666],vertical,"(890.0, 262.0)",0.6,0.476,1,1913.04
4,False,240,target,"[(1124, 895)]",[],[1],[0.5333333333333333],vertical,"(390.0, 262.0)",0.5,0.492,1,1917.432
5,False,241,target,"[(1077, 900)]",[],[1],[0.4666666666666667],vertical,"(890.0, 262.0)",1.4833333333333334,0.423,1,1921.425
5,False,242,target,"[(1082, 850)]",[],[1],[0.4666666666666667],horizontal,"(390.0, 262.0)",0.6666666666666666,0.423,1,1926.321
5,False,243,target,"[(1095, 885)]",[],[1],[],horizontal,"(390.0, 762.0)",,cti_phase,0,1930.104
5,False,244,catch,"[(1076, 870)]",[],[1],[0.85],horizontal,"(390.0, 262.0)",0.7333333333333333,nan,1,1934.693
5,False,245,catch,"[(1079, 866)]",[],[1],[0.85],horizontal,"(890.0, 262.0)",1.1166666666666667,nan,1,1940.053
5,False,246,target,"[(1105, 881)]",[],[1],[0.5166666666666666],horizontal,"(390.0, 762.0)",0.6333333333333333,0.475,1,1946.235
5,False,247,target,"[(1076, 881)]",[],[1],[],horizontal,"(890.0, 262.0)",,fix_phase,0,1950.656
5,False,248,target,"[(854, 862), (767, 540), (941, 401), (1116, 893)]",[],"[0, 0, 0, 1]",[0.5833333333333334],horizontal,"(390.0, 762.0)",0.75,0.54,1,1952.265
5,False,249,target,"[(1085, 890)]",[],[1],[0.5166666666666666],vertical,"(890.0, 762.0)",0.6,0.471,1,3428.138
5,False,250,target,"[(1099, 898)]",[],[1],[0.7333333333333333],vertical,"(390.0, 262.0)",0.7,0.695,1,3432.512
5,False,251,target,"[(1086, 882)]",[],[1],[],horizontal,"(890.0, 262.0)",,cti_phase,0,3437.291
5,False,252,target,"[(1058, 871)]",[],[1],[0.35],vertical,"(890.0, 262.0)",1.4,0.312,1,3442.585
5,False,253,target,"[(1105, 881)]",[],[1],[],vertical,"(890.0, 762.0)",,cti_phase,0,3447.391
5,False,254,target,"[(1081, 880)]",[],[1],[0.5],vertical,"(890.0, 262.0)",1.3666666666666667,0.471,1,3451.524
5,False,255,target,"[(1105, 905)]",[],[1],[0.35],horizontal,"(890.0, 262.0)",1.1,0.317,1,3457.985
5,False,256,target,"[(1071, 876)]",[],[1],[0.5],horizontal,"(890.0, 762.0)",1.0833333333333333,0.461,1,3462.655
5,False,257,target,"[(1092, 876)]",[],[1],[0.5166666666666666],vertical,"(390.0, 262.0)",0.5833333333333334,0.483,1,3467.656
5,False,258,target,"[(1085, 883)]",[],[1],[0.4666666666666667],vertical,"(890.0, 262.0)",1.2666666666666666,0.425,1,3472.296
5,False,259,catch,"[(1115, 886)]",[],[1],[0.85],vertical,"(890.0, 762.0)",1.4166666666666667,nan,1,3477.009
5,False,260,target,"[(1099, 869)]",[],[1],[0.5666666666666667],vertical,"(390.0, 762.0)",0.5666666666666667,0.524,1,3481.943
5,False,261,target,"[(1075, 875)]",[],[1],[0.5],vertical,"(890.0, 262.0)",1.5666666666666667,0.461,1,3486.874
5,False,262,target,"[(1075, 881)]",[],[1],[0.43333333333333335],vertical,"(890.0, 762.0)",0.9333333333333333,0.399,1,3491.74
5,False,263,target,"[(1111, 882)]",[],[1],[0.5],horizontal,"(890.0, 262.0)",0.6333333333333333,0.461,1,3496.369
5,False,264,target,"[(1086, 891)]",[],[1],[0.48333333333333334],vertical,"(890.0, 762.0)",1.6666666666666667,0.442,1,3500.308
5,False,265,catch,"[(1093, 881)]",[],[1],[0.85],horizontal,"(890.0, 762.0)",1.1666666666666667,nan,1,3505.787
5,False,266,target,"[(1116, 876)]","[(1088, 888)]",[1],[0.2],horizontal,"(890.0, 262.0)",,bar_phase,0,3511.127
5,False,267,target,"[(1100, 899)]",[],[1],[0.85],horizontal,"(890.0, 762.0)",1.0166666666666666,nan,0,3513.461
5,False,268,target,"[(1105, 864)]",[],[1],[],vertical,"(890.0, 262.0)",,cti_phase,0,3519.492
5,False,269,target,"[(1100, 876)]",[],[1],[0.4666666666666667],horizontal,"(890.0, 762.0)",1.45,0.428,1,3523.518
5,False,270,target,"[(1102, 885)]",[],[1],[0.85],vertical,"(390.0, 762.0)",1.6,nan,0,3528.837
5,False,271,target,"[(1100, 863)]",[],[1],[0.5333333333333333],horizontal,"(890.0, 262.0)",0.6666666666666666,0.488,1,3534.28
5,False,272,target,"[(25, 895), (1070, 872)]",[],"[0, 1]",[0.55],horizontal,"(390.0, 762.0)",0.9166666666666666,0.514,1,3539.692
5,False,273,target,"[(1083, 888)]",[],[1],[0.5],vertical,"(890.0, 762.0)",0.7166666666666667,0.461,1,3547.322
5,False,274,target,"[(1081, 894)]",[],[1],[0.5166666666666666],horizontal,"(390.0, 762.0)",0.6666666666666666,0.479,1,3551.301
5,False,275,target,"[(1101, 887)]",[],[1],[0.55],horizontal,"(390.0, 762.0)",0.75,0.506,1,3555.708
5,False,276,target,"[(1099, 870)]",[],[1],[0.4666666666666667],horizontal,"(390.0, 762.0)",0.55,0.426,1,3560.043
5,False,277,target,"[(1081, 890)]",[],[1],[0.85],horizontal,"(890.0, 762.0)",0.6166666666666667,nan,0,3564.192
5,False,278,target,"[(32, 660), (1081, 865)]",[],"[0, 1]",[0.85],vertical,"(890.0, 762.0)",0.9333333333333333,nan,0,3568.876
5,False,279,target,"[(1057, 855)]",[],[1],[0.3],vertical,"(390.0, 762.0)",1.0833333333333333,0.268,1,3586.886
5,False,280,target,"[(1081, 876)]",[],[1],[0.6333333333333333],vertical,"(890.0, 762.0)",1.05,0.591,1,3596.038
5,False,281,target,"[(1105, 902)]",[],[1],[0.5666666666666667],vertical,"(890.0, 262.0)",1.0333333333333332,0.525,1,3612.429
5,False,282,target,"[(1081, 889)]",[],[1],[0.5],horizontal,"(890.0, 262.0)",0.9833333333333333,0.457,1,3617.134
5,False,283,target,"[(1067, 881)]",[],[1],[0.55],vertical,"(890.0, 262.0)",0.6333333333333333,0.513,1,3621.506
5,False,284,target,"[(1096, 892)]",[],[1],[],vertical,"(390.0, 762.0)",,cti_phase,0,3626.015
5,False,285,target,"[(1129, 874)]",[],[1],[],horizontal,"(390.0, 762.0)",,cti_phase,0,3630.632
5,False,286,target,"[(1103, 865)]",[],[1],[0.55],vertical,"(390.0, 262.0)",1.35,0.508,1,3635.646
5,False,287,catch,"[(1091, 886)]",[],[1],[0.85],vertical,"(390.0, 262.0)",0.9,nan,1,3641.206
5,False,288,catch,"[(1081, 890)]",[],[1],[],horizontal,"(390.0, 762.0)",,cti_phase,0,3645.808
5,False,289,target,"[(1067, 879)]",[],[1],[0.3],vertical,"(890.0, 262.0)",1.5666666666666667,0.267,1,3649.674
5,False,290,target,"[(1097, 894)]",[],[1],[0.6],horizontal,"(890.0, 262.0)",0.5333333333333333,0.554,1,3655.042
5,False,291,target,"[(1079, 890)]",[],[1],[0.6333333333333333],horizontal,"(890.0, 762.0)",0.9833333333333333,0.589,1,3658.992
5,False,292,target,"[(1066, 905)]",[],[1],[0.18333333333333332],vertical,"(390.0, 762.0)",0.8,0.153,1,3663.687
5,False,293,target,"[(1079, 882)]",[],[1],[0.45],vertical,"(390.0, 762.0)",0.5666666666666667,0.411,1,3667.8
5,False,294,target,"[(1057, 898)]",[],[1],[0.48333333333333334],horizontal,"(890.0, 762.0)",1.1833333333333333,0.442,1,3672.206
5,False,295,target,"[(1098, 900)]",[],[1],[0.5166666666666666],vertical,"(890.0, 762.0)",0.85,0.479,1,3677.11
5,False,296,target,"[(1063, 878)]",[],[1],[0.4666666666666667],horizontal,"(890.0, 262.0)",0.7,0.426,1,3681.11
5,False,297,target,"[(1069, 895)]",[],[1],[],vertical,"(390.0, 262.0)",,cti_phase,0,3690.694
5,False,298,target,"[(1067, 890)]",[],[1],[0.5166666666666666],horizontal,"(890.0, 762.0)",0.6833333333333333,0.472,1,3694.604
5,False,299,catch,"[(1067, 893)]",[],[1],[0.8333333333333334],vertical,"(890.0, 262.0)",1.2666666666666666,0.788,0,3699.694
5,False,300,target,"[(1051, 890)]",[],[1],[0.4],vertical,"(390.0, 762.0)",0.9333333333333333,0.359,1,3704.772
6,False,301,target,"[(1096, 890)]",[],[1],[0.55],horizontal,"(890.0, 262.0)",0.8166666666666667,0.51,1,3709.524
6,False,302,catch,"[(1057, 897)]",[],[1],[0.26666666666666666],vertical,"(390.0, 762.0)",1.4666666666666666,0.233,0,3713.776
6,False,303,target,"[(1067, 872)]",[],[1],[],horizontal,"(890.0, 262.0)",,cti_phase,0,3718.437
6,False,304,target,"[(1097, 883)]",[],[1],[0.55],horizontal,"(390.0, 262.0)",0.6333333333333333,0.513,1,3724.094
6,False,305,target,"[(1082, 881)]",[],[1],[0.55],vertical,"(890.0, 762.0)",1.6333333333333333,0.508,1,3728.124
6,False,306,catch,"[(1033, 891)]",[],[1],[0.8166666666666667],vertical,"(890.0, 262.0)",1.6166666666666667,0.773,0,3733.391
6,False,307,catch,"[(1083, 869)]",[],[1],[0.85],vertical,"(390.0, 762.0)",0.7,nan,1,3739.002
6,False,308,target,"[(570, 115), (1083, 130), (880, 281), (1096, 142), (1057, 46), (1087, 876)]",[],"[0, 0, 0, 0, 0, 1]",[0.5833333333333334],vertical,"(890.0, 262.0)",1.1833333333333333,0.543,1,3743.625
6,False,309,target,"[(647, 89), (636, 72), (944, 132), (1092, 858)]",[],"[0, 0, 0, 1]",[0.31666666666666665],vertical,"(890.0, 262.0)",0.5333333333333333,0.289,1,3750.923
6,False,310,target,"[(706, 896), (1100, 70), (1070, 51), (637, 113), (708, 113), (1046, 868)]",[],"[0, 0, 0, 0, 0, 1]",[],vertical,"(390.0, 762.0)",,cti_phase,0,3757.906
6,False,311,target,"[(1100, 895)]",[],[1],[0.5833333333333334],vertical,"(390.0, 262.0)",0.7333333333333333,0.544,1,3781.694
6,False,312,target,"[(1065, 883)]",[],[1],[0.55],horizontal,"(390.0, 262.0)",0.5166666666666666,0.513,1,3785.854
6,False,313,target,"[(1069, 890)]",[],[1],[0.2833333333333333],horizontal,"(890.0, 762.0)",1.5166666666666666,0.251,1,3790.3
6,False,314,target,"[(1067, 895)]",[],[1],[],horizontal,"(390.0, 262.0)",,cti_phase,0,3795.154
6,False,315,target,"[(1062, 877)]",[],[1],[0.5166666666666666],horizontal,"(390.0, 262.0)",0.85,0.479,1,3799.604
6,False,316,target,"[(1045, 898)]",[],[1],[0.25],horizontal,"(890.0, 262.0)",1.35,0.215,1,3804.806
6,False,317,catch,"[(1052, 876)]",[],[1],[],vertical,"(390.0, 762.0)",,cti_phase,0,3809.322
6,False,318,target,"[(1058, 890)]",[],[1],[0.85],vertical,"(390.0, 762.0)",0.9333333333333333,"cti_phase,nan",0,3813.329
6,False,319,target,"[(1049, 876)]",[],[1],[0.85],horizontal,"(390.0, 762.0)",0.8,nan,0,3817.806
6,False,320,target,"[(1054, 906)]",[],[1],[0.5166666666666666],vertical,"(890.0, 762.0)",1.0666666666666667,0.477,1,3822.63
6,False,321,target,"[(1082, 885)]",[],[1],[0.6833333333333333],vertical,"(890.0, 262.0)",0.6,0.645,1,3828.711
6,False,322,target,"[(1085, 889)]",[],[1],[0.5666666666666667],horizontal,"(890.0, 762.0)",0.7,0.527,1,3833.28
6,False,323,target,"[(1034, 873)]",[],[1],[0.85],horizontal,"(390.0, 262.0)",0.85,nan,0,3837.341
6,False,324,target,"[(1056, 891)]",[],[1],[0.5],vertical,"(390.0, 262.0)",0.9166666666666666,0.462,1,3842.095
6,False,325,target,"[(1023, 885)]",[],[1],[0.11666666666666667],vertical,"(390.0, 262.0)",1.5333333333333332,0.087,1,3860.2
6,False,326,target,"[(1065, 887)]",[],[1],[0.5166666666666666],horizontal,"(890.0, 762.0)",0.7666666666666666,0.479,1,3865.177
6,False,327,target,"[(1068, 906)]",[],[1],[0.5666666666666667],horizontal,"(390.0, 762.0)",0.6333333333333333,0.525,1,3869.491
6,False,328,target,"[(1071, 910)]",[],[1],[0.55],horizontal,"(890.0, 762.0)",0.8333333333333334,0.521,1,3873.876
6,False,329,target,"[(1073, 890)]",[],[1],[],horizontal,"(390.0, 262.0)",,cti_phase,0,3878.394
6,False,330,target,"[(1073, 885)]",[],[1],[0.5333333333333333],vertical,"(390.0, 762.0)",0.6,0.497,1,3882.988
6,False,331,target,"[(1076, 899)]",[],[1],[0.5333333333333333],horizontal,"(890.0, 762.0)",0.65,0.501,1,3887.138
6,False,332,target,"[(1068, 885)]",[],[1],[0.05],vertical,"(890.0, 762.0)",1.2166666666666666,0.02,1,3891.338
6,False,333,catch,"[(1072, 880)]",[],[1],[0.85],horizontal,"(890.0, 262.0)",1.0,nan,1,3895.328
6,False,334,target,"[(1072, 900)]",[],[1],[],vertical,"(890.0, 262.0)",,cti_phase,0,3900.58
6,False,335,target,"[(1071, 885)]",[],[1],[],vertical,"(890.0, 262.0)",,cti_phase,0,3904.112
6,False,336,target,"[(1070, 859)]",[],[1],[0.5166666666666666],horizontal,"(890.0, 762.0)",0.8166666666666667,0.482,1,3908.707
6,False,337,catch,"[(1072, 886)]",[],[1],[0.5],vertical,"(390.0, 262.0)",1.3333333333333333,0.469,0,3913.405
6,False,338,target,"[(1072, 871)]",[],[1],[],horizontal,"(890.0, 262.0)",,cti_phase,0,3918.278
6,False,339,catch,"[(1072, 887)]",[],[1],[0.43333333333333335],vertical,"(390.0, 262.0)",1.0333333333333332,0.395,0,3922.227
6,False,340,catch,"[(1071, 860)]",[],[1],[0.85],vertical,"(890.0, 262.0)",0.6333333333333333,nan,1,3926.948
6,False,341,target,"[(1077, 883)]",[],[1],[0.5166666666666666],horizontal,"(390.0, 762.0)",1.0666666666666667,0.478,1,3931.562
6,False,342,target,"[(1100, 880)]",[],[1],[],horizontal,"(390.0, 762.0)",,cti_phase,0,3936.5
6,False,343,catch,"[(1072, 885)]",[],[1],[0.2],horizontal,"(890.0, 762.0)",1.5666666666666667,0.164,0,3940.324
6,False,344,target,"[(1072, 894)]",[],[1],[0.5],horizontal,"(890.0, 762.0)",0.8666666666666667,0.465,1,3960.949
6,False,345,target,"[(1072, 904)]",[],[1],[0.55],vertical,"(890.0, 262.0)",0.5666666666666667,0.51,1,3965.282
6,False,346,target,"[(1072, 885)]",[],[1],[0.35],horizontal,"(390.0, 262.0)",1.0833333333333333,0.311,1,3970.028
6,False,347,target,"[(1071, 869)]",[],[1],[0.5166666666666666],horizontal,"(390.0, 762.0)",0.8333333333333334,0.474,1,3974.84
6,False,348,target,"[(1072, 896)]",[],[1],[0.4666666666666667],vertical,"(890.0, 262.0)",0.7833333333333333,0.429,1,3979.806
6,False,349,target,"[(1072, 876)]",[],[1],[],vertical,"(390.0, 762.0)",,cti_phase,0,3984.488
6,False,350,target,"[(1071, 873)]",[],[1],[0.15],vertical,"(890.0, 762.0)",1.3666666666666667,0.118,1,3988.387
6,False,351,target,"[(1073, 876)]",[],[1],[0.5166666666666666],vertical,"(890.0, 762.0)",0.95,0.484,1,3993.107
6,False,352,target,"[(1072, 889)]",[],[1],[0.5166666666666666],horizontal,"(890.0, 762.0)",0.5333333333333333,0.474,1,3997.986
6,False,353,target,"[(1072, 863)]",[],[1],[0.5333333333333333],horizontal,"(890.0, 262.0)",1.1833333333333333,0.488,1,4002.124
6,False,354,target,"[(1071, 881)]",[],[1],[0.08333333333333333],vertical,"(390.0, 262.0)",1.0666666666666667,0.054,1,4006.588
6,False,355,catch,"[(1074, 877)]",[],[1],[0.5833333333333334],vertical,"(390.0, 762.0)",1.25,0.536,0,4010.423
6,False,356,target,"[(1071, 888)]",[],[1],[0.4166666666666667],vertical,"(890.0, 262.0)",1.0333333333333332,0.381,1,4015.229
6,False,357,target,"[(1077, 870)]",[],[1],[0.08333333333333333],horizontal,"(390.0, 262.0)",1.55,0.051,1,4019.877
6,False,358,target,"[(1072, 881)]",[],[1],[0.15],vertical,"(390.0, 762.0)",1.2166666666666666,0.115,1,4024.393
6,False,359,target,"[(1072, 885)]",[],[1],[0.4666666666666667],horizontal,"(890.0, 262.0)",1.4166666666666667,0.424,1,4028.805
6,False,360,target,"[(1077, 885)]",[],[1],[],vertical,"(390.0, 762.0)",,cti_phase,0,4033.587
7,False,361,target,"[(1072, 879)]",[],[1],[0.4666666666666667],horizontal,"(890.0, 262.0)",1.2,0.428,1,4037.839
7,False,362,target,"[(1072, 883)]",[],[1],[0.48333333333333334],horizontal,"(390.0, 262.0)",0.5166666666666666,0.445,1,4042.806
7,False,363,target,"[(1072, 864)]",[],[1],[0.5166666666666666],vertical,"(890.0, 262.0)",0.85,0.474,1,4047.007
7,False,364,catch,"[(1072, 873)]",[],[1],[],vertical,"(390.0, 762.0)",,cti_phase,0,4051.437
7,False,365,target,"[(1072, 881)]",[],[1],[0.3],vertical,"(890.0, 762.0)",1.5833333333333333,0.27,1,4055.559
7,False,366,target,"[(1072, 882)]",[],[1],[0.2],vertical,"(890.0, 762.0)",0.95,0.165,1,4061.922
7,False,367,target,"[(1072, 880)]",[],[1],[0.5],vertical,"(390.0, 762.0)",1.45,0.462,1,4066.127
7,False,368,target,"[(1071, 878)]",[],[1],[0.43333333333333335],horizontal,"(890.0, 262.0)",1.5666666666666667,0.393,1,4071.186
7,False,369,catch,"[(1071, 887)]",[],[1],[0.21666666666666667],vertical,"(890.0, 262.0)",1.0166666666666666,0.181,0,4077.992
7,False,370,target,"[(1068, 855)]",[],[1],[0.6],vertical,"(890.0, 762.0)",1.0333333333333332,0.556,1,4082.206
7,False,371,target,"[(1072, 871)]",[],[1],[0.45],horizontal,"(890.0, 262.0)",1.2,0.413,1,4088.073
7,False,372,target,"[(1072, 881)]",[],[1],[0.13333333333333333],horizontal,"(390.0, 262.0)",1.6,0.101,1,4092.974
7,False,373,target,"[(1097, 872)]",[],[1],[0.55],vertical,"(390.0, 762.0)",0.75,0.51,1,4097.74
7,False,374,target,"[(1071, 881)]",[],[1],[0.5333333333333333],horizontal,"(890.0, 762.0)",1.3333333333333333,0.489,1,4102.001
7,False,375,target,"[(1068, 875)]",[],[1],[0.5666666666666667],vertical,"(890.0, 762.0)",1.0166666666666666,0.531,1,4107.138
7,False,376,target,"[(1071, 900)]",[],[1],[0.5833333333333334],horizontal,"(890.0, 262.0)",0.7833333333333333,0.555,1,4111.589
7,False,377,target,"[(1072, 875)]",[],[1],[0.5833333333333334],horizontal,"(390.0, 262.0)",0.7166666666666667,0.536,1,4116.121
7,False,378,catch,"[(1096, 898)]",[],[1],[0.6166666666666667],horizontal,"(890.0, 262.0)",1.6,0.578,0,4120.183
7,False,379,target,"[(1072, 868)]",[],[1],[0.5],horizontal,"(390.0, 262.0)",1.4166666666666667,0.459,1,4125.656
7,False,380,target,"[(1074, 878)]",[],[1],[],vertical,"(390.0, 762.0)",,cti_phase,0,4130.773
7,False,381,target,"[(1096, 866)]",[],[1],[0.5333333333333333],vertical,"(890.0, 262.0)",0.6,0.493,1,4135.243
7,False,382,target,"[(1096, 884)]",[],[1],[0.5666666666666667],horizontal,"(890.0, 762.0)",1.1666666666666667,0.522,1,4139.673
7,False,383,target,"[(1071, 886)]",[],[1],[0.4666666666666667],horizontal,"(390.0, 262.0)",1.5166666666666666,0.427,1,4144.688
7,False,384,target,"[(1072, 885)]",[],[1],[0.55],vertical,"(390.0, 262.0)",1.1833333333333333,0.51,1,4150.044
7,False,385,target,"[(1097, 861)]",[],[1],[0.3833333333333333],vertical,"(890.0, 762.0)",1.2666666666666666,0.346,1,4154.996
7,False,386,target,"[(1072, 889)]",[],[1],[0.5],vertical,"(890.0, 262.0)",1.0,0.468,1,4160.046
7,False,387,target,"[(1072, 877)]",[],[1],[0.6666666666666666],horizontal,"(890.0, 262.0)",0.5333333333333333,0.619,1,4164.405
7,False,388,target,"[(1072, 890)]",[],[1],[0.16666666666666666],horizontal,"(390.0, 262.0)",0.9666666666666667,0.131,1,4168.942
7,False,389,catch,"[(1072, 878)]",[],[1],[0.43333333333333335],vertical,"(890.0, 762.0)",1.6,0.402,0,4173.275
7,False,390,target,"[(1095, 863)]",[],[1],[0.5666666666666667],vertical,"(390.0, 262.0)",1.5833333333333333,0.527,1,4178.655
7,False,391,target,"[(1072, 878)]",[],[1],[0.6],horizontal,"(390.0, 762.0)",1.2166666666666666,0.556,1,4183.676
7,False,392,target,"[(1077, 910)]",[],[1],[0.45],horizontal,"(890.0, 262.0)",1.5666666666666667,0.41,1,4188.102
7,False,393,target,"[(1072, 865)]",[],[1],[0.6166666666666667],vertical,"(890.0, 262.0)",1.05,0.573,1,4193.177
7,False,394,target,"[(1072, 865)]",[],[1],[0.7166666666666667],horizontal,"(890.0, 762.0)",1.45,0.675,1,4197.924
7,False,395,target,"[(1076, 860)]",[],[1],[0.4166666666666667],vertical,"(390.0, 762.0)",1.4666666666666666,0.381,1,4202.975
7,False,396,target,"[(1072, 871)]",[],[1],[0.5166666666666666],horizontal,"(890.0, 262.0)",1.4666666666666666,0.482,1,4207.795
7,False,397,target,"[(1072, 884)]",[],[1],[0.5],vertical,"(890.0, 262.0)",0.7833333333333333,0.463,1,4213.177
7,False,398,target,"[(1098, 873)]",[],[1],[0.55],horizontal,"(390.0, 262.0)",1.3,0.509,1,4217.033
7,False,399,target,"[(1075, 863)]",[],[1],[0.5333333333333333],vertical,"(390.0, 262.0)",1.65,0.496,1,4222.237
7,False,400,target,"[(1072, 863)]",[],[1],[0.1],horizontal,"(390.0, 262.0)",1.4333333333333333,0.067,1,4227.088
7,False,401,target,"[(1086, 868)]",[],[1],[0.55],horizontal,"(890.0, 262.0)",1.65,0.507,1,4231.738
7,False,402,target,"[(1072, 874)]",[],[1],[],horizontal,"(390.0, 762.0)",,cti_phase,0,4236.642
7,False,403,target,"[(1097, 868)]",[],[1],[0.6833333333333333],vertical,"(390.0, 262.0)",0.6333333333333333,0.638,1,4241.147
7,False,404,target,"[(1071, 883)]",[],[1],[0.7],horizontal,"(890.0, 762.0)",1.6,0.656,1,4245.249
7,False,405,target,"[(1072, 872)]",[],[1],[0.55],horizontal,"(390.0, 262.0)",1.05,0.509,1,4250.937
7,False,406,target,"[(1100, 867)]",[],[1],[0.6166666666666667],vertical,"(890.0, 762.0)",1.3833333333333333,0.578,1,4255.421
7,False,407,target,"[(1093, 872)]",[],[1],[0.5666666666666667],vertical,"(390.0, 762.0)",1.0833333333333333,0.527,1,4260.459
7,False,408,target,"[(1071, 887)]",[],[1],[0.08333333333333333],horizontal,"(390.0, 262.0)",1.65,0.051,1,4264.799
7,False,409,target,"[(1071, 887)]",[],[1],[0.55],horizontal,"(890.0, 762.0)",0.8333333333333334,0.508,1,4269.723
7,False,410,target,"[(1100, 867)]",[],[1],[0.5666666666666667],horizontal,"(890.0, 762.0)",1.55,0.531,1,4274.598
7,False,411,target,"[(1074, 885)]",[],[1],[0.5],vertical,"(890.0, 262.0)",1.5166666666666666,0.461,1,4279.685
7,False,412,target,"[(1068, 876)]",[],[1],[0.5666666666666667],vertical,"(890.0, 762.0)",1.4,0.533,1,4284.475
7,False,413,target,"[(1072, 881)]",[],[1],[0.5333333333333333],horizontal,"(890.0, 262.0)",1.4,0.496,1,4289.544
7,False,414,target,"[(1072, 890)]",[],[1],[0.5666666666666667],horizontal,"(890.0, 762.0)",1.45,0.527,1,4294.899
7,False,415,target,"[(1072, 888)]",[],[1],[0.85],vertical,"(390.0, 262.0)",1.2666666666666666,nan,0,4299.974
7,False,416,target,"[(1067, 855)]",[],[1],[0.4666666666666667],vertical,"(390.0, 262.0)",1.6333333333333333,0.425,1,4305.015
7,False,417,catch,"[(1072, 896)]",[],[1],[0.85],vertical,"(890.0, 262.0)",0.5333333333333333,nan,1,4310.304
7,False,418,target,"[(705, 678), (391, 689), (718, 430), (382, 427), (384, 434), (1063, 872)]",[],"[0, 0, 0, 0, 0, 1]",[0.85],vertical,"(890.0, 762.0)",0.5666666666666667,nan,0,4315.011
7,False,419,target,"[(724, 689), (664, 641), (1076, 890)]",[],"[0, 0, 1]",[],horizontal,"(390.0, 762.0)",,cti_phase,0,4694.633
7,False,420,target,"[(1059, 892)]",[],[1],[0.85],horizontal,"(390.0, 262.0)",1.3333333333333333,nan,0,7924.749
8,False,421,target,"[(1089, 910)]",[],[1],[0.85],vertical,"(890.0, 262.0)",0.7,nan,0,7930.361
8,False,422,target,"[(1085, 890)]",[],[1],[0.85],vertical,"(890.0, 762.0)",1.25,nan,0,7983.913
8,False,423,target,"[(1072, 903)]",[],[1],[0.5],horizontal,"(890.0, 262.0)",0.6,0.462,1,8065.233
8,False,424,target,"[(1060, 890)]",[],[1],[0.5],vertical,"(390.0, 262.0)",1.05,0.469,1,8089.075
8,False,425,catch,"[(1084, 880)]",[],[1],[0.6],vertical,"(390.0, 762.0)",0.8166666666666667,0.56,0,8093.893
8,False,426,target,"[(1104, 878)]",[],[1],[0.43333333333333335],horizontal,"(890.0, 262.0)",0.95,0.395,1,8098.249
8,False,427,target,"[(1082, 890)]",[],[1],[0.31666666666666665],vertical,"(390.0, 262.0)",0.8,0.28,1,8102.764
8,False,428,target,"[(1076, 901)]",[],[1],[0.48333333333333334],horizontal,"(390.0, 762.0)",0.8166666666666667,0.442,1,8106.86
8,False,429,catch,"[(1076, 910)]",[],[1],[0.85],horizontal,"(890.0, 762.0)",0.9166666666666666,nan,1,8111.478
8,False,430,target,"[(469, 612), (262, 881), (493, 617), (353, 540), (244, 679), (268, 675), (266, 694), (260, 682), (695, 876), (1072, 892)]",[],"[0, 0, 0, 0, 0, 0, 0, 0, 0, 1]",[0.85],horizontal,"(890.0, 262.0)",1.5166666666666666,nan,0,8116.58
8,False,431,target,"[(262, 722), (1071, 883)]",[],"[0, 1]",[],vertical,"(390.0, 262.0)",,cti_phase,0,8212.866
8,False,432,target,"[(1062, 896)]",[],[1],[0.26666666666666666],vertical,"(390.0, 762.0)",1.1,0.233,1,8250.595
8,False,433,target,"[(1070, 911)]",[],[1],[],horizontal,"(890.0, 762.0)",,cti_phase,0,8256.084
8,False,434,target,"[(1078, 870)]",[],[1],[0.48333333333333334],vertical,"(890.0, 762.0)",1.1666666666666667,0.443,1,8260.564
8,False,435,target,"[(1080, 882)]",[],[1],[0.45],horizontal,"(890.0, 262.0)",1.1333333333333333,0.418,1,8272.173
8,False,436,target,"[(1081, 881)]",[],[1],[],vertical,"(390.0, 262.0)",,cti_phase,0,8276.54
8,False,437,target,"[(1082, 888)]",[],[1],[0.5],horizontal,"(890.0, 262.0)",0.7,0.461,1,8280.282
8,False,438,target,"[(1077, 889)]",[],[1],[0.4666666666666667],horizontal,"(390.0, 262.0)",1.1,0.428,1,8285.531
8,False,439,target,"[(1072, 905)]",[],[1],[0.48333333333333334],vertical,"(890.0, 762.0)",0.85,0.446,1,8289.978
8,False,440,target,"[(1081, 896)]",[],[1],[0.48333333333333334],horizontal,"(390.0, 762.0)",1.0666666666666667,0.442,1,8293.926
8,False,441,target,"[(1079, 900)]",[],[1],[],horizontal,"(890.0, 262.0)",,cti_phase,0,8298.982
8,False,442,catch,"[(1102, 885)]",[],[1],[0.85],horizontal,"(890.0, 762.0)",1.2,nan,1,8303.054
8,False,443,target,"[(1086, 894)]",[],[1],[0.48333333333333334],horizontal,"(390.0, 262.0)",0.5666666666666667,0.441,1,8308.763
8,False,444,target,"[(1081, 902)]",[],[1],[],vertical,"(390.0, 262.0)",,cti_phase,0,8315.398
8,False,445,target,"[(1081, 877)]",[],[1],[0.5166666666666666],vertical,"(890.0, 762.0)",0.6833333333333333,0.478,1,8319.888
8,False,446,target,"[(1098, 880)]",[],[1],[0.48333333333333334],vertical,"(390.0, 762.0)",1.25,0.444,1,8323.823
8,False,447,target,"[(1081, 891)]",[],[1],[],horizontal,"(390.0, 762.0)",,cti_phase,0,8328.328
8,False,448,target,"[(1086, 873)]",[],[1],[],vertical,"(390.0, 762.0)",,cti_phase,0,8332.555
8,False,449,catch,"[(1099, 879)]",[],[1],[0.85],vertical,"(890.0, 262.0)",1.4,nan,1,8338.198
8,False,450,catch,"[(1129, 886)]",[],[1],[0.5666666666666667],horizontal,"(390.0, 762.0)",0.5,0.524,0,8343.566
8,False,451,target,"[(1081, 887)]",[],[1],[0.5],horizontal,"(890.0, 762.0)",1.1,0.459,1,8349.575
8,False,452,target,"[(1106, 895)]",[],[1],[0.55],horizontal,"(890.0, 762.0)",1.6333333333333333,0.511,1,8353.964
8,False,453,target,"[(1100, 891)]",[],[1],[0.48333333333333334],horizontal,"(890.0, 762.0)",1.6,0.448,1,8358.798
8,False,454,target,"[(1098, 891)]",[],[1],[0.5],vertical,"(390.0, 262.0)",0.65,0.464,1,8364.022
8,False,455,target,"[(1076, 888)]",[],[1],[0.5166666666666666],horizontal,"(390.0, 262.0)",1.4833333333333334,0.471,1,8368.344
8,False,456,target,"[(1081, 877)]",[],[1],[0.45],horizontal,"(890.0, 762.0)",1.6666666666666667,0.412,1,8373.346
8,False,457,catch,"[(1095, 895)]",[],[1],[0.85],vertical,"(890.0, 262.0)",0.8833333333333333,nan,1,8379.6
8,False,458,target,"[(1102, 885)]",[],[1],[0.48333333333333334],vertical,"(390.0, 762.0)",1.3,0.44,1,8384.597
8,False,459,target,"[(1096, 886)]",[],[1],[0.4],vertical,"(890.0, 262.0)",1.6666666666666667,0.363,1,8389.165
8,False,460,target,"[(1082, 878)]",[],[1],[0.5],vertical,"(390.0, 262.0)",1.0833333333333333,0.456,1,8394.288
8,False,461,target,"[(1081, 884)]",[],[1],[0.5],horizontal,"(890.0, 762.0)",1.2666666666666666,0.463,1,8399.084
8,False,462,target,"[(1076, 876)]",[],[1],[0.5166666666666666],vertical,"(890.0, 262.0)",0.95,0.475,1,8420.859
8,False,463,target,"[(1096, 891)]",[],[1],[0.5333333333333333],vertical,"(890.0, 762.0)",1.6166666666666667,0.489,1,8425.463
8,False,464,catch,"[(1079, 893)]",[],[1],[0.13333333333333333],horizontal,"(390.0, 762.0)",1.6833333333333333,0.1,0,8430.385
8,False,465,target,"[(1076, 889)]",[],[1],[0.48333333333333334],vertical,"(390.0, 762.0)",0.7166666666666667,0.443,1,8435.347
8,False,466,target,"[(1088, 882)]",[],[1],[],horizontal,"(390.0, 762.0)",,cti_phase,0,8442.129
8,False,467,target,"[(1100, 889)]",[],[1],[0.43333333333333335],horizontal,"(390.0, 262.0)",1.6666666666666667,0.394,1,8446.38
8,False,468,target,"[(1086, 892)]",[],[1],[0.45],vertical,"(890.0, 762.0)",1.3,0.41,1,8451.478
8,False,469,target,"[(1081, 893)]","[(1070, 892)]",[1],[0.31666666666666665],horizontal,"(890.0, 262.0)",,bar_phase,0,8456.229
8,False,470,target,"[(1072, 919)]",[],[1],[0.65],horizontal,"(890.0, 762.0)",0.55,0.609,1,8458.6
8,False,471,target,"[(1081, 895)]",[],[1],[0.7666666666666666],vertical,"(890.0, 262.0)",1.2,0.726,1,9895.197
8,False,472,target,"[(1018, 694), (1139, 826)]",[],"[0, 1]",[],horizontal,"(890.0, 262.0)",,fix_phase,0,9900.449
8,False,473,target,"[(1172, 948), (1182, 829)]",[],"[0, 1]",[],vertical,"(890.0, 262.0)",,fix_phase,0,9902.633
8,False,474,target,"[(766, 958), (1168, 964), (1196, 985), (1202, 770)]",[],"[0, 0, 0, 1]",[],horizontal,"(390.0, 762.0)",,fix_phase,0,9904.697
8,False,475,catch,"[(1249, 828), (1212, 982), (1100, 962), (1067, 867)]",[],"[0, 0, 0, 1]",[],vertical,"(890.0, 262.0)",,fix_phase,0,9907.429
8,False,476,target,"[(1203, 967), (1091, 785)]",[],"[0, 1]",[],vertical,"(390.0, 762.0)",,fix_phase,0,9910.704
8,False,477,target,"[(888, 742), (1091, 737), (1135, 699), (1188, 862)]",[],"[0, 0, 0, 1]",[],vertical,"(390.0, 762.0)",,fix_phase,0,9913.295
8,False,478,target,"[(1153, 948), (1224, 996), (1216, 1001), (1126, 703), (917, 732), (1124, 794)]",[],"[0, 0, 0, 0, 0, 1]",[],horizontal,"(390.0, 262.0)",,fix_phase,0,9917.797
8,False,479,target,"[(1155, 831)]",[],[1],[],vertical,"(890.0, 762.0)",,fix_phase,0,9924.488
8,False,480,target,"[(1192, 962), (1009, 962), (1216, 910)]","[(1216, 903)]","[0, 0, 1]",[0.03333333333333333],horizontal,"(890.0, 762.0)",,bar_phase,0,9926.637
9,False,481,target,"[(781, 729), (821, 756), (795, 915), (1180, 842)]",[],"[0, 0, 0, 1]",[],horizontal,"(390.0, 762.0)",,fix_phase,0,9937.948
9,False,482,target,"[(1086, 847)]",[],[1],[0.85],horizontal,"(390.0, 262.0)",1.3166666666666667,nan,0,10008.595
9,False,483,catch,"[(1089, 910)]",[],[1],[0.6166666666666667],vertical,"(890.0, 762.0)",1.0833333333333333,0.58,0,10082.365
9,False,484,target,"[(917, 924), (853, 126), (468, 485), (744, 281), (893, 361), (872, 334), (695, 358), (740, 444), (642, 457), (874, 310), (671, 306), (440, 349), (16, 454), (746, 127), (864, 337), (912, 334), (744, 349), (729, 353), (744, 432), (908, 396), (989, 353), (692, 349), (686, 488), (907, 353), (700, 503), (503, 579), (517, 603), (734, 579), (527, 622), (1073, 883)]",[],"[0, 0, 0, 0, 0, 0, 0, 0, 0, 0, 0, 0, 0, 0, 0, 0, 0, 0, 0, 0, 0, 0, 0, 0, 0, 0, 0, 0, 0, 1]",[0.85],horizontal,"(390.0, 762.0)",1.5166666666666666,nan,0,10253.12
9,False,485,target,"[(1072, 881)]",[],[1],[0.5],vertical,"(890.0, 762.0)",0.9833333333333333,0.455,1,10637.02
9,False,486,target,"[(1081, 890)]",[],[1],[0.55],horizontal,"(890.0, 762.0)",0.95,0.507,1,10642.387
9,False,487,target,"[(1081, 899)]",[],[1],[0.48333333333333334],vertical,"(890.0, 262.0)",1.0,0.439,1,10647.119
9,False,488,target,"[(1100, 885)]",[],[1],[0.5],vertical,"(890.0, 762.0)",0.6833333333333333,0.458,1,10651.865
9,False,489,target,"[(1115, 892)]",[],[1],[0.4666666666666667],horizontal,"(390.0, 762.0)",1.35,0.426,1,10656.115
9,False,490,target,"[(1083, 883)]",[],[1],[0.43333333333333335],horizontal,"(390.0, 262.0)",1.3166666666666667,0.399,1,10661.264
9,False,491,target,"[(1081, 881)]",[],[1],[0.6666666666666666],horizontal,"(890.0, 262.0)",0.5666666666666667,0.625,1,10666.002
9,False,492,catch,"[(1085, 884)]",[],[1],[0.2833333333333333],horizontal,"(390.0, 762.0)",0.8166666666666667,0.25,0,10670.386
9,False,493,target,"[(1089, 878)]",[],[1],[0.3],vertical,"(390.0, 262.0)",0.8666666666666667,0.268,1,10674.797
9,False,494,target,"[(1066, 882)]","[(989, 899)]",[1],[0.6],horizontal,"(390.0, 762.0)",,bar_phase,0,10680.45
9,False,495,target,"[(1076, 892)]",[],[1],[],horizontal,"(390.0, 262.0)",,cti_phase,0,10683.335
9,False,496,target,"[(1093, 897)]",[],[1],[],horizontal,"(390.0, 262.0)",,cti_phase,0,10914.735
9,False,497,target,"[(1065, 897)]",[],[1],[0.5333333333333333],horizontal,"(390.0, 262.0)",0.7666666666666666,0.494,1,10919.698
9,False,498,target,"[(1076, 895)]",[],[1],[0.85],horizontal,"(390.0, 262.0)",0.65,nan,0,10948.953
9,False,499,target,"[(1081, 885)]",[],[1],[0.4166666666666667],vertical,"(390.0, 262.0)",1.5833333333333333,0.388,1,10953.717
9,False,500,target,"[(1081, 885)]",[],[1],[0.5],vertical,"(890.0, 762.0)",0.7333333333333333,0.457,1,10959.249
9,False,501,target,"[(1099, 898)]",[],[1],[0.48333333333333334],horizontal,"(390.0, 762.0)",0.8,0.446,1,10963.902
9,False,502,target,"[(1100, 888)]",[],[1],[0.7666666666666666],horizontal,"(390.0, 762.0)",1.2666666666666666,0.724,1,10968.635
9,False,503,target,"[(1103, 890)]",[],[1],[0.5833333333333334],vertical,"(390.0, 262.0)",1.0833333333333333,0.54,1,10973.492
9,False,504,target,"[(1088, 888)]",[],[1],[0.5166666666666666],horizontal,"(890.0, 262.0)",1.6,0.48,1,10978.334
9,False,505,target,"[(1100, 889)]",[],[1],[0.55],horizontal,"(890.0, 762.0)",0.6333333333333333,0.509,1,10983.854
9,False,506,target,"[(1101, 894)]",[],[1],[0.4666666666666667],horizontal,"(390.0, 262.0)",1.4333333333333333,0.424,1,10988.137
9,False,507,target,"[(1091, 886)]",[],[1],[],horizontal,"(390.0, 762.0)",,cti_phase,0,10993.853
9,False,508,target,"[(1091, 888)]",[],[1],[0.48333333333333334],vertical,"(390.0, 762.0)",1.6666666666666667,0.44,1,10997.552
9,False,509,target,"[(1100, 896)]",[],[1],[0.5333333333333333],horizontal,"(890.0, 762.0)",0.5833333333333334,0.493,1,11003.897
9,False,510,target,"[(1120, 890)]",[],[1],[0.4666666666666667],vertical,"(390.0, 262.0)",1.6166666666666667,0.43,1,11007.951
9,False,511,target,"[(1091, 905)]",[],[1],[0.6833333333333333],vertical,"(390.0, 762.0)",0.8,0.643,1,11012.982
9,False,512,target,"[(1081, 886)]",[],[1],[0.5666666666666667],vertical,"(890.0, 262.0)",1.2666666666666666,0.532,1,11017.238
9,False,513,target,"[(1096, 885)]",[],[1],[0.5666666666666667],horizontal,"(890.0, 762.0)",0.8666666666666667,0.527,1,11021.902
9,False,514,target,"[(1100, 887)]",[],[1],[0.6],horizontal,"(890.0, 762.0)",1.5333333333333332,0.555,1,11026.731
9,False,515,target,"[(1092, 890)]",[],[1],[0.5333333333333333],horizontal,"(890.0, 262.0)",1.5166666666666666,0.496,1,11031.718
9,False,516,target,"[(1080, 887)]",[],[1],[0.48333333333333334],horizontal,"(390.0, 262.0)",1.4666666666666666,0.443,1,11036.47
9,False,517,target,"[(1091, 892)]",[],[1],[0.5333333333333333],horizontal,"(390.0, 262.0)",1.2333333333333334,0.492,1,11041.197
9,False,518,target,"[(1091, 885)]",[],[1],[0.5166666666666666],horizontal,"(890.0, 762.0)",1.35,0.478,1,11046.001
9,False,519,target,"[(1129, 897)]",[],[1],[0.48333333333333334],vertical,"(890.0, 762.0)",1.4,0.448,1,11051.22
9,False,520,target,"[(1081, 876)]",[],[1],[0.5333333333333333],horizontal,"(890.0, 762.0)",0.75,0.495,1,11056.04
9,False,521,target,"[(1105, 889)]",[],[1],[0.48333333333333334],horizontal,"(890.0, 762.0)",1.5666666666666667,0.443,1,11060.27
9,False,522,target,"[(1081, 889)]",[],[1],[0.5166666666666666],vertical,"(390.0, 262.0)",0.55,0.476,1,11065.649
9,False,523,target,"[(1107, 892)]",[],[1],[0.06666666666666667],vertical,"(890.0, 262.0)",1.6166666666666667,0.036,1,11069.916
9,False,524,target,"[(1068, 883)]",[],[1],[0.5333333333333333],horizontal,"(890.0, 262.0)",0.9833333333333333,0.499,1,11074.617
9,False,525,target,"[(1110, 896)]",[],[1],[0.5333333333333333],horizontal,"(390.0, 262.0)",1.45,0.493,1,11078.902
9,False,526,target,"[(1081, 888)]",[],[1],[0.5833333333333334],horizontal,"(890.0, 762.0)",1.2666666666666666,0.538,1,11083.6
9,False,527,target,"[(1122, 885)]",[],[1],[0.6],vertical,"(890.0, 262.0)",0.8833333333333333,0.562,1,11088.121
9,False,528,catch,"[(1105, 887)]",[],[1],[0.85],vertical,"(890.0, 762.0)",1.35,nan,1,11092.566
9,False,529,target,"[(1133, 913)]",[],[1],[0.5166666666666666],horizontal,"(890.0, 762.0)",1.35,0.473,1,11097.688
9,False,530,target,"[(1112, 896)]",[],[1],[0.5],vertical,"(390.0, 762.0)",0.8833333333333333,0.461,1,11112.417
9,False,531,target,"[(1082, 899)]",[],[1],[0.5166666666666666],vertical,"(390.0, 762.0)",1.15,0.474,1,11116.55
9,False,532,target,"[(1076, 890)]",[],[1],[0.5],vertical,"(390.0, 262.0)",0.7,0.461,1,11121.35
9,False,533,target,"[(1088, 892)]",[],[1],[0.6],horizontal,"(890.0, 262.0)",0.6833333333333333,0.555,1,11125.571
9,False,534,catch,"[(1086, 890)]",[],[1],[0.85],horizontal,"(890.0, 262.0)",0.6666666666666666,nan,1,11129.581
9,False,535,target,"[(1081, 886)]",[],[1],[0.35],horizontal,"(390.0, 762.0)",1.4166666666666667,0.314,1,11135.833
9,False,536,target,"[(1081, 883)]",[],[1],[0.5],vertical,"(890.0, 262.0)",1.1666666666666667,0.464,1,11141.197
9,False,537,target,"[(1079, 880)]",[],[1],[0.4166666666666667],horizontal,"(890.0, 262.0)",1.3166666666666667,0.379,1,11145.826
9,False,538,catch,"[(1103, 887)]",[],[1],[0.85],vertical,"(390.0, 262.0)",0.6333333333333333,nan,1,11150.917
9,False,539,target,"[(748, 1005), (1050, 910)]",[],"[0, 1]",[0.45],horizontal,"(890.0, 762.0)",0.95,0.415,1,11155.505
9,False,540,target,"[(1111, 900)]",[],[1],[0.5],vertical,"(890.0, 262.0)",1.5833333333333333,0.457,1,11176.291
10,False,541,target,"[(1110, 888)]",[],[1],[0.6],vertical,"(390.0, 262.0)",0.6833333333333333,0.555,1,11181.295
10,False,542,target,"[(1071, 886)]",[],[1],[0.48333333333333334],vertical,"(390.0, 262.0)",1.1,0.441,1,11185.915
10,False,543,catch,"[(1073, 890)]",[],[1],[0.6],vertical,"(390.0, 262.0)",1.2,0.555,0,11190.315
10,False,544,target,"[(1081, 881)]",[],[1],[0.08333333333333333],vertical,"(890.0, 762.0)",1.5166666666666666,0.054,1,11195.424
10,False,545,target,"[(1099, 898)]",[],[1],[0.4666666666666667],horizontal,"(390.0, 262.0)",1.2666666666666666,0.431,1,11201.488
10,False,546,target,"[(1096, 862)]",[],[1],[0.48333333333333334],vertical,"(390.0, 262.0)",1.15,0.443,1,11206.167
10,False,547,target,"[(1110, 884)]",[],[1],[0.5333333333333333],vertical,"(890.0, 262.0)",0.6666666666666666,0.492,1,11211.248
10,False,548,target,"[(1093, 889)]",[],[1],[0.36666666666666664],horizontal,"(890.0, 262.0)",1.25,0.327,1,11215.144
10,False,549,target,"[(1102, 899)]",[],[1],[0.6833333333333333],vertical,"(890.0, 262.0)",0.55,0.641,1,11219.931
10,False,550,catch,"[(1086, 885)]",[],[1],[0.43333333333333335],horizontal,"(890.0, 262.0)",1.1,0.4,0,11224.465
10,False,551,target,"[(1091, 871)]",[],[1],[0.5333333333333333],horizontal,"(390.0, 262.0)",1.0833333333333333,0.489,1,11229.197
10,False,552,target,"[(1100, 889)]",[],[1],[],horizontal,"(390.0, 262.0)",,cti_phase,0,11234.428
10,False,553,target,"[(1066, 888)]",[],[1],[0.5333333333333333],vertical,"(390.0, 762.0)",0.7666666666666666,0.49,1,11238.135
10,False,554,catch,"[(1081, 888)]",[],[1],[0.85],horizontal,"(890.0, 262.0)",0.8166666666666667,nan,1,11245.231
10,False,555,target,"[(1110, 868)]",[],[1],[0.45],horizontal,"(890.0, 262.0)",0.7666666666666666,0.41,1,11249.741
10,False,556,target,"[(1089, 881)]",[],[1],[0.5],horizontal,"(890.0, 262.0)",0.6,0.467,1,11254.164
10,False,557,target,"[(1105, 884)]",[],[1],[0.31666666666666665],horizontal,"(890.0, 262.0)",1.2333333333333334,0.274,1,11258.651
10,False,558,target,"[(1100, 894)]",[],[1],[0.5166666666666666],horizontal,"(890.0, 262.0)",1.25,0.473,1,11263.371
10,False,559,target,"[(1081, 894)]",[],[1],[0.48333333333333334],horizontal,"(390.0, 262.0)",1.2333333333333334,0.444,1,11267.782
10,False,560,target,"[(1091, 882)]",[],[1],[0.5166666666666666],vertical,"(890.0, 762.0)",0.55,0.477,1,11272.454
10,False,561,target,"[(1076, 892)]",[],[1],[0.4666666666666667],vertical,"(890.0, 262.0)",1.3333333333333333,0.424,1,11276.397
10,False,562,target,"[(1077, 887)]",[],[1],[0.18333333333333332],vertical,"(890.0, 262.0)",1.3666666666666667,0.151,1,11281.049
10,False,563,target,"[(1094, 892)]",[],[1],[0.5166666666666666],horizontal,"(890.0, 262.0)",0.9666666666666667,0.479,1,11285.979
10,False,564,target,"[(1096, 888)]",[],[1],[0.05],vertical,"(890.0, 262.0)",1.3666666666666667,0.02,1,11290.865
10,False,565,target,"[(1095, 893)]",[],[1],[0.5333333333333333],horizontal,"(390.0, 262.0)",0.5166666666666666,0.5,1,11295.452
10,False,566,target,"[(1101, 875)]",[],[1],[0.5],horizontal,"(390.0, 762.0)",1.1333333333333333,0.456,1,11299.584
10,False,567,target,"[(1096, 888)]",[],[1],[0.5166666666666666],horizontal,"(390.0, 762.0)",0.5333333333333333,0.474,1,11304.278
10,False,568,target,"[(1091, 886)]",[],[1],[0.5],vertical,"(890.0, 262.0)",0.8666666666666667,0.457,1,11308.07
10,False,569,target,"[(1110, 886)]",[],[1],[0.5166666666666666],horizontal,"(890.0, 762.0)",0.5833333333333334,0.474,1,11312.317
10,False,570,target,"[(1102, 888)]",[],[1],[0.35],vertical,"(890.0, 762.0)",1.2833333333333332,0.314,1,11316.584
10,False,571,target,"[(1077, 881)]",[],[1],[0.21666666666666667],horizontal,"(890.0, 262.0)",0.9333333333333333,0.183,1,11321.455
10,False,572,target,"[(1081, 887)]",[],[1],[],vertical,"(890.0, 762.0)",,cti_phase,0,11325.538
10,False,573,target,"[(1081, 876)]",[],[1],[0.4666666666666667],vertical,"(890.0, 262.0)",1.05,0.427,1,11329.715
10,False,574,catch,"[(1109, 889)]",[],[1],[0.85],horizontal,"(390.0, 762.0)",1.2666666666666666,nan,1,11334.925
10,False,575,target,"[(1134, 487), (1133, 494), (1120, 439), (1075, 895)]",[],"[0, 0, 0, 1]",[0.55],horizontal,"(890.0, 762.0)",0.5833333333333334,0.516,1,11340.332
10,False,576,target,"[(1072, 890)]",[],[1],[0.4166666666666667],vertical,"(890.0, 762.0)",1.5,0.382,1,11374.081
10,False,577,target,"[(1078, 894)]",[],[1],[0.45],horizontal,"(390.0, 762.0)",0.6333333333333333,0.411,1,11378.704
10,False,578,target,"[(1082, 895)]",[],[1],[0.85],horizontal,"(890.0, 262.0)",1.0333333333333332,nan,0,11382.775
10,False,579,target,"[(1079, 885)]",[],[1],[0.5333333333333333],vertical,"(390.0, 262.0)",0.8166666666666667,0.492,1,11387.965
10,False,580,target,"[(1067, 886)]",[],[1],[0.85],horizontal,"(390.0, 762.0)",1.6666666666666667,nan,0,11392.13
10,False,581,target,"[(1077, 888)]",[],[1],[0.4666666666666667],horizontal,"(890.0, 262.0)",1.3833333333333333,0.424,1,11397.868
10,False,582,target,"[(1096, 894)]",[],[1],[0.4166666666666667],vertical,"(390.0, 262.0)",1.0166666666666666,0.378,1,11405.071
10,False,583,target,"[(1082, 896)]",[],[1],[0.05],horizontal,"(390.0, 262.0)",1.1833333333333333,0.019,1,11409.848
10,False,584,target,"[(1054, 881)]",[],[1],[0.5],horizontal,"(890.0, 762.0)",1.0,0.463,1,11413.669
10,False,585,target,"[(1087, 888)]",[],[1],[0.4666666666666667],vertical,"(890.0, 262.0)",0.85,0.429,1,11418.136
10,False,586,target,"[(1076, 885)]",[],[1],[0.5],horizontal,"(890.0, 762.0)",1.5,0.464,1,11422.214
10,False,587,target,"[(1095, 885)]",[],[1],[0.05],horizontal,"(890.0, 262.0)",1.1833333333333333,0.02,1,11427.518
10,False,588,target,"[(1100, 881)]",[],[1],[0.3333333333333333],horizontal,"(390.0, 262.0)",0.9166666666666666,0.297,1,11432.185
10,False,589,target,"[(1081, 885)]",[],[1],[0.5333333333333333],horizontal,"(390.0, 762.0)",0.7666666666666666,0.49,1,11436.319
10,False,590,target,"[(1062, 889)]",[],[1],[0.45],vertical,"(890.0, 762.0)",1.25,0.416,1,11441.075
10,False,591,target,"[(1088, 890)]",[],[1],[],horizontal,"(390.0, 762.0)",,cti_phase,0,11445.703
10,False,592,target,"[(1081, 885)]",[],[1],[0.48333333333333334],horizontal,"(390.0, 262.0)",0.6833333333333333,0.45,1,11450.439
10,False,593,target,"[(1081, 886)]",[],[1],[],horizontal,"(390.0, 762.0)",,cti_phase,0,11455.251
10,False,594,target,"[(1104, 876)]",[],[1],[0.5],horizontal,"(890.0, 762.0)",1.0,0.465,1,11459.56
10,False,595,target,"[(1104, 885)]",[],[1],[0.85],vertical,"(390.0, 262.0)",0.6166666666666667,nan,0,11464.717
10,False,596,target,"[(1100, 885)]",[],[1],[0.6666666666666666],horizontal,"(890.0, 762.0)",0.7666666666666666,0.619,1,11468.845
10,False,597,target,"[(1093, 866)]",[],[1],[0.85],horizontal,"(390.0, 762.0)",1.5,nan,0,11474.098
10,False,598,target,"[(1068, 894)]",[],[1],[0.4666666666666667],horizontal,"(390.0, 762.0)",0.6833333333333333,0.431,1,11479.915
10,False,599,target,"[(1081, 896)]",[],[1],[0.5333333333333333],vertical,"(890.0, 262.0)",0.8666666666666667,0.493,1,11485.209
10,False,600,target,"[(1081, 889)]",[],[1],[0.5333333333333333],horizontal,"(890.0, 762.0)",0.65,0.493,1,11490.005
11,False,601,target,"[(1081, 893)]",[],[1],[0.45],vertical,"(890.0, 262.0)",1.1166666666666667,0.421,1,11494.185
11,False,602,target,"[(1100, 885)]",[],[1],[0.3833333333333333],horizontal,"(390.0, 262.0)",1.0833333333333333,0.346,1,11499.041
11,False,603,target,"[(1072, 885)]",[],[1],[0.43333333333333335],vertical,"(890.0, 762.0)",1.2166666666666666,0.396,1,11503.37
11,False,604,target,"[(1088, 885)]",[],[1],[],vertical,"(890.0, 262.0)",,cti_phase,0,11508.309
11,False,605,target,"[(1078, 875)]",[],[1],[0.55],horizontal,"(390.0, 262.0)",1.5,0.51,1,11511.95
11,False,606,target,"[(1076, 881)]",[],[1],[0.5833333333333334],vertical,"(890.0, 262.0)",1.0333333333333332,0.54,1,11517.25
11,False,607,target,"[(1082, 885)]",[],[1],[0.5166666666666666],horizontal,"(890.0, 262.0)",0.95,0.472,1,11521.666
11,False,608,catch,"[(1081, 887)]",[],[1],[0.85],horizontal,"(390.0, 262.0)",0.65,nan,1,11525.731
11,False,609,target,"[(1081, 887)]",[],[1],[0.5333333333333333],horizontal,"(390.0, 262.0)",0.5333333333333333,0.494,1,11530.341
11,False,610,target,"[(1087, 885)]",[],[1],[0.5],vertical,"(390.0, 762.0)",0.5333333333333333,0.462,1,11536.649
11,False,611,target,"[(1081, 886)]",[],[1],[0.5166666666666666],horizontal,"(890.0, 262.0)",0.5666666666666667,0.475,1,11540.549
11,False,612,target,"[(1081, 887)]",[],[1],[0.3833333333333333],horizontal,"(890.0, 262.0)",1.0333333333333332,0.344,1,11544.55
11,False,613,target,"[(1100, 883)]",[],[1],[0.3333333333333333],vertical,"(890.0, 262.0)",1.6333333333333333,0.297,1,11549.388
11,False,614,catch,"[(1081, 885)]",[],[1],[0.6666666666666666],horizontal,"(890.0, 762.0)",0.6,0.63,0,11554.322
11,False,615,target,"[(1081, 875)]",[],[1],[0.5],horizontal,"(390.0, 262.0)",0.8333333333333334,0.461,1,11558.535
11,False,616,target,"[(1103, 893)]",[],[1],[0.48333333333333334],vertical,"(890.0, 262.0)",1.0166666666666666,0.444,1,11563.932
11,False,617,target,"[(1077, 881)]",[],[1],[0.5666666666666667],horizontal,"(390.0, 262.0)",0.6,0.525,1,11568.587
11,False,618,target,"[(1078, 881)]",[],[1],[0.5],vertical,"(390.0, 762.0)",1.3166666666666667,0.458,1,11573.062
11,False,619,catch,"[(1086, 885)]",[],[1],[0.2833333333333333],horizontal,"(390.0, 262.0)",1.6,0.244,0,11578.021
11,False,620,target,"[(1103, 867)]",[],[1],[0.15],vertical,"(390.0, 762.0)",1.05,0.115,1,11582.604
11,False,621,target,"[(1082, 885)]",[],[1],[0.11666666666666667],horizontal,"(390.0, 262.0)",1.6333333333333333,0.086,1,11587.04
11,False,622,catch,"[(1077, 893)]",[],[1],[0.05],vertical,"(890.0, 262.0)",1.65,0.021,0,11591.434
11,False,623,target,"[(1105, 875)]",[],[1],[0.5166666666666666],vertical,"(890.0, 762.0)",0.8166666666666667,0.474,1,11595.931
11,False,624,target,"[(1087, 881)]",[],[1],[0.5],vertical,"(390.0, 762.0)",1.1166666666666667,0.456,1,11600.548
11,False,625,catch,"[(1106, 881)]",[],[1],[0.85],horizontal,"(890.0, 762.0)",1.05,nan,1,11604.788
11,False,626,target,"[(1105, 889)]",[],[1],[0.4166666666666667],horizontal,"(890.0, 262.0)",1.35,0.378,1,11609.69
11,False,627,catch,"[(1083, 882)]",[],[1],[0.65],vertical,"(390.0, 262.0)",0.8833333333333333,0.616,0,11614.116
11,False,628,target,"[(1100, 867)]",[],[1],[0.48333333333333334],horizontal,"(390.0, 762.0)",1.0666666666666667,0.44,1,11618.874
11,False,629,target,"[(1097, 888)]",[],[1],[0.45],horizontal,"(890.0, 262.0)",0.9,0.413,1,11623.667
11,False,630,target,"[(1100, 881)]",[],[1],[],vertical,"(890.0, 762.0)",,cti_phase,0,11628.307
11,False,631,target,"[(1100, 872)]",[],[1],[0.25],vertical,"(390.0, 762.0)",1.2666666666666666,0.211,1,11633.147
11,False,632,target,"[(1082, 879)]",[],[1],[0.48333333333333334],horizontal,"(890.0, 262.0)",0.7666666666666666,0.442,1,11638.082
11,False,633,catch,"[(1087, 875)]",[],[1],[0.5],horizontal,"(890.0, 262.0)",0.65,0.46,0,11642.554
11,False,634,target,"[(1081, 883)]",[],[1],[0.5166666666666666],horizontal,"(890.0, 762.0)",0.5833333333333334,0.475,1,11646.755
11,False,635,target,"[(1081, 896)]",[],[1],[0.48333333333333334],vertical,"(390.0, 262.0)",0.7166666666666667,0.443,1,11651.116
11,False,636,target,"[(1100, 868)]",[],[1],[0.3833333333333333],horizontal,"(890.0, 762.0)",1.0833333333333333,0.343,1,11655.033
11,False,637,target,"[(1078, 884)]",[],[1],[0.5166666666666666],vertical,"(890.0, 762.0)",0.6,0.48,1,11659.157
11,False,638,target,"[(1117, 889)]",[],[1],[0.55],horizontal,"(390.0, 762.0)",0.75,0.506,1,11663.256
11,False,639,target,"[(1083, 871)]",[],[1],[0.18333333333333332],vertical,"(890.0, 762.0)",1.4833333333333334,0.152,1,11667.577
11,False,640,target,"[(1081, 876)]",[],[1],[0.5333333333333333],horizontal,"(390.0, 262.0)",0.9166666666666666,0.493,1,11672.503
11,False,641,target,"[(1086, 884)]",[],[1],[],vertical,"(390.0, 262.0)",,cti_phase,0,11677.042
11,False,642,target,"[(1083, 857)]",[],[1],[0.16666666666666666],horizontal,"(390.0, 262.0)",1.5666666666666667,0.134,1,11681.589
11,False,643,target,"[(1082, 869)]",[],[1],[0.6166666666666667],horizontal,"(890.0, 262.0)",0.55,0.574,1,11686.465
11,False,644,target,"[(1105, 875)]",[],[1],[0.5333333333333333],horizontal,"(390.0, 762.0)",0.6666666666666666,0.491,1,11690.92
11,False,645,target,"[(1100, 871)]",[],[1],[0.21666666666666667],horizontal,"(890.0, 762.0)",1.5166666666666666,0.183,1,11695.398
11,False,646,target,"[(1077, 888)]",[],[1],[],vertical,"(890.0, 262.0)",,cti_phase,0,11699.702
11,False,647,target,"[(1072, 876)]",[],[1],[0.3333333333333333],horizontal,"(390.0, 262.0)",1.45,0.295,1,11704.218
11,False,648,target,"[(1110, 885)]",[],[1],[0.4666666666666667],vertical,"(890.0, 762.0)",1.1666666666666667,0.427,1,11709.372
11,False,649,target,"[(1103, 876)]",[],[1],[0.5333333333333333],horizontal,"(390.0, 262.0)",0.8,0.497,1,11714.08
11,False,650,target,"[(1083, 876)]",[],[1],[0.4666666666666667],horizontal,"(890.0, 262.0)",0.7833333333333333,0.425,1,11718.728
11,False,651,target,"[(1082, 886)]",[],[1],[0.6333333333333333],vertical,"(390.0, 262.0)",0.6333333333333333,0.589,1,11722.969
11,False,652,target,"[(1091, 858)]",[],[1],[0.48333333333333334],vertical,"(890.0, 262.0)",1.3666666666666667,0.439,1,11727.562
11,False,653,target,"[(1100, 872)]",[],[1],[0.5166666666666666],vertical,"(890.0, 762.0)",0.7333333333333333,0.476,1,11732.111
11,False,654,target,"[(1070, 884)]",[],[1],[0.75],horizontal,"(390.0, 262.0)",0.8333333333333334,0.706,1,11736.376
11,False,655,target,"[(1108, 874)]",[],[1],[0.5],vertical,"(890.0, 762.0)",0.8166666666666667,0.459,1,11741.235
11,False,656,target,"[(1102, 891)]",[],[1],[0.5],vertical,"(890.0, 762.0)",0.9833333333333333,0.459,1,11745.488
11,False,657,target,"[(1062, 876)]",[],[1],[0.6166666666666667],horizontal,"(390.0, 262.0)",0.9,0.57,1,11749.739
11,False,658,target,"[(1070, 881)]",[],[1],[0.5],vertical,"(890.0, 262.0)",0.5333333333333333,0.459,1,11753.984
11,False,659,target,"[(1070, 902)]",[],[1],[0.4666666666666667],horizontal,"(390.0, 262.0)",1.2333333333333334,0.426,1,11757.921
11,False,660,target,"[(1098, 884)]",[],[1],[0.5666666666666667],horizontal,"(890.0, 262.0)",0.8333333333333334,0.529,1,11762.638
12,False,661,target,"[(1107, 888)]",[],[1],[0.48333333333333334],vertical,"(390.0, 762.0)",1.2666666666666666,0.443,1,11766.929
12,False,662,target,"[(1079, 888)]",[],[1],[0.5],horizontal,"(890.0, 762.0)",1.3666666666666667,0.462,1,11771.795
12,False,663,target,"[(1096, 876)]",[],[1],[0.48333333333333334],horizontal,"(390.0, 262.0)",1.2,0.446,1,11776.626
12,False,664,catch,"[(1100, 889)]",[],[1],[0.85],vertical,"(890.0, 762.0)",0.5666666666666667,nan,1,11781.021
12,False,665,target,"[(1081, 880)]",[],[1],[0.5],horizontal,"(890.0, 762.0)",0.8833333333333333,0.457,1,11785.616
12,False,666,catch,"[(1089, 884)]",[],[1],[0.7666666666666666],vertical,"(390.0, 262.0)",1.4166666666666667,0.73,0,11790.296
12,False,667,target,"[(1096, 862)]",[],[1],[0.4166666666666667],horizontal,"(890.0, 262.0)",1.35,0.383,1,11795.071
12,False,668,target,"[(1102, 887)]",[],[1],[],vertical,"(890.0, 262.0)",,cti_phase,0,11800.066
12,False,669,target,"[(1096, 853)]",[],[1],[0.3],horizontal,"(890.0, 762.0)",1.5666666666666667,0.267,1,11804.643
12,False,670,target,"[(1089, 882)]",[],[1],[0.3],horizontal,"(890.0, 762.0)",0.9666666666666667,0.264,1,11809.564
12,False,671,target,"[(1097, 892)]",[],[1],[0.48333333333333334],vertical,"(390.0, 262.0)",1.5666666666666667,0.442,1,11814.483
12,False,672,target,"[(1076, 885)]",[],[1],[0.48333333333333334],horizontal,"(390.0, 762.0)",0.55,0.444,1,11819.516
12,False,673,target,"[(1086, 887)]",[],[1],[0.6166666666666667],horizontal,"(390.0, 762.0)",0.5833333333333334,0.573,1,11823.682
12,False,674,target,"[(1072, 890)]",[],[1],[0.2833333333333333],horizontal,"(390.0, 262.0)",1.35,0.248,1,11827.821
12,False,675,target,"[(1078, 874)]",[],[1],[0.5],horizontal,"(890.0, 262.0)",0.9833333333333333,0.463,1,11833.583
12,False,676,target,"[(1077, 871)]",[],[1],[0.6],vertical,"(390.0, 262.0)",1.0333333333333332,0.561,1,11838.05
12,False,677,target,"[(1091, 857)]",[],[1],[0.21666666666666667],horizontal,"(390.0, 262.0)",1.6666666666666667,0.183,1,11842.539
12,False,678,target,"[(1086, 891)]",[],[1],[0.48333333333333334],vertical,"(390.0, 762.0)",1.0166666666666666,0.445,1,11847.3
12,False,679,target,"[(1086, 892)]",[],[1],[],horizontal,"(390.0, 762.0)",,cti_phase,0,11852.066
12,False,680,target,"[(1072, 885)]",[],[1],[0.36666666666666664],vertical,"(390.0, 262.0)",1.5833333333333333,0.327,1,11856.335
12,False,681,target,"[(1087, 885)]",[],[1],[],vertical,"(390.0, 762.0)",,cti_phase,0,11861.149
12,False,682,target,"[(1076, 874)]",[],[1],[0.3],vertical,"(890.0, 262.0)",1.0666666666666667,0.272,1,11865.261
12,False,683,target,"[(1072, 890)]",[],[1],[0.5333333333333333],vertical,"(890.0, 762.0)",1.2,0.493,1,11870.078
12,False,684,target,"[(1100, 872)]",[],[1],[0.55],horizontal,"(390.0, 762.0)",0.7833333333333333,0.511,1,11874.738
12,False,685,target,"[(1086, 882)]",[],[1],[0.5],horizontal,"(390.0, 762.0)",0.7833333333333333,0.457,1,11879.334
12,False,686,catch,"[(1082, 892)]",[],[1],[],vertical,"(390.0, 262.0)",,cti_phase,0,11883.849
12,False,687,target,"[(1096, 867)]",[],[1],[0.26666666666666666],vertical,"(390.0, 262.0)",1.3333333333333333,0.235,1,11888.396
12,False,688,target,"[(1091, 889)]",[],[1],[0.23333333333333334],vertical,"(890.0, 762.0)",1.3166666666666667,0.2,1,11893.696
12,False,689,target,"[(1079, 884)]",[],[1],[0.5],vertical,"(390.0, 262.0)",1.6,0.459,1,11898.549
12,False,690,target,"[(1068, 888)]",[],[1],[0.5333333333333333],vertical,"(890.0, 262.0)",0.5833333333333334,0.499,1,11903.679
12,False,691,target,"[(1075, 879)]",[],[1],[0.48333333333333334],vertical,"(390.0, 262.0)",1.2833333333333332,0.443,1,11907.813
12,False,692,target,"[(1068, 863)]",[],[1],[0.13333333333333333],vertical,"(390.0, 262.0)",1.3333333333333333,0.101,1,11912.714
12,False,693,catch,"[(1097, 863)]",[],[1],[0.85],horizontal,"(890.0, 262.0)",0.8833333333333333,nan,1,11918.066
12,False,694,target,"[(1074, 884)]",[],[1],[0.5333333333333333],horizontal,"(890.0, 262.0)",1.0,0.493,1,11922.454
12,False,695,target,"[(1076, 879)]",[],[1],[],horizontal,"(890.0, 262.0)",,cti_phase,0,11927.362
12,False,696,catch,"[(1071, 885)]",[],[1],[0.85],vertical,"(890.0, 762.0)",0.9,nan,1,11931.736
12,False,697,target,"[(626, 421), (252, 910), (30, 580), (199, 632), (503, 679), (1053, 889)]",[],"[0, 0, 0, 0, 0, 1]",[0.85],horizontal,"(890.0, 262.0)",1.2333333333333334,nan,0,11937.425
12,False,698,target,"[(1095, 888)]",[],[1],[0.4666666666666667],horizontal,"(390.0, 762.0)",1.0166666666666666,0.429,1,11971.103
12,False,699,target,"[(1055, 900)]",[],[1],[0.85],horizontal,"(390.0, 762.0)",0.8333333333333334,nan,0,11982.309
12,False,700,target,"[(1068, 871)]",[],[1],[0.7],vertical,"(390.0, 262.0)",1.1666666666666667,0.653,1,11987.321
12,False,701,target,"[(1042, 920)]",[],[1],[],vertical,"(390.0, 262.0)",,fix_phase,0,11992.003
12,False,702,target,"[(1100, 858)]",[],[1],[],horizontal,"(890.0, 262.0)",,cti_phase,0,12004.505
12,False,703,target,"[(1095, 882)]",[],[1],[0.18333333333333332],vertical,"(890.0, 762.0)",1.3333333333333333,0.147,1,12009.053
12,False,704,target,"[(1086, 881)]",[],[1],[0.4666666666666667],horizontal,"(390.0, 762.0)",1.0833333333333333,0.427,1,12013.911
12,False,705,target,"[(1082, 889)]",[],[1],[],horizontal,"(390.0, 262.0)",,cti_phase,0,12018.815
12,False,706,target,"[(1077, 876)]",[],[1],[0.4666666666666667],vertical,"(890.0, 262.0)",0.6833333333333333,0.424,1,12023.813
12,False,707,target,"[(1100, 893)]",[],[1],[],vertical,"(890.0, 262.0)",,cti_phase,0,12028.24
12,False,708,target,"[(1102, 883)]",[],[1],[0.3833333333333333],vertical,"(390.0, 762.0)",1.4333333333333333,0.346,1,12033.02
12,False,709,target,"[(1072, 890)]",[],[1],[0.48333333333333334],horizontal,"(890.0, 762.0)",0.9,0.446,1,12037.537
12,False,710,target,"[(1075, 893)]",[],[1],[0.4166666666666667],vertical,"(890.0, 762.0)",1.3,0.376,1,12042.213
12,False,711,target,"[(1072, 896)]",[],[1],[0.5],horizontal,"(390.0, 262.0)",1.6,0.459,1,12047.22
12,False,712,target,"[(1091, 890)]",[],[1],[],horizontal,"(390.0, 762.0)",,cti_phase,0,12052.347
12,False,713,catch,"[(1041, 884)]",[],[1],[0.85],horizontal,"(390.0, 262.0)",0.6,nan,1,12056.72
12,False,714,target,"[(1071, 878)]",[],[1],[0.5833333333333334],vertical,"(390.0, 262.0)",0.9666666666666667,0.537,1,12065.987
12,False,715,target,"[(1100, 890)]",[],[1],[],horizontal,"(390.0, 262.0)",,cti_phase,0,12070.907
12,False,716,target,"[(1073, 873)]",[],[1],[0.6166666666666667],horizontal,"(390.0, 762.0)",0.55,0.576,1,12074.69
12,False,717,target,"[(1075, 884)]",[],[1],[0.16666666666666666],vertical,"(390.0, 762.0)",1.4666666666666666,0.133,1,12079.72
12,False,718,target,"[(1072, 890)]",[],[1],[0.55],vertical,"(390.0, 262.0)",1.5666666666666667,0.51,1,12084.546
12,False,719,target,"[(1073, 883)]",[],[1],[0.5333333333333333],horizontal,"(890.0, 762.0)",0.5166666666666666,0.491,1,12089.588
12,False,720,target,"[(1072, 880)]",[],[1],[0.55],vertical,"(390.0, 262.0)",0.9833333333333333,0.507,1,12093.549
13,False,721,target,"[(1084, 887)]",[],[1],[],horizontal,"(890.0, 762.0)",,cti_phase,0,12097.828
13,False,722,target,"[(1087, 884)]",[],[1],[0.4],horizontal,"(390.0, 262.0)",1.2333333333333334,0.359,1,12102.673
13,False,723,target,"[(1072, 886)]",[],[1],[0.48333333333333334],vertical,"(890.0, 762.0)",0.8,0.443,1,12107.15
13,False,724,target,"[(1085, 893)]",[],[1],[0.5333333333333333],horizontal,"(890.0, 762.0)",1.45,0.492,1,12111.598
13,False,725,target,"[(1071, 885)]",[],[1],[0.48333333333333334],vertical,"(890.0, 262.0)",1.4833333333333334,0.446,1,12116.347
13,False,726,target,"[(1098, 877)]",[],[1],[0.48333333333333334],vertical,"(890.0, 262.0)",0.75,0.441,1,12121.004
13,False,727,target,"[(1072, 876)]",[],[1],[0.48333333333333334],vertical,"(890.0, 262.0)",1.0333333333333332,0.448,1,12125.717
13,False,728,target,"[(1072, 871)]",[],[1],[0.4],vertical,"(890.0, 762.0)",0.85,0.361,1,12130.065
13,False,729,target,"[(1072, 876)]",[],[1],[0.45],vertical,"(890.0, 262.0)",1.3833333333333333,0.408,1,12134.299
13,False,730,target,"[(1071, 895)]",[],[1],[0.5],vertical,"(890.0, 262.0)",0.9,0.457,1,12139.522
13,False,731,target,"[(1071, 890)]",[],[1],[0.4666666666666667],horizontal,"(890.0, 762.0)",1.4333333333333333,0.424,1,12143.649
13,False,732,target,"[(1072, 898)]",[],[1],[],vertical,"(390.0, 762.0)",,cti_phase,0,12148.723
13,False,733,catch,"[(1075, 886)]",[],[1],[0.85],horizontal,"(890.0, 262.0)",1.1,nan,1,12152.685
13,False,734,target,"[(1072, 881)]",[],[1],[0.18333333333333332],horizontal,"(390.0, 762.0)",1.4666666666666666,0.151,1,12157.5
13,False,735,target,"[(1081, 895)]",[],[1],[0.5166666666666666],horizontal,"(890.0, 762.0)",0.9166666666666666,0.478,1,12164.151
13,False,736,target,"[(1057, 890)]",[],[1],[0.65],vertical,"(890.0, 762.0)",1.2333333333333334,0.608,1,12168.918
13,False,737,target,"[(1071, 877)]",[],[1],[0.5],vertical,"(390.0, 262.0)",0.9833333333333333,0.461,1,12173.634
13,False,738,target,"[(1072, 888)]",[],[1],[0.35],vertical,"(390.0, 762.0)",1.45,0.31,1,12178.453
13,False,739,target,"[(1080, 880)]",[],[1],[],horizontal,"(890.0, 262.0)",,cti_phase,0,12183.476
13,False,740,target,"[(1072, 868)]",[],[1],[0.21666666666666667],vertical,"(890.0, 762.0)",1.5833333333333333,0.18,1,12188.093
13,False,741,target,"[(1072, 890)]",[],[1],[0.23333333333333334],horizontal,"(390.0, 262.0)",1.1833333333333333,0.202,1,12193.266
13,False,742,target,"[(1072, 890)]",[],[1],[0.5166666666666666],vertical,"(390.0, 762.0)",0.7166666666666667,0.473,1,12198.155
13,False,743,target,"[(1072, 888)]",[],[1],[0.5333333333333333],horizontal,"(390.0, 762.0)",0.5333333333333333,0.49,1,12202.439
13,False,744,target,"[(1071, 886)]",[],[1],[],horizontal,"(390.0, 262.0)",,cti_phase,0,12206.336
13,False,745,target,"[(1072, 872)]",[],[1],[0.26666666666666666],horizontal,"(390.0, 762.0)",1.5666666666666667,0.234,1,12210.408
13,False,746,target,"[(1072, 890)]",[],[1],[0.23333333333333334],vertical,"(390.0, 762.0)",0.95,0.198,1,12215.385
13,False,747,target,"[(1072, 896)]",[],[1],[0.4166666666666667],vertical,"(390.0, 262.0)",1.1666666666666667,0.374,1,12220.033
13,False,748,target,"[(1072, 883)]",[],[1],[0.5333333333333333],vertical,"(890.0, 762.0)",0.6666666666666666,0.49,1,12224.984
13,False,749,target,"[(1072, 876)]",[],[1],[0.2833333333333333],vertical,"(390.0, 762.0)",0.9166666666666666,0.246,1,12229.172
13,False,750,target,"[(1072, 886)]",[],[1],[0.11666666666666667],vertical,"(890.0, 262.0)",1.4333333333333333,0.083,1,12233.737
13,False,751,target,"[(1072, 881)]",[],[1],[0.55],vertical,"(890.0, 762.0)",0.5166666666666666,0.51,1,12238.577
13,False,752,target,"[(1072, 897)]",[],[1],[0.43333333333333335],vertical,"(390.0, 262.0)",0.7833333333333333,0.392,1,12242.584
13,False,753,target,"[(1072, 890)]",[],[1],[0.5333333333333333],vertical,"(890.0, 762.0)",0.5,0.494,1,12247.057
13,False,754,catch,"[(1066, 878)]",[],[1],[0.85],horizontal,"(890.0, 762.0)",0.55,nan,1,12251.506
13,False,755,target,"[(1038, 885)]",[],[1],[0.85],vertical,"(890.0, 262.0)",1.4833333333333334,nan,0,12255.75
13,False,756,target,"[(1038, 897)]",[],[1],[0.5333333333333333],horizontal,"(390.0, 762.0)",0.65,0.498,1,13525.208
13,False,757,target,"[(1054, 910)]",[],[1],[0.85],vertical,"(390.0, 262.0)",0.7166666666666667,nan,0,13529.732
13,False,758,target,"[(1066, 876)]",[],[1],[0.5666666666666667],horizontal,"(390.0, 262.0)",0.6666666666666666,0.542,1,13534.654
13,False,759,target,"[(1072, 889)]",[],[1],[0.5166666666666666],horizontal,"(890.0, 762.0)",1.1333333333333333,0.482,1,13539.115
13,False,760,target,"[(1070, 897)]",[],[1],[0.5],horizontal,"(390.0, 762.0)",0.5166666666666666,0.46,1,13544.189
13,False,761,target,"[(1069, 885)]",[],[1],[0.5],horizontal,"(390.0, 262.0)",0.85,0.461,1,13548.772
13,False,762,target,"[(1082, 889)]",[],[1],[0.43333333333333335],horizontal,"(890.0, 262.0)",1.1833333333333333,0.395,1,13554.984
13,False,763,target,"[(1081, 890)]",[],[1],[0.5333333333333333],vertical,"(890.0, 262.0)",0.6833333333333333,0.489,1,13559.909
13,False,764,target,"[(1081, 890)]",[],[1],[],vertical,"(390.0, 762.0)",,cti_phase,0,13564.231
13,False,765,target,"[(1068, 878)]",[],[1],[0.5166666666666666],horizontal,"(390.0, 762.0)",0.9666666666666667,0.476,1,13568.368
13,False,766,target,"[(1068, 910)]",[],[1],[0.5],horizontal,"(390.0, 762.0)",1.2333333333333334,0.461,1,13572.912
13,False,767,target,"[(1063, 910)]",[],[1],[0.26666666666666666],vertical,"(390.0, 762.0)",1.3333333333333333,0.229,1,13577.694
13,False,768,target,"[(1091, 886)]",[],[1],[],horizontal,"(890.0, 262.0)",,cti_phase,0,13582.41
13,False,769,catch,"[(1110, 890)]",[],[1],[0.85],horizontal,"(890.0, 262.0)",0.7666666666666666,nan,1,13587.249
13,False,770,target,"[(1079, 888)]",[],[1],[0.31666666666666665],vertical,"(390.0, 762.0)",1.6166666666666667,0.281,1,13592.187
13,False,771,catch,"[(1072, 885)]",[],[1],[0.7666666666666666],horizontal,"(390.0, 262.0)",1.3333333333333333,0.722,0,13601.973
13,False,772,target,"[(1078, 890)]",[],[1],[0.6166666666666667],vertical,"(890.0, 762.0)",0.6,0.576,1,13606.78
13,False,773,target,"[(1094, 899)]",[],[1],[],horizontal,"(390.0, 262.0)",,cti_phase,0,13611.054
13,False,774,catch,"[(1076, 895)]",[],[1],[0.85],vertical,"(890.0, 262.0)",1.4833333333333334,nan,1,13615.624
13,False,775,target,"[(1104, 894)]",[],[1],[0.6166666666666667],horizontal,"(890.0, 762.0)",1.0666666666666667,0.573,1,13621.054
13,False,776,target,"[(1081, 891)]",[],[1],[0.6666666666666666],vertical,"(890.0, 262.0)",0.5666666666666667,0.622,1,13628.052
13,False,777,target,"[(1105, 897)]",[],[1],[0.31666666666666665],horizontal,"(390.0, 262.0)",1.3833333333333333,0.283,1,13632.073
13,False,778,target,"[(1071, 887)]",[],[1],[0.6166666666666667],vertical,"(390.0, 762.0)",1.2833333333333332,0.576,1,13636.889
13,False,779,target,"[(1104, 890)]",[],[1],[0.85],horizontal,"(890.0, 762.0)",1.3166666666666667,nan,0,13641.87
13,False,780,target,"[(1077, 885)]",[],[1],[0.85],vertical,"(390.0, 262.0)",0.55,nan,0,13646.934
14,False,781,catch,"[(1125, 889)]",[],[1],[0.5166666666666666],vertical,"(390.0, 762.0)",1.4333333333333333,0.478,0,13651.787
14,False,782,target,"[(1082, 869)]",[],[1],[0.5166666666666666],vertical,"(890.0, 262.0)",0.75,0.478,1,13656.797
14,False,783,target,"[(1106, 892)]",[],[1],[0.5333333333333333],vertical,"(390.0, 762.0)",1.1333333333333333,0.5,1,13660.781
14,False,784,target,"[(1100, 885)]",[],[1],[0.5166666666666666],vertical,"(390.0, 762.0)",1.3,0.48,1,13665.734
14,False,785,target,"[(1084, 889)]",[],[1],[0.45],horizontal,"(390.0, 262.0)",1.3,0.41,1,13670.522
14,False,786,target,"[(1058, 891)]",[],[1],[0.5333333333333333],vertical,"(390.0, 262.0)",1.4166666666666667,0.491,1,13675.387
14,False,787,target,"[(1076, 887)]",[],[1],[0.2],horizontal,"(390.0, 262.0)",1.2,0.167,1,13683.721
14,False,788,target,"[(1076, 891)]",[],[1],[0.45],horizontal,"(390.0, 262.0)",1.0833333333333333,0.411,1,13688.503
14,False,789,target,"[(1076, 890)]",[],[1],[0.36666666666666664],vertical,"(390.0, 762.0)",1.6166666666666667,0.335,1,13692.952
14,False,790,target,"[(1071, 883)]",[],[1],[0.8],vertical,"(390.0, 762.0)",0.5,0.753,1,13698.192
14,False,791,target,"[(1072, 882)]",[],[1],[0.85],vertical,"(890.0, 762.0)",0.8,nan,0,13702.686
14,False,792,target,"[(1073, 899)]",[],[1],[0.5666666666666667],vertical,"(890.0, 262.0)",0.75,0.524,1,13707.457
14,False,793,target,"[(1072, 863)]",[],[1],[0.26666666666666666],vertical,"(890.0, 262.0)",1.6666666666666667,0.229,1,13715.404
14,False,794,catch,"[(1091, 903)]",[],[1],[0.7833333333333333],vertical,"(890.0, 262.0)",0.7333333333333333,0.743,0,13730.126
14,False,795,target,"[(1018, 598), (1057, 864)]",[],"[0, 1]",[0.5],vertical,"(390.0, 762.0)",1.1666666666666667,0.458,1,13734.777
14,False,796,catch,"[(1072, 895)]",[],[1],[0.15],vertical,"(890.0, 762.0)",1.55,0.115,0,13790.155
14,False,797,target,"[(1072, 894)]",[],[1],[0.45],vertical,"(890.0, 262.0)",1.6166666666666667,0.413,1,13794.846
14,False,798,target,"[(1073, 902)]",[],[1],[0.5833333333333334],vertical,"(390.0, 262.0)",1.0,0.541,1,13800.346
14,False,799,target,"[(1105, 896)]",[],[1],[0.5166666666666666],horizontal,"(390.0, 262.0)",0.95,0.478,1,13805.411
14,False,800,target,"[(1071, 900)]",[],[1],[0.65],horizontal,"(390.0, 762.0)",0.8,0.612,1,13809.885
14,False,801,target,"[(1092, 888)]",[],[1],[0.85],vertical,"(890.0, 262.0)",0.9166666666666666,nan,0,13814.735
14,False,802,target,"[(1082, 870)]",[],[1],[0.23333333333333334],horizontal,"(390.0, 262.0)",1.4166666666666667,0.197,1,13819.239
14,False,803,target,"[(1091, 893)]",[],[1],[0.5],vertical,"(890.0, 762.0)",1.1666666666666667,0.46,1,13823.985
14,False,804,target,"[(1102, 901)]",[],[1],[0.48333333333333334],horizontal,"(890.0, 762.0)",0.9833333333333333,0.447,1,13828.619
14,False,805,target,"[(1099, 876)]",[],[1],[0.5666666666666667],vertical,"(390.0, 262.0)",0.8833333333333333,0.524,1,13833.498
14,False,806,target,"[(1081, 900)]",[],[1],[0.5666666666666667],horizontal,"(390.0, 262.0)",0.8166666666666667,0.521,1,13838.269
14,False,807,target,"[(1067, 893)]",[],[1],[0.5333333333333333],vertical,"(390.0, 762.0)",0.6833333333333333,0.491,1,13842.798
14,False,808,target,"[(1096, 893)]",[],[1],[0.48333333333333334],horizontal,"(890.0, 262.0)",1.35,0.438,1,13846.76
14,False,809,target,"[(1072, 883)]",[],[1],[0.4],vertical,"(390.0, 762.0)",1.6,0.368,1,13851.911
14,False,810,target,"[(1070, 888)]",[],[1],[0.6],vertical,"(890.0, 262.0)",0.7,0.556,1,13857.034
14,False,811,target,"[(1096, 881)]",[],[1],[0.36666666666666664],vertical,"(390.0, 262.0)",1.6166666666666667,0.332,1,13861.636
14,False,812,catch,"[(1094, 889)]",[],[1],[0.85],horizontal,"(390.0, 262.0)",0.55,nan,1,13867.003
14,False,813,target,"[(1097, 893)]",[],[1],[0.5166666666666666],vertical,"(890.0, 762.0)",0.8166666666666667,0.477,1,13871.817
14,False,814,target,"[(1096, 892)]",[],[1],[0.5],vertical,"(890.0, 762.0)",0.5166666666666666,0.461,1,13876.065
14,False,815,target,"[(1068, 885)]",[],[1],[0.5166666666666666],horizontal,"(890.0, 762.0)",0.6,0.478,1,13879.909
14,False,816,target,"[(1100, 901)]",[],[1],[0.5666666666666667],horizontal,"(890.0, 762.0)",0.8666666666666667,0.52,1,13884.302
14,False,817,target,"[(1072, 902)]",[],[1],[],vertical,"(890.0, 762.0)",,cti_phase,0,13888.619
14,False,818,target,"[(1084, 878)]",[],[1],[0.48333333333333334],vertical,"(890.0, 762.0)",1.4,0.438,1,13893.188
14,False,819,target,"[(1097, 899)]",[],[1],[0.85],horizontal,"(390.0, 262.0)",0.5833333333333334,nan,0,13901.067
14,False,820,target,"[(1076, 891)]",[],[1],[0.15],vertical,"(890.0, 262.0)",1.3666666666666667,0.119,1,13905.942
14,False,821,target,"[(1096, 905)]",[],[1],[0.13333333333333333],vertical,"(390.0, 262.0)",1.6833333333333333,0.101,1,13911.457
14,False,822,target,"[(1071, 914)]",[],[1],[0.43333333333333335],horizontal,"(390.0, 262.0)",1.4666666666666666,0.396,1,13916.336
14,False,823,target,"[(1086, 895)]",[],[1],[],vertical,"(890.0, 262.0)",,cti_phase,0,13921.682
14,False,824,target,"[(1083, 884)]",[],[1],[0.7166666666666667],vertical,"(390.0, 762.0)",0.85,0.676,1,13926.457
14,False,825,target,"[(1086, 883)]",[],[1],[0.35],vertical,"(390.0, 262.0)",1.5333333333333332,0.311,1,13932.622
14,False,826,catch,"[(1057, 900)]",[],[1],[0.4166666666666667],horizontal,"(390.0, 262.0)",0.9,0.381,0,13937.774
14,False,827,target,"[(1067, 896)]",[],[1],[0.5166666666666666],horizontal,"(890.0, 262.0)",0.5166666666666666,0.48,1,13942.273
14,False,828,target,"[(1091, 898)]",[],[1],[],horizontal,"(390.0, 762.0)",,cti_phase,0,13946.708
14,False,829,target,"[(1078, 890)]",[],[1],[0.4166666666666667],horizontal,"(890.0, 762.0)",1.3666666666666667,0.381,1,13950.618
14,False,830,target,"[(1072, 888)]",[],[1],[0.55],horizontal,"(390.0, 762.0)",0.9333333333333333,0.509,1,13956.753
14,False,831,catch,"[(1096, 876)]",[],[1],[0.6666666666666666],vertical,"(890.0, 262.0)",1.3333333333333333,0.622,0,13961.676
14,False,832,target,"[(1096, 882)]",[],[1],[0.55],vertical,"(390.0, 262.0)",1.45,0.507,1,13966.601
14,False,833,target,"[(1079, 885)]",[],[1],[0.5333333333333333],horizontal,"(890.0, 262.0)",1.05,0.491,1,13972.851
14,False,834,target,"[(1070, 895)]",[],[1],[0.5833333333333334],horizontal,"(890.0, 762.0)",0.7833333333333333,0.544,1,13977.293
14,False,835,target,"[(1071, 891)]",[],[1],[0.5166666666666666],vertical,"(890.0, 762.0)",0.8833333333333333,0.477,1,13981.841
14,False,836,target,"[(1096, 889)]",[],[1],[0.4166666666666667],horizontal,"(390.0, 762.0)",1.6,0.379,1,13985.992
14,False,837,target,"[(1073, 900)]",[],[1],[0.5833333333333334],vertical,"(890.0, 262.0)",1.25,0.545,1,13991.058
14,False,838,target,"[(1071, 885)]",[],[1],[0.43333333333333335],horizontal,"(390.0, 762.0)",1.2333333333333334,0.401,1,13995.796
14,False,839,target,"[(1067, 872)]",[],[1],[0.3],horizontal,"(390.0, 762.0)",1.3833333333333333,0.267,1,14000.504
14,False,840,target,"[(1091, 892)]",[],[1],[0.5166666666666666],horizontal,"(890.0, 262.0)",1.1,0.477,1,14006.154
15,False,841,target,"[(1091, 892)]",[],[1],[0.5666666666666667],vertical,"(390.0, 762.0)",1.1166666666666667,0.527,1,14010.927
15,False,842,target,"[(1091, 893)]",[],[1],[0.5833333333333334],vertical,"(390.0, 262.0)",0.55,0.541,1,14015.777
15,False,843,target,"[(1067, 893)]",[],[1],[0.5666666666666667],horizontal,"(390.0, 762.0)",0.7833333333333333,0.53,1,14020.238
15,False,844,target,"[(1129, 897)]",[],[1],[0.5333333333333333],horizontal,"(890.0, 762.0)",0.9333333333333333,0.49,1,14025.105
15,False,845,target,"[(762, 809), (1069, 911)]",[],"[0, 1]",[0.85],vertical,"(890.0, 762.0)",1.55,nan,0,14029.754
15,False,846,target,"[(1098, 911)]",[],[1],[0.5833333333333334],horizontal,"(890.0, 262.0)",1.4666666666666666,0.543,1,14049.607
15,False,847,target,"[(1071, 891)]",[],[1],[0.5333333333333333],vertical,"(890.0, 762.0)",1.3,0.495,1,14054.509
15,False,848,target,"[(1081, 892)]",[],[1],[0.5666666666666667],vertical,"(390.0, 262.0)",1.05,0.524,1,14059.155
15,False,849,target,"[(1081, 899)]",[],[1],[0.3],vertical,"(390.0, 762.0)",1.6,0.266,1,14063.768
15,False,850,target,"[(1081, 891)]",[],[1],[],vertical,"(890.0, 762.0)",,cti_phase,0,14068.564
15,False,851,target,"[(1079, 862)]",[],[1],[0.5166666666666666],horizontal,"(390.0, 262.0)",0.7666666666666666,0.476,1,14072.9
15,False,852,target,"[(1104, 884)]",[],[1],[0.4166666666666667],horizontal,"(890.0, 262.0)",1.5333333333333332,0.376,1,14077.059
15,False,853,target,"[(1062, 895)]",[],[1],[0.65],vertical,"(390.0, 762.0)",0.85,0.605,1,14081.771
15,False,854,target,"[(1062, 861)]",[],[1],[0.43333333333333335],horizontal,"(390.0, 262.0)",1.25,0.397,1,14092.649
15,False,855,target,"[(1083, 882)]",[],[1],[0.25],horizontal,"(390.0, 262.0)",1.65,0.217,1,14097.74
15,False,856,target,"[(1092, 887)]",[],[1],[0.5166666666666666],vertical,"(390.0, 762.0)",1.4333333333333333,0.476,1,14102.425
15,False,857,catch,"[(1102, 885)]",[],[1],[0.7666666666666666],vertical,"(890.0, 762.0)",1.1,0.721,0,14107.056
15,False,858,target,"[(1093, 881)]",[],[1],[0.5166666666666666],vertical,"(890.0, 262.0)",0.6666666666666666,0.479,1,14111.718
15,False,859,target,"[(1089, 880)]",[],[1],[0.6166666666666667],vertical,"(890.0, 762.0)",0.5,0.571,1,14116.686
15,False,860,catch,"[(1076, 887)]",[],[1],[0.85],vertical,"(390.0, 762.0)",1.2166666666666666,nan,1,14120.831
