block,practice,trial,change_interval_s,change_interval_frames,taps_start_time_during_fix,taps_end_time_during_fix,taps_start_loc_during_fix,taps_end_loc_during_fix,taps_on_lever_during_fix,taps_on_lever_frame_during_fix,taps_on_lever_s_during_fix,fix_xy,bar_orientation,target_xy,cti,rt,acc,time
1,True,1,0.95,57,[],[],"[(1140, 831)]",[],[1],[26],[0.43333333333333335],"[640.0, 512.0]",horizontal,"(390.0, 262.0)",[0.7333333333333333],[0.398],1,0.421
1,True,2,0.509,30,[],[],"[(1140, 831)]",[],[1],[22],[0.36666666666666664],"[640.0, 512.0]",vertical,"(890.0, 262.0)",[0.8333333333333334],[0.327],1,15.828
1,True,3,0.777,46,[],[],"[(1139, 830)]",[],[1],[22],[0.36666666666666664],"[640.0, 512.0]",vertical,"(890.0, 262.0)",[0.6833333333333333],[0.327],1,19.274
1,True,4,0.889,53,[],[],"[(1127, 886)]",[],[1],[],[],"[640.0, 512.0]",horizontal,"(890.0, 262.0)",[],[0],0,23.038
1,False,1,0.776,46,[],[],"[(1102, 886)]",[],[1],[32],[0.5333333333333333],"[640.0, 512.0]",vertical,"(390.0, 762.0)",[0.9333333333333333],[0.493],1,840.135
1,False,2,0.989,59,[],[],"[(1110, 870)]",[],[1],[],[],"[640.0, 512.0]",horizontal,"(390.0, 762.0)",[],[0],0,849.439
1,False,3,1.159,69,[],[],"[(1100, 872)]",[],[1],[51],[0.85],"[640.0, 512.0]",vertical,"(890.0, 262.0)",[1.35],[0.81],0,854.774
1,False,4,1.152,69,[],[],"[(1076, 862)]",[],[1],[31],[0.5166666666666666],"[640.0, 512.0]",vertical,"(890.0, 262.0)",[1.5333333333333332],[0.475],1,861.594
1,False,5,0.692,41,[],[],"[(1139, 861)]",[],[1],[34],[0.5666666666666667],"[640.0, 512.0]",vertical,"(890.0, 262.0)",[1.55],[0.525],1,872.884
1,False,6,1.025,61,[],[],"[(1078, 876)]",[],[1],[34],[0.5666666666666667],"[640.0, 512.0]",vertical,"(890.0, 762.0)",[0.55],[0.526],1,877.63
1,False,7,0.514,30,[],[],"[(1070, 867)]",[],[1],[51],[0.85],"[640.0, 512.0]",horizontal,"(390.0, 762.0)",[1.1166666666666667],[0.799],0,882.359
1,False,8,0.74,44,[],[],"[(1067, 881)]",[],[1],[40],[0.6666666666666666],"[640.0, 512.0]",horizontal,"(890.0, 262.0)",[0.9833333333333333],[0.629],1,888.29
1,False,9,0.58,34,[],[],"[(1100, 861)]",[],[1],[34],[0.5666666666666667],"[640.0, 512.0]",vertical,"(890.0, 762.0)",[0.7333333333333333],[0.529],1,892.562
1,False,10,0.875,52,[],[],"[(1100, 855)]",[],[1],[35],[0.5833333333333334],"[640.0, 512.0]",horizontal,"(390.0, 262.0)",[1.2],[0.537],1,896.522
1,False,11,0.707,42,[],[],"[(1118, 886)]",[],[1],[33],[0.55],"[640.0, 512.0]",horizontal,"(390.0, 262.0)",[1.35],[0.514],1,901.58
1,False,12,0.99,59,[],[924954],"[(1113, 838)]","[(1062, 851)]",[1],[9],[0.15],"[640.0, 512.0]",horizontal,"(890.0, 262.0)",[],[0],0,906.386
1,False,13,0.639,38,[],[],"[(1100, 876)]",[],[1],[],[],"[640.0, 512.0]",horizontal,"(390.0, 762.0)",[],[0],0,909.402
1,False,14,0.805,48,[],[],"[(1046, 892)]",[],[1],[51],[0.85],"[640.0, 512.0]",horizontal,"(890.0, 262.0)",[0.6833333333333333],[0.802],0,913.809
1,False,15,0.673,40,[],[5754598],"[(1129, 880)]","[(1114, 883)]",[1],[1],[0.016666666666666666],"[640.0, 512.0]",horizontal,"(890.0, 762.0)",[],[0],0,1472.164
1,False,16,0.821,49,[],[],"[(1115, 847)]",[],[1],[],[],"[640.0, 512.0]",horizontal,"(890.0, 762.0)",[],[0],0,5739.028
1,False,17,1.151,69,[],[],"[(1134, 853)]",[],[1],[33],[0.55],"[640.0, 512.0]",vertical,"(390.0, 762.0)",[0.5],[0.507],1,5741.926
1,False,18,1.05,63,[],[5767556],"[(1131, 852)]","[(1110, 868)]",[1],[41],[0.6833333333333333],"[640.0, 512.0]",horizontal,"(390.0, 262.0)",[],[0],0,5749.278
1,False,19,1.195,71,[],[5769845],"[(1118, 863)]","[(1102, 872)]",[1],[12],[0.2],"[640.0, 512.0]",vertical,"(890.0, 762.0)",[],[0],0,5751.993
1,False,20,1.041,62,[],[],"[(1134, 848)]",[],[1],[35],[0.5833333333333334],"[640.0, 512.0]",vertical,"(890.0, 762.0)",[1.6333333333333333],[0.551],1,5754.276
1,False,21,0.509,30,[],[],"[(1100, 858)]",[],[1],[32],[0.5333333333333333],"[640.0, 512.0]",vertical,"(890.0, 262.0)",[1.45],[0.494],1,5759.525
1,False,22,1.035,62,[],[5785941],"[(1110, 853)]","[(1052, 873)]",[1],[12],[0.2],"[640.0, 512.0]",horizontal,"(890.0, 262.0)",[],[0],0,5768.106
1,False,23,1.186,71,[],[5788544],"[(1103, 872)]","[(1047, 880)]",[1],[36],[0.6],"[640.0, 512.0]",horizontal,"(890.0, 262.0)",[],[0],0,5770.371
1,False,24,0.54,32,[],[],"[(1076, 867)]",[],[1],[47],[0.7833333333333333],"[640.0, 512.0]",horizontal,"(390.0, 762.0)",[1.25],[0.737],1,5772.978
1,False,25,0.772,46,[],[5797434],"[(1095, 853)]","[(1068, 862)]",[1],[13],[0.21666666666666667],"[640.0, 512.0]",horizontal,"(390.0, 262.0)",[],[0],0,5777.929
1,False,26,0.973,58,[],[],"[(662, 953), (1086, 901)]",[],"[0, 1]",[32],[0.5333333333333333],"[640.0, 512.0]",vertical,"(390.0, 762.0)",[0.55],[0.489],1,5781.87
1,False,27,0.731,43,[],[],"[(1086, 876)]",[],[1],[],[],"[640.0, 512.0]",horizontal,"(390.0, 762.0)",[],[0],0,7246.047
1,False,28,1.001,60,[],[],"[(1079, 893)]",[],[1],[],[],"[640.0, 512.0]",horizontal,"(890.0, 262.0)",[],[0],0,7249.339
1,False,29,0.942,56,[],[],"[(1081, 859)]",[],[1],[],[],"[640.0, 512.0]",vertical,"(390.0, 262.0)",[],[0],0,7256.573
1,False,30,0.631,37,[],[],"[(1091, 879)]",[],[1],[14],[0.23333333333333334],"[640.0, 512.0]",horizontal,"(390.0, 762.0)",[1.1833333333333333],[0.199],1,7262.483
1,False,31,0.803,48,[],[],"[(1086, 874)]",[],[1],[],[],"[640.0, 512.0]",horizontal,"(390.0, 762.0)",[],[0],0,7266.684
1,False,32,0.574,34,[],[],"[(1125, 866)]",[],[1],[38],[0.6333333333333333],"[640.0, 512.0]",vertical,"(890.0, 762.0)",[0.9833333333333333],[0.591],1,7271.25
1,False,33,0.829,49,[],[],"[(1120, 898)]",[],[1],[29],[0.48333333333333334],"[640.0, 512.0]",vertical,"(890.0, 262.0)",[0.9833333333333333],[0.443],1,7275.429
1,False,34,1.011,60,[],[],"[(1115, 893)]",[],[1],[30],[0.5],"[640.0, 512.0]",horizontal,"(890.0, 262.0)",[1.3],[0.463],1,7279.744
1,False,35,0.975,58,[],[],"[(1129, 877)]",[],[1],[32],[0.5333333333333333],"[640.0, 512.0]",vertical,"(890.0, 762.0)",[0.7],[0.492],1,7284.497
1,False,36,0.501,30,[],[],"[(1100, 886)]",[],[1],[34],[0.5666666666666667],"[640.0, 512.0]",vertical,"(890.0, 762.0)",[0.85],[0.528],1,7288.781
1,False,37,0.965,57,[],[],"[(1110, 893)]",[],[1],[30],[0.5],"[640.0, 512.0]",horizontal,"(390.0, 262.0)",[0.7333333333333333],[0.463],1,7292.985
1,False,38,0.594,35,[],[],"[(1077, 885)]",[],[1],[32],[0.5333333333333333],"[640.0, 512.0]",horizontal,"(890.0, 762.0)",[1.3166666666666667],[0.493],1,7297.162
1,False,39,0.83,49,[],[],"[(1076, 902)]",[],[1],[27],[0.45],"[640.0, 512.0]",vertical,"(390.0, 262.0)",[0.5666666666666667],[0.411],1,7301.723
1,False,40,0.684,41,[],[],"[(1077, 890)]",[],[1],[29],[0.48333333333333334],"[640.0, 512.0]",vertical,"(890.0, 262.0)",[1.6166666666666667],[0.442],1,7305.795
1,False,41,1.177,70,[],[],"[(1134, 850)]",[],[1],[],[],"[640.0, 512.0]",horizontal,"(390.0, 262.0)",[],[0],0,7310.708
1,False,42,0.906,54,[],[7332830],"[(1107, 872)]","[(1096, 871)]",[1],[23],[0.3833333333333333],"[640.0, 512.0]",vertical,"(890.0, 762.0)",[],[0],0,7314.675
1,False,43,0.832,49,[],[],"[(1101, 843)]",[],[1],[],[],"[640.0, 512.0]",horizontal,"(890.0, 262.0)",[],[0],0,7317.26
1,False,44,1.181,70,[],[7340608],"[(1109, 852)]","[(1101, 859)]",[1],[49],[0.8166666666666667],"[640.0, 512.0]",vertical,"(390.0, 762.0)",[],[0],0,7321.135
1,False,45,0.509,30,[],[],"[(1100, 849)]",[],[1],[],[],"[640.0, 512.0]",horizontal,"(390.0, 762.0)",[],[0],0,7325.049
1,False,46,0.817,49,[],[],"[(1100, 877)]",[],[1],[32],[0.5333333333333333],"[640.0, 512.0]",horizontal,"(390.0, 762.0)",[0.5166666666666666],[0.494],1,7328.202
1,False,47,0.539,32,[],[],"[(1117, 858)]",[],[1],[],[],"[640.0, 512.0]",horizontal,"(390.0, 262.0)",[],[0],0,7332.041
1,False,48,1.087,65,[],[],"[(1110, 867)]",[],[1],[],[],"[640.0, 512.0]",vertical,"(390.0, 762.0)",[],[0],0,7335.784
1,False,49,0.529,31,[],[],"[(1052, 892)]",[],[1],[29],[0.48333333333333334],"[640.0, 512.0]",horizontal,"(390.0, 262.0)",[1.3333333333333333],[0.439],1,7339.802
1,False,50,0.654,39,[],[],"[(1086, 904)]",[],[1],[30],[0.5],"[640.0, 512.0]",horizontal,"(890.0, 762.0)",[0.5666666666666667],[0.458],1,7344.636
1,False,51,0.825,49,[],[],"[(1135, 891)]",[],[1],[34],[0.5666666666666667],"[640.0, 512.0]",horizontal,"(890.0, 262.0)",[1.5],[0.524],1,7348.451
1,False,52,0.884,53,[],[],"[(1105, 858)]",[],[1],[29],[0.48333333333333334],"[640.0, 512.0]",horizontal,"(890.0, 262.0)",[0.75],[0.448],1,7353.409
1,False,53,1.068,64,[],[],"[(1100, 888)]",[],[1],[33],[0.55],"[640.0, 512.0]",horizontal,"(390.0, 762.0)",[0.6333333333333333],[0.51],1,7357.703
1,False,54,0.685,41,[],[],"[(1091, 891)]",[],[1],[19],[0.31666666666666665],"[640.0, 512.0]",vertical,"(390.0, 762.0)",[1.45],[0.279],1,7362.02
1,False,55,0.919,55,[],[],"[(1081, 902)]",[],[1],[],[],"[640.0, 512.0]",vertical,"(890.0, 262.0)",[],[0],0,7366.618
1,False,56,0.824,49,[],[],"[(1105, 854)]",[],[1],[],[],"[640.0, 512.0]",horizontal,"(890.0, 262.0)",[],[0],0,7370.984
1,False,57,0.589,35,[],[],"[(1110, 856)]",[],[1],[31],[0.5166666666666666],"[640.0, 512.0]",horizontal,"(890.0, 262.0)",[1.6],[0.478],1,7377.889
1,False,58,0.931,55,[],[],"[(1120, 881)]",[],[1],[33],[0.55],"[640.0, 512.0]",horizontal,"(890.0, 762.0)",[1.15],[0.504],1,7382.567
1,False,59,0.787,47,[],[],"[(1100, 867)]",[],[1],[29],[0.48333333333333334],"[640.0, 512.0]",horizontal,"(890.0, 262.0)",[0.95],[0.444],1,7387.283
1,False,60,0.749,44,[],[],"[(1105, 875)]",[],[1],[30],[0.5],"[640.0, 512.0]",horizontal,"(890.0, 262.0)",[0.5666666666666667],[0.462],1,7391.619
2,False,61,1.143,68,[],[],"[(1105, 890)]",[],[1],[],[],"[640.0, 512.0]",horizontal,"(890.0, 262.0)",[],[0],0,7395.585
2,False,62,0.891,53,[],[7417928],"[(1094, 864)]","[(1081, 868)]",[1],[12],[0.2],"[640.0, 512.0]",horizontal,"(390.0, 762.0)",[],[0],0,7399.397
2,False,63,0.839,50,[],[],"[(1086, 881)]",[],[1],[30],[0.5],"[640.0, 512.0]",horizontal,"(890.0, 262.0)",[1.0166666666666666],[0.466],1,7402.365
2,False,64,0.918,55,[],[],"[(1076, 886)]",[],[1],[28],[0.4666666666666667],"[640.0, 512.0]",horizontal,"(890.0, 262.0)",[0.6333333333333333],[0.428],1,7406.689
2,False,65,1.025,61,[],[],"[(1106, 881)]",[],[1],[28],[0.4666666666666667],"[640.0, 512.0]",horizontal,"(390.0, 262.0)",[1.6666666666666667],[0.428],1,7410.819
2,False,66,0.552,33,[],[],"[(1100, 876)]",[],[1],[34],[0.5666666666666667],"[640.0, 512.0]",horizontal,"(390.0, 762.0)",[0.5],[0.522],1,7416.055
2,False,67,1.124,67,[],[],"[(1105, 880)]",[],[1],[28],[0.4666666666666667],"[640.0, 512.0]",vertical,"(890.0, 262.0)",[1.3333333333333333],[0.428],1,7419.767
2,False,68,0.864,51,[],[],"[(1124, 892)]",[],[1],[29],[0.48333333333333334],"[640.0, 512.0]",vertical,"(390.0, 262.0)",[0.5],[0.442],1,7424.732
2,False,69,0.882,52,[],[],"[(1100, 886)]",[],[1],[27],[0.45],"[640.0, 512.0]",horizontal,"(390.0, 262.0)",[0.9],[0.415],1,7449.905
2,False,70,1.181,70,[],[],"[(1084, 880)]",[],[1],[29],[0.48333333333333334],"[640.0, 512.0]",vertical,"(390.0, 262.0)",[1.55],[0.444],1,7454.085
2,False,71,0.758,45,[],[],"[(1107, 856)]",[],[1],[31],[0.5166666666666666],"[640.0, 512.0]",horizontal,"(390.0, 762.0)",[1.25],[0.473],1,7459.6
2,False,72,0.57,34,[],[],"[(1098, 876)]",[],[1],[30],[0.5],"[640.0, 512.0]",vertical,"(390.0, 762.0)",[0.5166666666666666],[0.458],1,7464.262
2,False,73,0.755,45,[],[],"[(1100, 876)]",[],[1],[33],[0.55],"[640.0, 512.0]",vertical,"(890.0, 262.0)",[1.6166666666666667],[0.513],1,7467.765
2,False,74,0.654,39,[],[],"[(1105, 881)]",[],[1],[31],[0.5166666666666666],"[640.0, 512.0]",horizontal,"(390.0, 762.0)",[1.4666666666666666],[0.476],1,7472.925
2,False,75,0.649,38,[],[],"[(1103, 887)]",[],[1],[30],[0.5],"[640.0, 512.0]",horizontal,"(890.0, 262.0)",[1.5333333333333332],[0.459],1,7477.629
2,False,76,1.05,63,[],[],"[(1124, 893)]",[],[1],[8],[0.13333333333333333],"[640.0, 512.0]",vertical,"(890.0, 762.0)",[0.75],[0.103],1,7482.3
2,False,77,0.868,52,[],[],"[(1105, 889)]",[],[1],[31],[0.5166666666666666],"[640.0, 512.0]",vertical,"(890.0, 262.0)",[1.2333333333333334],[0.48],1,7486.189
2,False,78,0.965,57,[],[],"[(1124, 901)]",[],[1],[29],[0.48333333333333334],"[640.0, 512.0]",horizontal,"(890.0, 762.0)",[0.6833333333333333],[0.441],1,7497.746
2,False,79,0.831,49,[],[],"[(1105, 894)]",[],[1],[],[],"[640.0, 512.0]",horizontal,"(890.0, 762.0)",[],[0],0,7501.923
2,False,80,1.028,61,[],[],"[(1122, 872)]",[],[1],[31],[0.5166666666666666],"[640.0, 512.0]",vertical,"(890.0, 762.0)",[1.5666666666666667],[0.475],1,7505.955
2,False,81,1.052,63,[],[],"[(1110, 872)]",[],[1],[],[],"[640.0, 512.0]",horizontal,"(890.0, 262.0)",[],[0],0,7510.954
2,False,82,0.522,31,[],[],"[(1105, 864)]",[],[1],[],[],"[640.0, 512.0]",vertical,"(390.0, 262.0)",[],[0],0,7515.035
2,False,83,0.91,54,[],[],"[(1115, 846)]",[],[1],[],[],"[640.0, 512.0]",horizontal,"(890.0, 762.0)",[],[0],0,7518.277
2,False,84,0.606,36,[],[],"[(1100, 874)]",[],[1],[],[],"[640.0, 512.0]",horizontal,"(390.0, 762.0)",[],[0],0,7521.827
2,False,85,1.09,65,[],[],"[(1096, 877)]",[],[1],[29],[0.48333333333333334],"[640.0, 512.0]",horizontal,"(890.0, 262.0)",[0.6],[0.444],1,7525.777
2,False,86,1.138,68,[],[],"[(1102, 865)]",[],[1],[29],[0.48333333333333334],"[640.0, 512.0]",vertical,"(390.0, 262.0)",[0.55],[0.448],1,7530.031
2,False,87,0.58,34,[],[],"[(1091, 876)]",[],[1],[34],[0.5666666666666667],"[640.0, 512.0]",horizontal,"(390.0, 762.0)",[0.5666666666666667],[0.529],1,7534.338
2,False,88,0.841,50,[],[],"[(1085, 876)]",[],[1],[32],[0.5333333333333333],"[640.0, 512.0]",vertical,"(390.0, 762.0)",[1.4833333333333334],[0.494],1,7537.997
2,False,89,1.083,64,[],[],"[(1094, 867)]",[],[1],[30],[0.5],"[640.0, 512.0]",vertical,"(890.0, 762.0)",[0.5666666666666667],[0.462],1,7542.934
2,False,90,0.726,43,[],[],"[(1101, 896)]",[],[1],[],[],"[640.0, 512.0]",horizontal,"(390.0, 262.0)",[],[0],0,7547.133
2,False,91,0.919,55,[],[],"[(1067, 876)]",[],[1],[30],[0.5],"[640.0, 512.0]",vertical,"(890.0, 762.0)",[1.5833333333333333],[0.466],1,7551.086
2,False,92,0.726,43,[],[],"[(1129, 891)]",[],[1],[29],[0.48333333333333334],"[640.0, 512.0]",horizontal,"(390.0, 762.0)",[0.9333333333333333],[0.45],1,7556.163
2,False,93,0.578,34,[],[],"[(1101, 886)]",[],[1],[32],[0.5333333333333333],"[640.0, 512.0]",vertical,"(390.0, 262.0)",[1.6333333333333333],[0.499],1,7560.447
2,False,94,0.936,56,[],[],"[(1096, 874)]",[],[1],[32],[0.5333333333333333],"[640.0, 512.0]",vertical,"(890.0, 762.0)",[1.3333333333333333],[0.494],1,7565.314
2,False,95,0.775,46,[],[],"[(1091, 876)]",[],[1],[31],[0.5166666666666666],"[640.0, 512.0]",vertical,"(890.0, 762.0)",[0.5333333333333333],[0.476],1,7570.275
2,False,96,0.71,42,[],[],"[(1055, 889)]",[],[1],[30],[0.5],"[640.0, 512.0]",vertical,"(390.0, 262.0)",[1.0666666666666667],[0.46],1,7574.105
2,False,97,0.974,58,[],[],"[(1081, 882)]",[],[1],[29],[0.48333333333333334],"[640.0, 512.0]",horizontal,"(390.0, 262.0)",[1.6333333333333333],[0.443],1,7578.601
2,False,98,0.968,58,[],[],"[(1098, 862)]",[],[1],[],[],"[640.0, 512.0]",vertical,"(890.0, 762.0)",[],[0],0,7583.637
2,False,99,1.0,60,[],[],"[(1100, 867)]",[],[1],[],[],"[640.0, 512.0]",horizontal,"(890.0, 762.0)",[],[0],0,7587.382
2,False,100,0.62,37,[],[],"[(1119, 865)]",[],[1],[28],[0.4666666666666667],"[640.0, 512.0]",vertical,"(390.0, 262.0)",[0.8833333333333333],[0.427],1,7591.282
2,False,101,1.042,62,[],[],"[(1129, 881)]",[],[1],[31],[0.5166666666666666],"[640.0, 512.0]",vertical,"(390.0, 762.0)",[1.1833333333333333],[0.472],1,7595.418
2,False,102,0.628,37,[],[],"[(1116, 866)]",[],[1],[30],[0.5],"[640.0, 512.0]",vertical,"(890.0, 762.0)",[0.7333333333333333],[0.459],1,7600.225
2,False,103,0.967,58,[],[],"[(1109, 871)]",[],[1],[29],[0.48333333333333334],"[640.0, 512.0]",vertical,"(890.0, 262.0)",[1.6],[0.443],1,7604.172
2,False,104,0.709,42,[],[],"[(1109, 871)]",[],[1],[16],[0.26666666666666666],"[640.0, 512.0]",horizontal,"(390.0, 262.0)",[1.0833333333333333],[0.234],1,7609.232
2,False,105,1.145,68,[],[],"[(1100, 886)]",[],[1],[32],[0.5333333333333333],"[640.0, 512.0]",vertical,"(890.0, 762.0)",[0.5833333333333334],[0.491],1,7613.465
2,False,106,1.004,60,[],[],"[(1105, 881)]",[],[1],[],[],"[640.0, 512.0]",horizontal,"(390.0, 262.0)",[],[0],0,7617.908
2,False,107,0.781,46,[],[],"[(1079, 867)]",[],[1],[32],[0.5333333333333333],"[640.0, 512.0]",horizontal,"(890.0, 762.0)",[1.0333333333333332],[0.492],1,7622.139
2,False,108,0.699,41,[],[],"[(1081, 867)]",[],[1],[31],[0.5166666666666666],"[640.0, 512.0]",vertical,"(890.0, 762.0)",[1.1666666666666667],[0.472],1,7626.497
2,False,109,0.981,58,[],[],"[(1081, 867)]",[],[1],[32],[0.5333333333333333],"[640.0, 512.0]",vertical,"(390.0, 762.0)",[1.3],[0.492],1,7631.248
2,False,110,0.547,32,[],[],"[(1081, 879)]",[],[1],[29],[0.48333333333333334],"[640.0, 512.0]",vertical,"(390.0, 262.0)",[1.6166666666666667],[0.441],1,7636.455
2,False,111,0.752,45,[],[],"[(1113, 885)]",[],[1],[30],[0.5],"[640.0, 512.0]",horizontal,"(390.0, 262.0)",[0.5666666666666667],[0.46],1,7641.269
2,False,112,0.508,30,[],[],"[(1101, 877)]",[],[1],[31],[0.5166666666666666],"[640.0, 512.0]",horizontal,"(390.0, 262.0)",[0.95],[0.476],1,7645.263
2,False,113,0.949,56,[],[],"[(1091, 897)]",[],[1],[31],[0.5166666666666666],"[640.0, 512.0]",vertical,"(890.0, 762.0)",[0.9166666666666666],[0.476],1,7649.299
2,False,114,0.718,43,[],[],"[(1082, 876)]",[],[1],[33],[0.55],"[640.0, 512.0]",vertical,"(390.0, 262.0)",[1.0333333333333332],[0.52],1,7653.855
2,False,115,0.613,36,[],[],"[(1076, 867)]",[],[1],[32],[0.5333333333333333],"[640.0, 512.0]",horizontal,"(890.0, 262.0)",[0.5],[0.497],1,7658.164
2,False,116,0.626,37,[],[],"[(1070, 885)]",[],[1],[30],[0.5],"[640.0, 512.0]",horizontal,"(890.0, 762.0)",[1.5],[0.468],1,7662.161
2,False,117,0.834,50,[],[],"[(1076, 870)]",[],[1],[],[],"[640.0, 512.0]",horizontal,"(890.0, 262.0)",[],[0],0,7666.783
2,False,118,0.551,33,[],[],"[(1081, 857)]",[],[1],[],[],"[640.0, 512.0]",horizontal,"(390.0, 262.0)",[],[0],0,7672.188
2,False,119,0.753,45,[],[7695108],"[(1107, 858)]","[(1105, 868)]",[1],[42],[0.7],"[640.0, 512.0]",horizontal,"(890.0, 262.0)",[],[0],0,7676.684
2,False,120,0.55,33,[],[],"[(1078, 856)]",[],[1],[],[],"[640.0, 512.0]",horizontal,"(890.0, 762.0)",[],[0],0,7679.551
3,False,121,0.946,56,[],[],"[(1087, 872)]",[],[1],[30],[0.5],"[640.0, 512.0]",vertical,"(390.0, 762.0)",[0.8166666666666667],[0.459],1,7683.029
3,False,122,0.858,51,[],[],"[(1086, 882)]",[],[1],[4],[0.06666666666666667],"[640.0, 512.0]",horizontal,"(390.0, 762.0)",[1.3166666666666667],[0.036],1,7687.209
3,False,123,0.778,46,[],[],"[(1081, 876)]",[],[1],[30],[0.5],"[640.0, 512.0]",horizontal,"(390.0, 262.0)",[0.5666666666666667],[0.463],1,7691.489
3,False,124,1.183,70,[],[],"[(1025, 879), (1081, 863)]",[],"[0, 1]",[37],[0.6166666666666667],"[640.0, 512.0]",horizontal,"(890.0, 762.0)",[0.55],[0.576],1,7695.436
3,False,125,0.537,32,[],[],"[(1088, 896)]",[],[1],[28],[0.4666666666666667],"[640.0, 512.0]",horizontal,"(390.0, 262.0)",[1.2166666666666666],[0.426],1,7701.319
3,False,126,0.97,58,[],[],"[(1076, 877)]",[],[1],[30],[0.5],"[640.0, 512.0]",vertical,"(390.0, 262.0)",[0.8833333333333333],[0.462],1,7705.651
3,False,127,0.734,44,[],[],"[(1106, 880)]",[],[1],[33],[0.55],"[640.0, 512.0]",horizontal,"(390.0, 762.0)",[0.8666666666666667],[0.507],1,7710.289
3,False,128,0.516,30,[],[],"[(1081, 881)]",[],[1],[33],[0.55],"[640.0, 512.0]",horizontal,"(390.0, 262.0)",[1.05],[0.521],1,7714.702
3,False,129,1.046,62,[],[],"[(1086, 877)]",[],[1],[],[],"[640.0, 512.0]",horizontal,"(890.0, 262.0)",[],[0],0,7718.941
3,False,130,0.987,59,[],[7741955],"[(1088, 865)]","[(1076, 867)]",[1],[22],[0.36666666666666664],"[640.0, 512.0]",vertical,"(890.0, 262.0)",[],[0],0,7723.51
3,False,131,0.826,49,[],[],"[(1106, 844)]",[],[1],[],[],"[640.0, 512.0]",vertical,"(890.0, 262.0)",[],[0],0,7726.398
3,False,132,0.827,49,[],[],"[(1103, 856)]",[],[1],[32],[0.5333333333333333],"[640.0, 512.0]",vertical,"(890.0, 762.0)",[1.3166666666666667],[0.492],1,7729.57
3,False,133,0.521,31,[],[],"[(1129, 881)]",[],[1],[35],[0.5833333333333334],"[640.0, 512.0]",vertical,"(890.0, 262.0)",[0.5166666666666666],[0.546],1,7734.133
3,False,134,0.888,53,[],[],"[(1081, 858)]",[],[1],[32],[0.5333333333333333],"[640.0, 512.0]",horizontal,"(390.0, 762.0)",[1.0666666666666667],[0.485],1,7737.932
3,False,135,1.064,63,[],[],"[(1121, 882)]",[],[1],[30],[0.5],"[640.0, 512.0]",vertical,"(890.0, 262.0)",[1.1666666666666667],[0.467],1,7742.262
3,False,136,0.992,59,[],[],"[(1086, 865)]",[],[1],[34],[0.5666666666666667],"[640.0, 512.0]",horizontal,"(890.0, 762.0)",[1.0166666666666666],[0.531],1,7746.981
3,False,137,1.192,71,[],[],"[(1133, 876)]",[],[1],[32],[0.5333333333333333],"[640.0, 512.0]",horizontal,"(390.0, 762.0)",[1.6333333333333333],[0.492],1,7751.604
3,False,138,1.184,71,[],[],"[(1081, 877)]",[],[1],[27],[0.45],"[640.0, 512.0]",horizontal,"(390.0, 262.0)",[0.65],[0.408],1,7757.036
3,False,139,0.908,54,[],[],"[(1072, 871)]",[],[1],[34],[0.5666666666666667],"[640.0, 512.0]",vertical,"(890.0, 762.0)",[1.3333333333333333],[0.528],1,7761.321
3,False,140,1.082,64,[],[],"[(1100, 872)]",[],[1],[37],[0.6166666666666667],"[640.0, 512.0]",horizontal,"(890.0, 762.0)",[1.1833333333333333],[0.579],1,7766.217
3,False,141,0.808,48,[],[],"[(1134, 871)]",[],[1],[],[],"[640.0, 512.0]",horizontal,"(390.0, 762.0)",[],[0],0,7771.336
3,False,142,1.029,61,[],[],"[(1086, 858)]",[],[1],[],[],"[640.0, 512.0]",horizontal,"(890.0, 262.0)",[],[0],0,7775.357
3,False,143,1.105,66,[],[],"[(1081, 868)]",[],[1],[30],[0.5],"[640.0, 512.0]",horizontal,"(890.0, 262.0)",[0.7333333333333333],[0.458],1,7780.277
3,False,144,1.095,65,[],[],"[(1124, 864)]",[],[1],[],[],"[640.0, 512.0]",horizontal,"(890.0, 762.0)",[],[0],0,7784.926
3,False,145,0.88,52,[],[],"[(1096, 891)]",[],[1],[29],[0.48333333333333334],"[640.0, 512.0]",horizontal,"(890.0, 762.0)",[0.6666666666666666],[0.443],1,7789.552
3,False,146,1.181,70,[],[],"[(1096, 864)]",[],[1],[32],[0.5333333333333333],"[640.0, 512.0]",vertical,"(890.0, 262.0)",[0.8333333333333334],[0.491],1,7793.592
3,False,147,0.806,48,[],[],"[(1076, 891)]",[],[1],[32],[0.5333333333333333],"[640.0, 512.0]",vertical,"(390.0, 762.0)",[0.9333333333333333],[0.491],1,7798.266
3,False,148,0.646,38,[],[],"[(1095, 881)]",[],[1],[32],[0.5333333333333333],"[640.0, 512.0]",vertical,"(390.0, 762.0)",[0.9166666666666666],[0.486],1,7802.49
3,False,149,0.982,58,[],[],"[(1081, 873)]",[],[1],[35],[0.5833333333333334],"[640.0, 512.0]",horizontal,"(390.0, 262.0)",[0.7833333333333333],[0.538],1,7806.778
3,False,150,0.587,35,[],[],"[(1107, 893)]",[],[1],[29],[0.48333333333333334],"[640.0, 512.0]",horizontal,"(390.0, 262.0)",[0.75],[0.447],1,7811.092
3,False,151,1.138,68,[],[],"[(1076, 882)]",[],[1],[30],[0.5],"[640.0, 512.0]",horizontal,"(390.0, 262.0)",[0.6166666666666667],[0.456],1,7815.063
3,False,152,1.035,62,[],[],"[(1111, 886)]",[],[1],[29],[0.48333333333333334],"[640.0, 512.0]",horizontal,"(890.0, 262.0)",[0.55],[0.443],1,7819.52
3,False,153,0.676,40,[],[],"[(1093, 886)]",[],[1],[30],[0.5],"[640.0, 512.0]",vertical,"(390.0, 262.0)",[1.3333333333333333],[0.458],1,7823.764
3,False,154,0.552,33,[],[],"[(1089, 876)]",[],[1],[51],[0.85],"[640.0, 512.0]",vertical,"(390.0, 762.0)",[1.1],"[0, 0.801]",0,7828.474
3,False,155,0.803,48,[],[],"[(1076, 865)]",[],[1],[32],[0.5333333333333333],"[640.0, 512.0]",horizontal,"(390.0, 262.0)",[0.85],[0.49],1,7833.292
3,False,156,1.036,62,[],[],"[(1044, 891)]",[],[1],[30],[0.5],"[640.0, 512.0]",horizontal,"(890.0, 262.0)",[1.2833333333333332],[0.457],1,7837.44
3,False,157,0.977,58,[],[],"[(1096, 860)]",[],[1],[29],[0.48333333333333334],"[640.0, 512.0]",horizontal,"(390.0, 262.0)",[1.15],[0.444],1,7842.347
3,False,158,0.584,35,[],[],"[(1096, 859)]",[],[1],[20],[0.3333333333333333],"[640.0, 512.0]",vertical,"(890.0, 262.0)",[0.5],[0.293],1,7847.315
3,False,159,0.966,57,[],[],"[(1079, 865)]",[],[1],[23],[0.3833333333333333],"[640.0, 512.0]",vertical,"(890.0, 262.0)",[1.3666666666666667],[0.35],1,7851.349
3,False,160,1.16,69,[],[],"[(1105, 867)]",[],[1],[],[],"[640.0, 512.0]",horizontal,"(390.0, 262.0)",[],[0],0,7856.165
3,False,161,1.139,68,[],[],"[(1059, 863)]",[],[1],[14],[0.23333333333333334],"[640.0, 512.0]",vertical,"(390.0, 262.0)",[1.3],[0.197],1,7860.068
3,False,162,0.908,54,[],[],"[(1095, 858)]",[],[1],[],[],"[640.0, 512.0]",vertical,"(390.0, 762.0)",[],[0],0,7864.933
3,False,163,1.122,67,[],[],"[(1075, 853)]",[],[1],[],[],"[640.0, 512.0]",horizontal,"(390.0, 762.0)",[],[0],0,7868.711
3,False,164,0.729,43,[],[],"[(1085, 859)]",[],[1],[51],[0.85],"[640.0, 512.0]",vertical,"(890.0, 262.0)",[1.5166666666666666],[0.802],0,7873.711
3,False,165,0.976,58,[],[],"[(1072, 857)]",[],[1],[37],[0.6166666666666667],"[640.0, 512.0]",horizontal,"(390.0, 762.0)",[1.55],[0.577],1,7879.456
3,False,166,0.565,33,[],[],"[(1097, 876)]",[],[1],[37],[0.6166666666666667],"[640.0, 512.0]",horizontal,"(390.0, 262.0)",[1.35],[0.574],1,7884.671
3,False,167,0.67,40,[],[],"[(1125, 879)]",[],[1],[38],[0.6333333333333333],"[640.0, 512.0]",vertical,"(390.0, 762.0)",[0.6],[0.589],1,7889.397
3,False,168,1.168,70,[],[],"[(1076, 877)]",[],[1],[36],[0.6],"[640.0, 512.0]",horizontal,"(390.0, 762.0)",[1.0166666666666666],[0.571],1,7893.244
3,False,169,0.899,53,[],[],"[(1081, 886)]",[],[1],[],[],"[640.0, 512.0]",horizontal,"(390.0, 762.0)",[],[0],0,7898.286
3,False,170,0.693,41,[],[],"[(1089, 867)]",[],[1],[40],[0.6666666666666666],"[640.0, 512.0]",horizontal,"(890.0, 762.0)",[1.4],[0.618],1,7902.754
3,False,171,0.666,39,[],[],"[(1100, 872)]",[],[1],[30],[0.5],"[640.0, 512.0]",horizontal,"(390.0, 262.0)",[1.1166666666666667],[0.459],1,7907.604
3,False,172,0.59,35,[],[],"[(1100, 879)]",[],[1],[32],[0.5333333333333333],"[640.0, 512.0]",vertical,"(890.0, 262.0)",[0.9333333333333333],[0.499],1,7912.023
3,False,173,0.974,58,[],[],"[(1129, 878)]",[],[1],[11],[0.18333333333333332],"[640.0, 512.0]",horizontal,"(390.0, 262.0)",[1.0333333333333332],[0.151],1,7916.163
3,False,174,0.88,52,[],[],"[(1081, 850)]",[],[1],[],[],"[640.0, 512.0]",horizontal,"(390.0, 262.0)",[],[0],0,7920.359
3,False,175,0.994,59,[],[],"[(1081, 858)]",[],[1],[],[],"[640.0, 512.0]",horizontal,"(890.0, 262.0)",[],[0],0,7925.394
3,False,176,0.834,50,[],[],"[(1102, 862)]",[],[1],[38],[0.6333333333333333],"[640.0, 512.0]",horizontal,"(390.0, 762.0)",[1.5666666666666667],[0.594],1,7930.488
3,False,177,0.561,33,[],[],"[(1086, 876)]",[],[1],[31],[0.5166666666666666],"[640.0, 512.0]",vertical,"(890.0, 762.0)",[1.3833333333333333],[0.477],1,7935.521
3,False,178,1.194,71,[],[],"[(1100, 897)]",[],[1],[37],[0.6166666666666667],"[640.0, 512.0]",vertical,"(890.0, 762.0)",[1.6833333333333333],[0.572],1,7940.137
3,False,179,1.016,60,[],[],"[(1083, 879)]",[],[1],[32],[0.5333333333333333],"[640.0, 512.0]",horizontal,"(390.0, 762.0)",[1.1],[0.494],1,7945.588
3,False,180,1.2,72,[],[],"[(1082, 873)]",[],[1],[30],[0.5],"[640.0, 512.0]",horizontal,"(890.0, 262.0)",[0.8333333333333334],[0.46],1,7950.237
4,False,181,0.833,49,[],[],"[(1076, 891)]",[],[1],[30],[0.5],"[640.0, 512.0]",vertical,"(390.0, 262.0)",[1.25],[0.466],1,7954.818
4,False,182,0.948,56,[],[],"[(1085, 859)]",[],[1],[32],[0.5333333333333333],"[640.0, 512.0]",vertical,"(390.0, 762.0)",[1.4],[0.497],1,7959.521
4,False,183,0.73,43,[],[],"[(1100, 880)]",[],[1],[23],[0.3833333333333333],"[640.0, 512.0]",vertical,"(890.0, 762.0)",[0.85],[0.345],1,7964.582
4,False,184,0.98,58,[],[],"[(1084, 886)]",[],[1],[],[],"[640.0, 512.0]",vertical,"(890.0, 762.0)",[],[0],0,7968.67
4,False,185,0.706,42,[],[],"[(1098, 851)]",[],[1],[32],[0.5333333333333333],"[640.0, 512.0]",vertical,"(390.0, 262.0)",[0.6166666666666667],[0.491],1,7972.905
4,False,186,0.665,39,[],[],"[(1094, 880)]",[],[1],[13],[0.21666666666666667],"[640.0, 512.0]",vertical,"(890.0, 762.0)",[0.7666666666666666],[0.182],1,7976.805
4,False,187,1.004,60,[],[7999079],"[(1086, 863)]","[(1086, 863)]",[1],[44],[0.7333333333333333],"[640.0, 512.0]",horizontal,"(890.0, 262.0)",[],[0],0,7980.488
4,False,188,0.887,53,[],[],"[(1076, 872)]",[],[1],[9],[0.15],"[640.0, 512.0]",horizontal,"(390.0, 262.0)",[1.2166666666666666],[0.118],1,7983.515
4,False,189,0.585,35,[],[],"[(1081, 875)]",[],[1],[30],[0.5],"[640.0, 512.0]",vertical,"(390.0, 262.0)",[0.5333333333333333],[0.462],1,7987.793
4,False,190,0.716,42,[],[],"[(1081, 871)]",[],[1],[33],[0.55],"[640.0, 512.0]",horizontal,"(390.0, 262.0)",[0.7833333333333333],[0.506],1,7991.533
4,False,191,0.998,59,[],[],"[(1076, 879)]",[],[1],[31],[0.5166666666666666],"[640.0, 512.0]",horizontal,"(890.0, 762.0)",[1.15],[0.474],1,7995.481
4,False,192,0.644,38,[],[],"[(1080, 858)]",[],[1],[33],[0.55],"[640.0, 512.0]",vertical,"(390.0, 762.0)",[1.6833333333333333],[0.513],1,8000.117
4,False,193,0.841,50,[],[],"[(1081, 867)]",[],[1],[30],[0.5],"[640.0, 512.0]",vertical,"(890.0, 762.0)",[1.1666666666666667],[0.462],1,8004.998
4,False,194,1.085,65,[],[],"[(1082, 885)]",[],[1],[33],[0.55],"[640.0, 512.0]",horizontal,"(890.0, 262.0)",[0.85],[0.51],1,8009.621
4,False,195,0.712,42,[],[],"[(1076, 891)]",[],[1],[31],[0.5166666666666666],"[640.0, 512.0]",vertical,"(890.0, 262.0)",[0.7166666666666667],[0.488],1,8014.099
4,False,196,1.063,63,[],[],"[(1047, 870)]",[],[1],[30],[0.5],"[640.0, 512.0]",horizontal,"(890.0, 262.0)",[0.7333333333333333],[0.47],1,8018.344
4,False,197,0.593,35,[],[],"[(1076, 862)]",[],[1],[32],[0.5333333333333333],"[640.0, 512.0]",horizontal,"(890.0, 762.0)",[1.05],[0.497],1,8022.571
4,False,198,1.179,70,[],[],"[(1064, 874)]",[],[1],[30],[0.5],"[640.0, 512.0]",horizontal,"(890.0, 262.0)",[1.1333333333333333],[0.459],1,8027.049
4,False,199,0.509,30,[],[],"[(1086, 875)]",[],[1],[32],[0.5333333333333333],"[640.0, 512.0]",vertical,"(390.0, 762.0)",[1.6166666666666667],[0.492],1,8032.116
4,False,200,0.875,52,[],[],"[(1101, 886)]",[],[1],[30],[0.5],"[640.0, 512.0]",horizontal,"(890.0, 762.0)",[0.8],[0.461],1,8036.734
4,False,201,0.965,57,[],[],"[(1086, 888)]",[],[1],[34],[0.5666666666666667],"[640.0, 512.0]",vertical,"(890.0, 262.0)",[1.6],[0.532],1,8041.049
4,False,202,0.946,56,[],[],"[(1081, 863)]",[],[1],[30],[0.5],"[640.0, 512.0]",horizontal,"(390.0, 762.0)",[1.65],[0.458],1,8046.303
4,False,203,0.907,54,[],[],"[(1076, 887)]",[],[1],[36],[0.6],"[640.0, 512.0]",horizontal,"(390.0, 762.0)",[0.6],[0.553],1,8051.479
4,False,204,0.531,31,[],[],"[(1076, 876)]",[],[1],[29],[0.48333333333333334],"[640.0, 512.0]",vertical,"(890.0, 762.0)",[1.2],[0.449],1,8055.804
4,False,205,1.163,69,[],[],"[(1045, 865)]",[],[1],[],[],"[640.0, 512.0]",vertical,"(390.0, 762.0)",[],[0],0,8060.173
4,False,206,0.704,42,[],[],"[(1076, 864)]",[],[1],[31],[0.5166666666666666],"[640.0, 512.0]",horizontal,"(390.0, 762.0)",[1.45],[0.473],1,8069.527
4,False,207,0.574,34,[],[],"[(1081, 872)]",[],[1],[12],[0.2],"[640.0, 512.0]",horizontal,"(390.0, 762.0)",[1.5333333333333332],[0.168],1,8074.262
4,False,208,0.885,53,[],[],"[(1108, 881)]",[],[1],[33],[0.55],"[640.0, 512.0]",vertical,"(890.0, 762.0)",[0.7333333333333333],[0.51],1,8078.621
4,False,209,0.957,57,[],[],"[(1047, 877)]",[],[1],[27],[0.45],"[640.0, 512.0]",horizontal,"(890.0, 262.0)",[1.6833333333333333],[0.417],1,8083.02
4,False,210,0.993,59,[],[],"[(1040, 886)]",[],[1],[20],[0.3333333333333333],"[640.0, 512.0]",horizontal,"(390.0, 262.0)",[1.3],[0.295],1,8088.283
4,False,211,0.914,54,[],[],"[(782, 769), (439, 329), (613, 505), (757, 972), (525, 474), (531, 463), (1073, 867)]",[],"[0, 0, 0, 0, 0, 0, 1]",[],[],"[640.0, 512.0]",vertical,"(390.0, 262.0)",[],[0],0,8093.493
4,False,212,1.191,71,[],[],"[(276, 853), (1015, 876), (1109, 832)]",[],"[0, 0, 1]",[],[],"[640.0, 512.0]",vertical,"(390.0, 762.0)",[],[0],0,8107.61
4,False,213,1.006,60,[],[],"[(1072, 855)]",[],[1],[36],[0.6],"[640.0, 512.0]",vertical,"(390.0, 262.0)",[1.3166666666666667],[0.567],1,8114.824
4,False,214,0.553,33,[],[],"[(1110, 886)]",[],[1],[38],[0.6333333333333333],"[640.0, 512.0]",vertical,"(390.0, 762.0)",[1.5],[0.593],1,8120.615
4,False,215,1.083,64,[],[],"[(878, 890), (1076, 860)]",[],"[0, 1]",[51],[0.85],"[640.0, 512.0]",vertical,"(390.0, 262.0)",[0.75],[0.802],0,8125.461
4,False,216,1.151,69,[],[],"[(1081, 847)]",[],[1],[],[],"[640.0, 512.0]",horizontal,"(890.0, 262.0)",[],[0],0,8132.597
4,False,217,0.9,54,[],[8154105],"[(1087, 852)]","[(1078, 863)]",[1],[18],[0.3],"[640.0, 512.0]",vertical,"(390.0, 762.0)",[],[0],0,8136.173
4,False,218,0.675,40,[],[],"[(1008, 850), (1073, 858)]",[],"[0, 1]",[51],[0.85],"[640.0, 512.0]",vertical,"(390.0, 762.0)",[0.8166666666666667],[0.807],0,8138.551
4,False,219,0.868,52,[],[],"[(806, 850), (1124, 847)]",[],"[0, 1]",[34],[0.5666666666666667],"[640.0, 512.0]",horizontal,"(890.0, 262.0)",[0.85],[0.523],1,8143.252
4,False,220,0.847,50,[],[],"[(1109, 866)]",[],[1],[11],[0.18333333333333332],"[640.0, 512.0]",horizontal,"(390.0, 262.0)",[1.0833333333333333],[0.148],1,8150.548
4,False,221,0.574,34,[],[],"[(1096, 857)]",[],[1],[],[],"[640.0, 512.0]",vertical,"(890.0, 762.0)",[],[0],0,8154.749
4,False,222,0.819,49,[],[],"[(1098, 855)]",[],[1],[],[],"[640.0, 512.0]",horizontal,"(390.0, 262.0)",[],[0],0,8158.461
4,False,223,0.899,53,[],[8180511],"[(1095, 876)]","[(1055, 880)]",[1],[47],[0.7833333333333333],"[640.0, 512.0]",horizontal,"(890.0, 262.0)",[],[0],0,8162.064
4,False,224,0.719,43,[],[],"[(870, 847), (1077, 870)]",[],"[0, 1]",[15],[0.25],"[640.0, 512.0]",horizontal,"(890.0, 762.0)",[0.7],[0.214],1,8164.952
4,False,225,0.509,30,[],[8203120],"[(1072, 865)]","[(1028, 868)]",[1],[24],[0.4],"[640.0, 512.0]",vertical,"(890.0, 262.0)",[],[0],0,8184.983
4,False,226,0.874,52,[],[],"[(1083, 881)]",[],[1],[],[],"[640.0, 512.0]",vertical,"(390.0, 762.0)",[],[0],0,8187.558
4,False,227,1.144,68,[],[],"[(1076, 868)]",[],[1],[24],[0.4],"[640.0, 512.0]",horizontal,"(390.0, 762.0)",[0.7833333333333333],[0.358],1,8190.822
4,False,228,0.625,37,[],[],"[(1081, 885)]",[],[1],[36],[0.6],"[640.0, 512.0]",horizontal,"(390.0, 262.0)",[1.4],[0.554],1,8195.092
4,False,229,1.078,64,[],[],"[(1082, 867)]",[],[1],[],[],"[640.0, 512.0]",vertical,"(390.0, 262.0)",[],[0],0,8199.899
4,False,230,0.532,31,[],[],"[(1047, 851)]",[],[1],[],[],"[640.0, 512.0]",horizontal,"(390.0, 262.0)",[],[0],0,8203.868
4,False,231,0.867,52,[],[],"[(773, 886), (1018, 877), (1110, 823)]",[],"[0, 0, 1]",[],[],"[640.0, 512.0]",vertical,"(890.0, 262.0)",[],[0],0,8207.639
4,False,232,0.637,38,[],[],"[(1089, 854)]",[],[1],[48],[0.8],"[640.0, 512.0]",horizontal,"(890.0, 762.0)",[0.8166666666666667],[0.75],1,8213.021
4,False,233,0.631,37,[],[8244548],"[(551, 872), (1083, 883)]","[(1081, 892)]","[0, 1]",[33],[0.55],"[640.0, 512.0]",vertical,"(390.0, 262.0)",[],[0],0,8217.303
4,False,234,0.748,44,[],[],"[(1079, 869)]",[],[1],[41],[0.6833333333333333],"[640.0, 512.0]",vertical,"(390.0, 762.0)",[1.0166666666666666],[0.641],1,8228.988
4,False,235,0.648,38,[],[],"[(1078, 862)]",[],[1],[30],[0.5],"[640.0, 512.0]",vertical,"(890.0, 762.0)",[0.8833333333333333],[0.461],1,8238.431
4,False,236,0.655,39,[],[],"[(1081, 886)]",[],[1],[],[],"[640.0, 512.0]",horizontal,"(890.0, 762.0)",[],[0],0,8242.569
4,False,237,0.741,44,[],[],"[(1094, 876)]",[],[1],[51],[0.85],"[640.0, 512.0]",horizontal,"(390.0, 262.0)",[1.05],[0.8],0,8246.074
4,False,238,0.953,57,[],[],"[(1096, 876)]",[],[1],[],[],"[640.0, 512.0]",horizontal,"(890.0, 762.0)",[],[0],0,8250.602
4,False,239,0.675,40,[],[],"[(1130, 871)]",[],[1],[30],[0.5],"[640.0, 512.0]",horizontal,"(890.0, 262.0)",[0.7666666666666666],[0.46],1,8253.739
4,False,240,0.781,46,[],[],"[(1081, 878)]",[],[1],[],[],"[640.0, 512.0]",horizontal,"(390.0, 762.0)",[],[0],0,8257.633
5,False,241,0.928,55,[],[],"[(1111, 853)]",[],[1],[51],[0.85],"[640.0, 512.0]",horizontal,"(890.0, 762.0)",[0.5],[0.804],0,8261.364
5,False,242,0.543,32,[],[],"[(1091, 848)]",[],[1],[31],[0.5166666666666666],"[640.0, 512.0]",vertical,"(390.0, 762.0)",[1.0166666666666666],[0.481],1,8265.618
5,False,243,0.89,53,[],[],"[(1100, 862)]",[],[1],[32],[0.5333333333333333],"[640.0, 512.0]",horizontal,"(890.0, 262.0)",[1.2666666666666666],[0.495],1,8277.058
5,False,244,1.171,70,[],[],"[(1084, 881)]",[],[1],[51],[0.85],"[640.0, 512.0]",horizontal,"(890.0, 762.0)",[1.5666666666666667],[0.809],0,8281.971
5,False,245,0.677,40,[],[],"[(1089, 852)]",[],[1],[],[],"[640.0, 512.0]",horizontal,"(390.0, 262.0)",[],[0],0,8287.617
5,False,246,0.513,30,[],[],"[(1090, 855)]",[],[1],[],[],"[640.0, 512.0]",horizontal,"(390.0, 262.0)",[],[0],0,8291.523
5,False,247,0.56,33,[],[],"[(1096, 845)]",[],[1],[31],[0.5166666666666666],"[640.0, 512.0]",horizontal,"(890.0, 262.0)",[1.0166666666666666],[0.48],1,8295.151
5,False,248,0.872,52,[],[],"[(1096, 876)]",[],[1],[51],[0.85],"[640.0, 512.0]",horizontal,"(390.0, 262.0)",[1.25],[0.806],0,8299.177
5,False,249,0.619,37,[],[],"[(1052, 846)]",[],[1],[4],[0.06666666666666667],"[640.0, 512.0]",horizontal,"(390.0, 262.0)",[1.15],[0.034],1,8304.19
5,False,250,0.97,58,[],[],"[(1073, 858)]",[],[1],[],[],"[640.0, 512.0]",vertical,"(390.0, 262.0)",[],[0],0,8308.759
5,False,251,0.844,50,[],[],"[(1076, 848)]",[],[1],[],[],"[640.0, 512.0]",vertical,"(390.0, 262.0)",[],[0],0,8312.356
5,False,252,1.034,62,[],[],"[(1081, 876)]",[],[1],[35],[0.5833333333333334],"[640.0, 512.0]",vertical,"(390.0, 262.0)",[1.0],[0.543],1,8316.727
5,False,253,0.63,37,[],[],"[(1105, 877)]",[],[1],[31],[0.5166666666666666],"[640.0, 512.0]",horizontal,"(890.0, 762.0)",[1.1666666666666667],[0.479],1,8321.387
5,False,254,0.925,55,[],[],"[(1091, 852)]",[],[1],[51],[0.85],"[640.0, 512.0]",vertical,"(390.0, 262.0)",[1.5166666666666666],[0.801],0,8325.755
5,False,255,0.545,32,[],[],"[(1071, 852)]",[],[1],[31],[0.5166666666666666],"[640.0, 512.0]",horizontal,"(890.0, 262.0)",[1.1166666666666667],[0.472],1,8330.955
5,False,256,0.818,49,[],[],"[(1090, 859)]",[],[1],[],[],"[640.0, 512.0]",vertical,"(890.0, 262.0)",[],[0],0,8365.243
5,False,257,1.133,67,[],[],"[(1086, 863)]",[],[1],[32],[0.5333333333333333],"[640.0, 512.0]",vertical,"(890.0, 262.0)",[0.7333333333333333],[0.495],1,8368.687
5,False,258,1.184,71,[],[],"[(1100, 858)]",[],[1],[30],[0.5],"[640.0, 512.0]",horizontal,"(890.0, 262.0)",[1.6],[0.472],1,8373.101
5,False,259,1.006,60,[],[],"[(1081, 852)]",[],[1],[],[],"[640.0, 512.0]",horizontal,"(890.0, 262.0)",[],[0],0,8378.399
5,False,260,0.542,32,[],[],"[(1088, 858)]",[],[1],[32],[0.5333333333333333],"[640.0, 512.0]",vertical,"(390.0, 762.0)",[1.4833333333333334],[0.497],1,8381.951
5,False,261,0.622,37,[],[],"[(1083, 868)]",[],[1],[],[],"[640.0, 512.0]",vertical,"(390.0, 262.0)",[],[0],0,8386.451
5,False,262,1.074,64,[],[],"[(1081, 848)]",[],[1],[30],[0.5],"[640.0, 512.0]",vertical,"(390.0, 262.0)",[1.3666666666666667],[0.46],1,8390.117
5,False,263,1.096,65,[],[],"[(1103, 850)]",[],[1],[21],[0.35],"[640.0, 512.0]",horizontal,"(390.0, 262.0)",[1.6666666666666667],[0.314],1,8395.118
5,False,264,0.746,44,[],[],"[(1067, 876)]",[],[1],[30],[0.5],"[640.0, 512.0]",horizontal,"(890.0, 262.0)",[1.0],[0.457],1,8400.136
5,False,265,0.695,41,[],[],"[(1104, 867)]",[],[1],[30],[0.5],"[640.0, 512.0]",horizontal,"(390.0, 262.0)",[0.75],[0.459],1,8404.581
5,False,266,0.922,55,[],[],"[(1086, 868)]",[],[1],[30],[0.5],"[640.0, 512.0]",horizontal,"(890.0, 262.0)",[1.0833333333333333],[0.462],1,8408.583
5,False,267,0.583,34,[],[],"[(1073, 881)]",[],[1],[34],[0.5666666666666667],"[640.0, 512.0]",horizontal,"(390.0, 762.0)",[1.4166666666666667],[0.528],1,8413.188
5,False,268,0.79,47,[],[],"[(1031, 848)]",[],[1],[31],[0.5166666666666666],"[640.0, 512.0]",vertical,"(390.0, 262.0)",[0.75],[0.477],1,8417.837
5,False,269,0.675,40,[],[],"[(1071, 874)]",[],[1],[35],[0.5833333333333334],"[640.0, 512.0]",horizontal,"(390.0, 262.0)",[0.95],[0.543],1,8423.925
5,False,270,1.05,63,[],[],"[(1076, 879)]",[],[1],[],[],"[640.0, 512.0]",horizontal,"(390.0, 262.0)",[],[0],0,8428.135
5,False,271,0.815,48,[],[],"[(1065, 863)]",[],[1],[32],[0.5333333333333333],"[640.0, 512.0]",vertical,"(390.0, 262.0)",[0.9666666666666667],[0.493],1,8432.001
5,False,272,0.636,38,[],[],"[(1081, 856)]",[],[1],[30],[0.5],"[640.0, 512.0]",horizontal,"(890.0, 262.0)",[1.6333333333333333],[0.462],1,8437.866
5,False,273,0.82,49,[],[],"[(1071, 885)]",[],[1],[31],[0.5166666666666666],"[640.0, 512.0]",horizontal,"(390.0, 262.0)",[1.1333333333333333],[0.475],1,8442.606
5,False,274,1.014,60,[],[],"[(1059, 883)]",[],[1],[5],[0.08333333333333333],"[640.0, 512.0]",vertical,"(390.0, 262.0)",[0.55],[0.053],1,8447.083
5,False,275,0.891,53,[],[],"[(611, 479), (1018, 880), (1105, 848)]",[],"[0, 0, 1]",[],[],"[640.0, 512.0]",horizontal,"(390.0, 762.0)",[],[0],0,8451.004
5,False,276,0.701,42,[],[],"[(1091, 862)]",[],[1],[32],[0.5333333333333333],"[640.0, 512.0]",horizontal,"(890.0, 262.0)",[0.5],[0.486],1,8473.682
5,False,277,0.723,43,[],[],"[(1100, 877)]",[],[1],[32],[0.5333333333333333],"[640.0, 512.0]",horizontal,"(890.0, 762.0)",[0.85],[0.493],1,8477.326
5,False,278,0.846,50,[],[],"[(1103, 885)]",[],[1],[7],[0.11666666666666667],"[640.0, 512.0]",horizontal,"(890.0, 262.0)",[0.8833333333333333],[0.082],1,8481.418
5,False,279,0.727,43,[],[],"[(1076, 855)]",[],[1],[],[],"[640.0, 512.0]",vertical,"(390.0, 762.0)",[],[0],0,8485.466
5,False,280,1.04,62,[],[],"[(1072, 886)]",[],[1],[],[],"[640.0, 512.0]",vertical,"(890.0, 262.0)",[],[0],0,8488.334
5,False,281,0.533,31,[],[],"[(1076, 857)]",[],[1],[],[],"[640.0, 512.0]",horizontal,"(890.0, 762.0)",[],[0],0,8492.901
5,False,282,1.174,70,[],[],"[(1091, 859)]",[],[1],[51],[0.85],"[640.0, 512.0]",vertical,"(390.0, 262.0)",[1.0666666666666667],[0.807],0,8498.098
5,False,283,0.679,40,[],[],"[(1089, 854)]",[],[1],[],[],"[640.0, 512.0]",vertical,"(390.0, 762.0)",[],[0],0,8503.039
5,False,284,0.53,31,[],[],"[(1076, 877)]",[],[1],[30],[0.5],"[640.0, 512.0]",vertical,"(390.0, 762.0)",[0.75],[0.46],1,8507.468
5,False,285,0.584,35,[],[],"[(1240, 876), (1067, 859)]",[],"[0, 1]",[38],[0.6333333333333333],"[640.0, 512.0]",horizontal,"(890.0, 762.0)",[0.9166666666666666],[0.594],1,8511.394
5,False,286,1.197,71,[],[],"[(1072, 867)]",[],[1],[],[],"[640.0, 512.0]",horizontal,"(390.0, 762.0)",[],[0],0,8535.514
5,False,287,0.738,44,[],[],"[(1039, 859)]",[],[1],[51],[0.85],"[640.0, 512.0]",vertical,"(390.0, 262.0)",[1.4833333333333334],[0.807],0,8539.511
5,False,288,0.604,36,[],[],"[(1045, 855)]",[],[1],[51],[0.85],"[640.0, 512.0]",horizontal,"(390.0, 262.0)",[0.9666666666666667],[0.803],0,8544.838
5,False,289,1.086,65,[],[],"[(1081, 861)]",[],[1],[31],[0.5166666666666666],"[640.0, 512.0]",vertical,"(890.0, 262.0)",[1.3666666666666667],[0.477],1,8549.367
5,False,290,0.895,53,[],[],"[(1095, 880)]",[],[1],[51],[0.85],"[640.0, 512.0]",horizontal,"(390.0, 262.0)",[1.5],[0.809],0,8554.222
5,False,291,0.529,31,[],[],"[(1100, 839)]",[],[1],[],[],"[640.0, 512.0]",vertical,"(890.0, 262.0)",[],[0],0,8559.605
5,False,292,1.17,70,[],[],"[(1081, 849)]",[],[1],[31],[0.5166666666666666],"[640.0, 512.0]",horizontal,"(890.0, 262.0)",[0.6666666666666666],[0.477],1,8561.018
5,False,293,0.848,50,[],[],"[(1090, 867)]",[],[1],[42],[0.7],"[640.0, 512.0]",vertical,"(890.0, 262.0)",[0.6166666666666667],[0.653],1,8565.538
5,False,294,0.53,31,[],[],"[(1086, 876)]",[],[1],[33],[0.55],"[640.0, 512.0]",horizontal,"(890.0, 762.0)",[0.7],[0.507],1,8569.825
5,False,295,1.163,69,[],[],"[(1077, 863)]",[],[1],[],[],"[640.0, 512.0]",vertical,"(390.0, 762.0)",[],[0],0,8573.648
5,False,296,1.15,69,[],[],"[(1086, 858)]",[],[1],[29],[0.48333333333333334],"[640.0, 512.0]",vertical,"(390.0, 262.0)",[1.6666666666666667],[0.446],1,8577.673
5,False,297,1.03,61,[],[],"[(1114, 870)]",[],[1],[30],[0.5],"[640.0, 512.0]",horizontal,"(390.0, 262.0)",[1.55],[0.463],1,8583.341
5,False,298,1.101,66,[],[],"[(1073, 869)]",[],[1],[30],[0.5],"[640.0, 512.0]",horizontal,"(390.0, 262.0)",[0.9833333333333333],[0.464],1,8588.613
5,False,299,0.959,57,[],[],"[(1092, 867)]",[],[1],[39],[0.65],"[640.0, 512.0]",horizontal,"(390.0, 762.0)",[0.7166666666666667],[0.608],1,8593.292
5,False,300,0.874,52,[],[],"[(1089, 873)]",[],[1],[51],[0.85],"[640.0, 512.0]",horizontal,"(390.0, 762.0)",[0.95],[0.803],0,8597.543
6,False,301,0.957,57,[],[],"[(1084, 873)]",[],[1],[31],[0.5166666666666666],"[640.0, 512.0]",horizontal,"(890.0, 262.0)",[0.5333333333333333],[0.484],1,8602.145
6,False,302,0.629,37,[],[],"[(1098, 862)]",[],[1],[31],[0.5166666666666666],"[640.0, 512.0]",vertical,"(890.0, 262.0)",[0.6],[0.475],1,8606.206
6,False,303,1.152,69,[],[],"[(1081, 863)]",[],[1],[29],[0.48333333333333334],"[640.0, 512.0]",vertical,"(390.0, 762.0)",[1.5833333333333333],[0.445],1,8609.893
6,False,304,0.84,50,[],[],"[(1087, 864)]",[],[1],[],[],"[640.0, 512.0]",horizontal,"(390.0, 262.0)",[],[0],0,8615.203
6,False,305,0.92,55,[],[],"[(1076, 852)]",[],[1],[],[],"[640.0, 512.0]",horizontal,"(890.0, 762.0)",[],[0],0,8619.12
6,False,306,0.998,59,[],[8644776],"[(1089, 861)]","[(1083, 868)]",[1],[27],[0.45],"[640.0, 512.0]",vertical,"(390.0, 262.0)",[],[0],0,8622.769
6,False,307,0.903,54,[],[],"[(1081, 856)]",[],[1],[33],[0.55],"[640.0, 512.0]",horizontal,"(890.0, 762.0)",[0.6666666666666666],[0.508],1,8629.216
6,False,308,1.049,62,[],[],"[(1076, 881)]",[],[1],[],[],"[640.0, 512.0]",vertical,"(890.0, 262.0)",[],[0],0,8633.236
6,False,309,0.807,48,[],[],"[(1084, 856)]",[],[1],[18],[0.3],"[640.0, 512.0]",horizontal,"(890.0, 762.0)",[0.9833333333333333],[0.27],1,8637.254
6,False,310,0.805,48,[],[],"[(1086, 849)]",[],[1],[],[],"[640.0, 512.0]",vertical,"(390.0, 262.0)",[],[0],0,8641.351
6,False,311,0.971,58,[],[],"[(1049, 863)]",[],[1],[37],[0.6166666666666667],"[640.0, 512.0]",vertical,"(390.0, 262.0)",[0.7833333333333333],[0.581],1,8644.972
6,False,312,0.725,43,[],[],"[(1070, 873)]",[],[1],[29],[0.48333333333333334],"[640.0, 512.0]",horizontal,"(890.0, 262.0)",[0.7166666666666667],[0.446],1,8649.64
6,False,313,0.705,42,[],[],"[(1098, 853)]",[],[1],[30],[0.5],"[640.0, 512.0]",horizontal,"(890.0, 262.0)",[0.8666666666666667],[0.453],1,8653.567
6,False,314,1.148,68,[],[],"[(1087, 886)]",[],[1],[31],[0.5166666666666666],"[640.0, 512.0]",horizontal,"(390.0, 762.0)",[1.6],[0.481],1,8657.706
6,False,315,0.948,56,[],[],"[(1112, 878)]",[],[1],[51],[0.85],"[640.0, 512.0]",horizontal,"(890.0, 762.0)",[1.1],[0.801],0,8662.859
6,False,316,0.676,40,[],[],"[(1072, 853)]",[],[1],[32],[0.5333333333333333],"[640.0, 512.0]",vertical,"(890.0, 762.0)",[1.0666666666666667],[0.49],1,8667.672
6,False,317,0.631,37,[],[],"[(1096, 876)]",[],[1],[32],[0.5333333333333333],"[640.0, 512.0]",vertical,"(390.0, 762.0)",[1.3666666666666667],[0.487],1,8672.025
6,False,318,0.826,49,[],[],"[(1076, 868)]",[],[1],[31],[0.5166666666666666],"[640.0, 512.0]",horizontal,"(390.0, 262.0)",[0.9],[0.475],1,8676.586
6,False,319,1.197,71,[],[],"[(1086, 863)]",[],[1],[51],[0.85],"[640.0, 512.0]",vertical,"(390.0, 762.0)",[1.2666666666666666],[0.81],0,8680.872
6,False,320,0.508,30,[],[],"[(1091, 852)]",[],[1],[30],[0.5],"[640.0, 512.0]",horizontal,"(890.0, 762.0)",[0.6166666666666667],[0.459],1,8686.101
6,False,321,0.827,49,[],[],"[(1102, 895)]",[],[1],[33],[0.55],"[640.0, 512.0]",vertical,"(390.0, 262.0)",[0.9833333333333333],[0.518],1,8689.693
6,False,322,1.12,67,[],[],"[(1082, 864)]",[],[1],[51],[0.85],"[640.0, 512.0]",vertical,"(390.0, 762.0)",[1.5666666666666667],[0.804],0,8694.073
6,False,323,1.022,61,[],[],"[(1089, 852)]",[],[1],[30],[0.5],"[640.0, 512.0]",vertical,"(890.0, 262.0)",[0.5666666666666667],[0.463],1,8699.769
6,False,324,1.19,71,[],[],"[(1097, 866)]",[],[1],[],[],"[640.0, 512.0]",vertical,"(890.0, 262.0)",[],[0],0,8703.919
6,False,325,0.572,34,[],[],"[(1086, 855)]",[],[1],[32],[0.5333333333333333],"[640.0, 512.0]",vertical,"(890.0, 762.0)",[1.3166666666666667],[0.494],1,8707.388
6,False,326,1.127,67,[],[],"[(1116, 854)]",[],[1],[51],[0.85],"[640.0, 512.0]",vertical,"(390.0, 762.0)",[1.2833333333333332],[0.801],0,8712.252
6,False,327,0.69,41,[],[],"[(1070, 854)]",[],[1],[33],[0.55],"[640.0, 512.0]",vertical,"(890.0, 262.0)",[1.6333333333333333],[0.511],1,8717.391
6,False,328,0.695,41,[],[],"[(1083, 850)]",[],[1],[32],[0.5333333333333333],"[640.0, 512.0]",horizontal,"(890.0, 262.0)",[0.8333333333333334],[0.495],1,8722.551
6,False,329,0.805,48,[],[],"[(1073, 868)]",[],[1],[32],[0.5333333333333333],"[640.0, 512.0]",horizontal,"(390.0, 762.0)",[1.15],[0.493],1,8726.658
6,False,330,0.924,55,[],[],"[(1086, 864)]",[],[1],[32],[0.5333333333333333],"[640.0, 512.0]",vertical,"(890.0, 762.0)",[1.5333333333333332],[0.493],1,8731.089
6,False,331,1.052,63,[],[],"[(1107, 868)]",[],[1],[34],[0.5666666666666667],"[640.0, 512.0]",horizontal,"(390.0, 262.0)",[0.6333333333333333],[0.521],1,8736.206
6,False,332,0.645,38,[],[],"[(1086, 864)]",[],[1],[],[],"[640.0, 512.0]",horizontal,"(390.0, 262.0)",[],[0],0,8740.503
6,False,333,1.022,61,[],[],"[(1083, 858)]",[],[1],[],[],"[640.0, 512.0]",horizontal,"(890.0, 262.0)",[],[0],0,8744.449
6,False,334,0.524,31,[],[],"[(1072, 845)]",[],[1],[],[],"[640.0, 512.0]",horizontal,"(890.0, 262.0)",[],[0],0,8748.179
6,False,335,0.763,45,[],[],"[(1072, 859)]",[],[1],[],[],"[640.0, 512.0]",vertical,"(390.0, 762.0)",[],[0],0,8751.493
6,False,336,0.91,54,[],[],"[(1072, 855)]",[],[1],[],[],"[640.0, 512.0]",vertical,"(890.0, 262.0)",[],[0],0,8755.132
6,False,337,0.526,31,[],[],"[(1081, 847)]",[],[1],[31],[0.5166666666666666],"[640.0, 512.0]",horizontal,"(390.0, 262.0)",[0.9666666666666667],[0.474],1,8760.101
6,False,338,0.845,50,[],[],"[(1091, 869)]",[],[1],[35],[0.5833333333333334],"[640.0, 512.0]",vertical,"(890.0, 262.0)",[1.35],[0.545],1,8764.039
6,False,339,0.536,32,[],[],"[(1128, 854)]",[],[1],[33],[0.55],"[640.0, 512.0]",vertical,"(390.0, 262.0)",[1.6333333333333333],[0.512],1,8768.931
6,False,340,1.074,64,[],[],"[(1091, 875)]",[],[1],[],[],"[640.0, 512.0]",vertical,"(390.0, 262.0)",[],[0],0,8773.687
6,False,341,0.856,51,[],[],"[(1072, 844)]",[],[1],[],[],"[640.0, 512.0]",horizontal,"(390.0, 762.0)",[],[0],0,8777.345
6,False,342,1.055,63,[],[],"[(1055, 869)]",[],[1],[],[],"[640.0, 512.0]",vertical,"(890.0, 762.0)",[],[0],0,8781.807
6,False,343,1.082,64,[],[],"[(1067, 851)]",[],[1],[],[],"[640.0, 512.0]",vertical,"(890.0, 262.0)",[],[0],0,8797.165
6,False,344,0.918,55,[],[8819970],"[(1074, 858)]","[(1062, 866)]",[1],[29],[0.48333333333333334],"[640.0, 512.0]",horizontal,"(890.0, 762.0)",[],[0],0,8801.658
6,False,345,0.758,45,[],[],"[(1100, 855)]",[],[1],[51],[0.85],"[640.0, 512.0]",vertical,"(890.0, 262.0)",[0.5666666666666667],"[0, 0.805]",0,8804.408
6,False,346,1.033,61,[],[],"[(1075, 875)]",[],[1],[30],[0.5],"[640.0, 512.0]",horizontal,"(390.0, 262.0)",[1.2666666666666666],[0.457],1,8808.998
6,False,347,0.932,55,[],[],"[(1076, 872)]",[],[1],[32],[0.5333333333333333],"[640.0, 512.0]",horizontal,"(390.0, 262.0)",[0.6333333333333333],[0.492],1,8818.103
6,False,348,0.702,42,[],[],"[(1026, 881), (1081, 860)]",[],"[0, 1]",[34],[0.5666666666666667],"[640.0, 512.0]",horizontal,"(390.0, 762.0)",[0.75],[0.52],1,8822.27
6,False,349,1.072,64,[],[],"[(1081, 878)]",[],[1],[12],[0.2],"[640.0, 512.0]",vertical,"(890.0, 762.0)",[0.8666666666666667],[0.17],1,8827.835
6,False,350,0.624,37,[],[],"[(1066, 865)]",[],[1],[35],[0.5833333333333334],"[640.0, 512.0]",horizontal,"(890.0, 762.0)",[0.5],[0.539],1,8832.135
6,False,351,0.888,53,[],[],"[(1081, 890)]",[],[1],[31],[0.5166666666666666],"[640.0, 512.0]",horizontal,"(890.0, 762.0)",[1.35],[0.474],1,8835.902
6,False,352,0.941,56,[],[],"[(1091, 894)]",[],[1],[32],[0.5333333333333333],"[640.0, 512.0]",vertical,"(390.0, 262.0)",[0.5833333333333334],[0.49],1,8840.786
6,False,353,0.619,37,[],[],"[(1072, 874)]",[],[1],[32],[0.5333333333333333],"[640.0, 512.0]",vertical,"(390.0, 762.0)",[0.65],[0.49],1,8844.874
6,False,354,1.101,66,[],[],"[(1075, 881)]",[],[1],[],[],"[640.0, 512.0]",horizontal,"(890.0, 262.0)",[],[0],0,8848.754
6,False,355,0.978,58,[],[],"[(1047, 855)]",[],[1],[],[],"[640.0, 512.0]",vertical,"(390.0, 262.0)",[],[0],0,8852.174
6,False,356,0.825,49,[],[],"[(1072, 866)]",[],[1],[30],[0.5],"[640.0, 512.0]",vertical,"(390.0, 262.0)",[0.6],[0.459],1,8857.134
6,False,357,0.725,43,[],[],"[(1086, 859)]",[],[1],[],[],"[640.0, 512.0]",vertical,"(390.0, 762.0)",[],[0],0,8861.54
6,False,358,0.921,55,[],[],"[(1091, 874)]",[],[1],[30],[0.5],"[640.0, 512.0]",horizontal,"(390.0, 762.0)",[1.3666666666666667],[0.457],1,8864.774
6,False,359,0.972,58,[],[8888322],"[(1100, 878)]","[(1087, 875)]",[1],[39],[0.65],"[640.0, 512.0]",vertical,"(890.0, 762.0)",[],[0],0,8869.934
6,False,360,0.816,48,[],[],"[(1072, 858)]",[],[1],[37],[0.6166666666666667],"[640.0, 512.0]",vertical,"(390.0, 262.0)",[0.55],[0.576],1,8872.767
7,False,361,0.559,33,[],[],"[(1079, 871)]",[],[1],[32],[0.5333333333333333],"[640.0, 512.0]",horizontal,"(890.0, 762.0)",[0.8],[0.488],1,8876.747
7,False,362,0.869,52,[],[],"[(1079, 866)]",[],[1],[32],[0.5333333333333333],"[640.0, 512.0]",vertical,"(890.0, 762.0)",[0.7666666666666666],[0.491],1,8880.583
7,False,363,0.547,32,[],[],"[(1075, 869)]",[],[1],[29],[0.48333333333333334],"[640.0, 512.0]",vertical,"(890.0, 262.0)",[0.5833333333333334],[0.453],1,8884.707
7,False,364,0.566,33,[],[],"[(1076, 882)]",[],[1],[31],[0.5166666666666666],"[640.0, 512.0]",horizontal,"(890.0, 762.0)",[1.4833333333333334],[0.478],1,8888.279
7,False,365,0.552,33,[],[],"[(1071, 882)]",[],[1],[31],[0.5166666666666666],"[640.0, 512.0]",horizontal,"(890.0, 762.0)",[1.6833333333333333],[0.47],1,8892.916
7,False,366,1.059,63,[],[],"[(1032, 885)]",[],[1],[35],[0.5833333333333334],"[640.0, 512.0]",vertical,"(890.0, 762.0)",[1.5666666666666667],[0.536],1,8897.67
7,False,367,1.033,61,[],[],"[(1072, 886)]",[],[1],[7],[0.11666666666666667],"[640.0, 512.0]",horizontal,"(890.0, 262.0)",[0.9333333333333333],[0.084],1,8902.776
7,False,368,0.954,57,[],[],"[(1076, 872)]",[],[1],[],[],"[640.0, 512.0]",vertical,"(890.0, 762.0)",[],[0],0,8906.951
7,False,369,1.115,66,[],[],"[(1072, 853)]",[],[1],[],[],"[640.0, 512.0]",horizontal,"(890.0, 262.0)",[],[0],0,8910.688
7,False,370,0.806,48,[],[],"[(1052, 850)]",[],[1],[33],[0.55],"[640.0, 512.0]",horizontal,"(390.0, 762.0)",[0.5666666666666667],[0.507],1,8925.015
7,False,371,0.552,33,[],[],"[(1072, 876)]",[],[1],[30],[0.5],"[640.0, 512.0]",horizontal,"(890.0, 262.0)",[0.55],[0.461],1,8929.111
7,False,372,0.972,58,[],[8951050],"[(1069, 853)]","[(1055, 863)]",[1],[28],[0.4666666666666667],"[640.0, 512.0]",vertical,"(390.0, 262.0)",[],[0],0,8932.846
7,False,373,0.608,36,[],[],"[(1078, 894)]",[],[1],[33],[0.55],"[640.0, 512.0]",horizontal,"(890.0, 262.0)",[0.5],[0.509],1,8935.49
7,False,374,0.841,50,[],[],"[(1072, 868)]",[],[1],[],[],"[640.0, 512.0]",vertical,"(390.0, 762.0)",[],[0],0,8939.264
7,False,375,0.726,43,[],[],"[(1051, 854)]",[],[1],[],[],"[640.0, 512.0]",horizontal,"(390.0, 262.0)",[],[0],0,8942.735
7,False,376,1.168,70,[],[],"[(1072, 854)]",[],[1],[29],[0.48333333333333334],"[640.0, 512.0]",horizontal,"(390.0, 262.0)",[1.4333333333333333],[0.442],1,8948.034
7,False,377,0.682,40,[],[],"[(1082, 859)]",[],[1],[30],[0.5],"[640.0, 512.0]",horizontal,"(890.0, 262.0)",[0.9333333333333333],[0.461],1,8953.18
7,False,378,0.533,31,[],[],"[(1091, 860)]",[],[1],[],[],"[640.0, 512.0]",vertical,"(890.0, 262.0)",[],[0],0,8957.456
7,False,379,0.53,31,[],[],"[(1076, 858)]",[],[1],[15],[0.25],"[640.0, 512.0]",vertical,"(890.0, 762.0)",[0.5166666666666666],[0.216],1,8961.388
7,False,380,1.122,67,[],[],"[(1067, 905)]",[],[1],[51],[0.85],"[640.0, 512.0]",horizontal,"(390.0, 262.0)",[1.55],[0.801],0,8965.791
7,False,381,0.85,51,[],[9142350],"[(1048, 875)]","[(1012, 875)]",[1],[9],[0.15],"[640.0, 512.0]",vertical,"(390.0, 762.0)",[],[0],0,9124.508
7,False,382,1.109,66,[],[],"[(137, 615), (1028, 844), (1074, 873)]",[],"[0, 0, 1]",[36],[0.6],"[640.0, 512.0]",vertical,"(390.0, 762.0)",[1.0833333333333333],[0.559],1,9126.79
7,False,383,0.612,36,[],[],"[(1072, 883)]",[],[1],[38],[0.6333333333333333],"[640.0, 512.0]",horizontal,"(390.0, 762.0)",[1.5166666666666666],[0.591],1,10968.021
7,False,384,0.572,34,[],[],"[(1055, 903)]",[],[1],[33],[0.55],"[640.0, 512.0]",vertical,"(390.0, 262.0)",[1.2166666666666666],[0.504],1,10973.102
7,False,385,0.614,36,[],[],"[(1055, 903)]",[],[1],[31],[0.5166666666666666],"[640.0, 512.0]",horizontal,"(890.0, 262.0)",[0.7833333333333333],[0.476],1,10978.547
7,False,386,1.155,69,[],[],"[(1067, 905)]",[],[1],[34],[0.5666666666666667],"[640.0, 512.0]",vertical,"(890.0, 762.0)",[1.5333333333333332],[0.532],1,10982.722
7,False,387,0.604,36,[],[],"[(1096, 907)]",[],[1],[34],[0.5666666666666667],"[640.0, 512.0]",vertical,"(390.0, 762.0)",[1.0166666666666666],[0.526],1,10988.158
7,False,388,0.862,51,[],[],"[(1076, 901)]",[],[1],[39],[0.65],"[640.0, 512.0]",horizontal,"(890.0, 762.0)",[0.8833333333333333],[0.608],1,10992.596
7,False,389,0.825,49,[],[],"[(1092, 901)]",[],[1],[30],[0.5],"[640.0, 512.0]",horizontal,"(390.0, 762.0)",[0.7],[0.461],1,10997.164
7,False,390,0.955,57,[],[],"[(1081, 885)]",[],[1],[32],[0.5333333333333333],"[640.0, 512.0]",vertical,"(890.0, 762.0)",[0.9833333333333333],[0.498],1,11001.39
7,False,391,0.885,53,[],[],"[(1079, 900)]",[],[1],[29],[0.48333333333333334],"[640.0, 512.0]",horizontal,"(390.0, 262.0)",[0.9666666666666667],[0.443],1,11006.027
7,False,392,0.719,43,[],[],"[(1081, 875)]",[],[1],[30],[0.5],"[640.0, 512.0]",vertical,"(890.0, 262.0)",[1.3333333333333333],[0.459],1,11010.66
7,False,393,0.619,37,[],[],"[(1081, 888)]",[],[1],[31],[0.5166666666666666],"[640.0, 512.0]",vertical,"(890.0, 262.0)",[0.9166666666666666],[0.475],1,11015.445
7,False,394,0.869,52,[],[],"[(1089, 870)]",[],[1],[32],[0.5333333333333333],"[640.0, 512.0]",vertical,"(890.0, 262.0)",[0.55],[0.492],1,11019.647
7,False,395,0.863,51,[],[],"[(1082, 870)]",[],[1],[39],[0.65],"[640.0, 512.0]",vertical,"(890.0, 762.0)",[1.4666666666666666],[0.607],1,11023.741
7,False,396,0.848,50,[],[],"[(1077, 910)]",[],[1],[31],[0.5166666666666666],"[640.0, 512.0]",horizontal,"(890.0, 262.0)",[1.25],[0.477],1,11028.946
7,False,397,1.116,66,[],[],"[(1081, 874)]",[],[1],[34],[0.5666666666666667],"[640.0, 512.0]",horizontal,"(890.0, 762.0)",[0.7833333333333333],[0.528],1,11033.914
7,False,398,0.763,45,[],[],"[(1076, 892)]",[],[1],[34],[0.5666666666666667],"[640.0, 512.0]",vertical,"(390.0, 262.0)",[0.5],[0.526],1,11038.703
7,False,399,0.816,48,[],[],"[(1078, 895)]",[],[1],[31],[0.5166666666666666],"[640.0, 512.0]",horizontal,"(890.0, 262.0)",[1.0333333333333332],[0.479],1,11042.831
7,False,400,1.05,63,[],[],"[(1100, 885)]",[],[1],[29],[0.48333333333333334],"[640.0, 512.0]",horizontal,"(390.0, 262.0)",[1.6],[0.448],1,11047.531
7,False,401,0.632,37,[],[],"[(1055, 876)]",[],[1],[33],[0.55],"[640.0, 512.0]",vertical,"(890.0, 762.0)",[1.4833333333333334],[0.511],1,11052.825
7,False,402,0.93,55,[],[],"[(1091, 854)]",[],[1],[27],[0.45],"[640.0, 512.0]",horizontal,"(390.0, 262.0)",[1.5],[0.406],1,11057.73
7,False,403,0.754,45,[],[],"[(1082, 858)]",[],[1],[36],[0.6],"[640.0, 512.0]",vertical,"(390.0, 262.0)",[1.4],[0.557],1,11062.645
7,False,404,0.645,38,[],[],"[(1087, 872)]",[],[1],[31],[0.5166666666666666],"[640.0, 512.0]",horizontal,"(890.0, 262.0)",[0.7166666666666667],[0.475],1,11067.568
7,False,405,0.502,30,[],[],"[(1096, 910)]",[],[1],[29],[0.48333333333333334],"[640.0, 512.0]",vertical,"(390.0, 762.0)",[1.6333333333333333],[0.447],1,11071.527
7,False,406,0.966,57,[],[],"[(1087, 862)]",[],[1],[29],[0.48333333333333334],"[640.0, 512.0]",horizontal,"(390.0, 262.0)",[1.5333333333333332],[0.443],1,11076.286
7,False,407,0.7,42,[],[],"[(1072, 860)]",[],[1],[29],[0.48333333333333334],"[640.0, 512.0]",vertical,"(390.0, 262.0)",[1.4666666666666666],[0.441],1,11081.297
7,False,408,1.013,60,[],[],"[(1090, 867)]",[],[1],[35],[0.5833333333333334],"[640.0, 512.0]",horizontal,"(390.0, 762.0)",[1.5166666666666666],[0.535],1,11086.061
7,False,409,0.803,48,[],[],"[(1072, 869)]",[],[1],[32],[0.5333333333333333],"[640.0, 512.0]",vertical,"(890.0, 762.0)",[0.85],[0.491],1,11091.148
7,False,410,1.114,66,[],[],"[(1081, 854)]",[],[1],[32],[0.5333333333333333],"[640.0, 512.0]",horizontal,"(390.0, 262.0)",[0.6666666666666666],[0.493],1,11095.517
7,False,411,0.65,39,[],[],"[(1077, 861)]",[],[1],[36],[0.6],"[640.0, 512.0]",vertical,"(890.0, 762.0)",[1.2333333333333334],[0.557],1,11099.881
7,False,412,0.502,30,[],[],"[(1096, 880)]",[],[1],[32],[0.5333333333333333],"[640.0, 512.0]",horizontal,"(390.0, 762.0)",[0.5333333333333333],[0.49],1,11104.445
7,False,413,0.616,36,[],[],"[(1091, 886)]",[],[1],[28],[0.4666666666666667],"[640.0, 512.0]",vertical,"(390.0, 262.0)",[1.5833333333333333],[0.427],1,11107.942
7,False,414,0.541,32,[],[],"[(1067, 872)]",[],[1],[29],[0.48333333333333334],"[640.0, 512.0]",horizontal,"(890.0, 262.0)",[0.5666666666666667],[0.447],1,11112.765
7,False,415,0.821,49,[],[],"[(1105, 884)]",[],[1],[30],[0.5],"[640.0, 512.0]",vertical,"(390.0, 262.0)",[1.0],[0.462],1,11116.662
7,False,416,0.789,47,[],[],"[(1072, 881)]",[],[1],[31],[0.5166666666666666],"[640.0, 512.0]",vertical,"(890.0, 262.0)",[1.05],[0.476],1,11121.078
7,False,417,1.175,70,[],[],"[(1086, 872)]",[],[1],[31],[0.5166666666666666],"[640.0, 512.0]",vertical,"(390.0, 262.0)",[1.0],[0.48],1,11125.747
7,False,418,0.93,55,[],[],"[(1072, 863)]",[],[1],[32],[0.5333333333333333],"[640.0, 512.0]",vertical,"(890.0, 762.0)",[0.9833333333333333],[0.49],1,11130.426
7,False,419,0.997,59,[],[],"[(1096, 882)]",[],[1],[33],[0.55],"[640.0, 512.0]",horizontal,"(890.0, 262.0)",[1.2666666666666666],[0.511],1,11135.103
7,False,420,0.642,38,[],[],"[(1089, 878)]",[],[1],[],[],"[640.0, 512.0]",horizontal,"(890.0, 262.0)",[],[0],0,11140.047
8,False,421,0.667,40,[],[],"[(1072, 878)]",[],[1],[39],[0.65],"[640.0, 512.0]",horizontal,"(390.0, 262.0)",[1.4666666666666666],[0.607],1,11144.647
8,False,422,0.998,59,[],[],"[(1091, 873)]",[],[1],[31],[0.5166666666666666],"[640.0, 512.0]",vertical,"(890.0, 262.0)",[1.3833333333333333],[0.48],1,11150.594
8,False,423,1.051,63,[],[],"[(1081, 866)]",[],[1],[],[],"[640.0, 512.0]",vertical,"(890.0, 262.0)",[],[0],0,11155.805
8,False,424,1.179,70,[],[],"[(1076, 867)]",[],[1],[11],[0.18333333333333332],"[640.0, 512.0]",vertical,"(390.0, 262.0)",[1.0166666666666666],[0.152],1,11159.131
8,False,425,0.727,43,[],[],"[(1063, 860)]",[],[1],[31],[0.5166666666666666],"[640.0, 512.0]",horizontal,"(390.0, 762.0)",[0.9],[0.477],1,11164.25
8,False,426,1.07,64,[],[],"[(1096, 876)]",[],[1],[17],[0.2833333333333333],"[640.0, 512.0]",vertical,"(390.0, 762.0)",[0.9166666666666666],[0.249],1,11168.603
8,False,427,0.791,47,[],[],"[(1096, 872)]",[],[1],[30],[0.5],"[640.0, 512.0]",horizontal,"(890.0, 262.0)",[0.8666666666666667],[0.46],1,11172.942
8,False,428,1.185,71,[],[],"[(1090, 878)]",[],[1],[31],[0.5166666666666666],"[640.0, 512.0]",horizontal,"(390.0, 262.0)",[0.65],[0.474],1,11177.273
8,False,429,1.072,64,[],[],"[(1096, 872)]",[],[1],[32],[0.5333333333333333],"[640.0, 512.0]",horizontal,"(890.0, 262.0)",[0.8833333333333333],[0.49],1,11181.83
8,False,430,1.134,68,[],[],"[(1090, 867)]",[],[1],[33],[0.55],"[640.0, 512.0]",horizontal,"(890.0, 762.0)",[0.95],[0.505],1,11186.262
8,False,431,1.17,70,[],[],"[(1096, 893)]",[],[1],[37],[0.6166666666666667],"[640.0, 512.0]",vertical,"(890.0, 262.0)",[1.5666666666666667],[0.578],1,11191.014
8,False,432,0.667,40,[],[],"[(1090, 875)]",[],[1],[32],[0.5333333333333333],"[640.0, 512.0]",horizontal,"(390.0, 762.0)",[0.8333333333333334],[0.492],1,11196.54
8,False,433,0.897,53,[],[],"[(1069, 880)]",[],[1],[8],[0.13333333333333333],"[640.0, 512.0]",vertical,"(390.0, 262.0)",[1.2333333333333334],[0.101],1,11200.552
8,False,434,0.71,42,[],[],"[(1049, 854)]",[],[1],[31],[0.5166666666666666],"[640.0, 512.0]",horizontal,"(890.0, 762.0)",[0.7333333333333333],[0.481],1,11205.098
8,False,435,1.076,64,[],[],"[(1086, 878)]",[],[1],[],[],"[640.0, 512.0]",horizontal,"(390.0, 762.0)",[],[0],0,11209.592
8,False,436,1.045,62,[],[],"[(1067, 864)]",[],[1],[],[],"[640.0, 512.0]",vertical,"(890.0, 262.0)",[],[0],0,11213.163
8,False,437,0.669,40,[],[],"[(1076, 848)]",[],[1],[39],[0.65],"[640.0, 512.0]",vertical,"(890.0, 762.0)",[1.0666666666666667],[0.604],1,11217.427
8,False,438,0.875,52,[],[],"[(1086, 882)]",[],[1],[31],[0.5166666666666666],"[640.0, 512.0]",vertical,"(890.0, 762.0)",[1.5333333333333332],[0.484],1,11223.097
8,False,439,0.96,57,[],[],"[(1107, 889)]",[],[1],[32],[0.5333333333333333],"[640.0, 512.0]",vertical,"(890.0, 762.0)",[1.3],[0.501],1,11228.179
8,False,440,0.919,55,[],[],"[(1086, 888)]",[],[1],[34],[0.5666666666666667],"[640.0, 512.0]",horizontal,"(890.0, 262.0)",[0.5666666666666667],[0.526],1,11233.113
8,False,441,0.731,43,[],[],"[(1048, 893)]",[],[1],[25],[0.4166666666666667],"[640.0, 512.0]",horizontal,"(390.0, 262.0)",[1.3333333333333333],[0.384],1,11237.159
8,False,442,1.087,65,[],[],"[(1072, 881)]",[],[1],[28],[0.4666666666666667],"[640.0, 512.0]",horizontal,"(390.0, 262.0)",[1.55],[0.434],1,11241.799
8,False,443,0.841,50,[],[],"[(1083, 868)]",[],[1],[31],[0.5166666666666666],"[640.0, 512.0]",vertical,"(890.0, 762.0)",[1.6833333333333333],[0.477],1,11247.21
8,False,444,1.016,60,[],[],"[(1086, 872)]",[],[1],[31],[0.5166666666666666],"[640.0, 512.0]",vertical,"(390.0, 262.0)",[1.4],[0.474],1,11252.257
8,False,445,0.804,48,[],[],"[(1072, 898)]",[],[1],[32],[0.5333333333333333],"[640.0, 512.0]",horizontal,"(390.0, 762.0)",[0.65],[0.491],1,11257.343
8,False,446,0.822,49,[],[],"[(1043, 887)]",[],[1],[34],[0.5666666666666667],"[640.0, 512.0]",vertical,"(890.0, 762.0)",[0.7833333333333333],[0.533],1,11261.529
8,False,447,1.129,67,[],[],"[(1095, 886)]",[],[1],[6],[0.1],"[640.0, 512.0]",horizontal,"(390.0, 262.0)",[1.5666666666666667],[0.069],1,11265.691
8,False,448,0.937,56,[],[],"[(1086, 852)]",[],[1],[],[],"[640.0, 512.0]",horizontal,"(390.0, 762.0)",[],[0],0,11270.68
8,False,449,1.195,71,[],[],"[(1057, 881)]",[],[1],[39],[0.65],"[640.0, 512.0]",horizontal,"(890.0, 262.0)",[1.5666666666666667],[0.608],1,11274.886
8,False,450,0.961,57,[],[],"[(1067, 882)]",[],[1],[32],[0.5333333333333333],"[640.0, 512.0]",horizontal,"(890.0, 762.0)",[1.2833333333333332],[0.489],1,11310.373
8,False,451,0.841,50,[],[],"[(1046, 876)]",[],[1],[30],[0.5],"[640.0, 512.0]",horizontal,"(890.0, 762.0)",[1.5166666666666666],[0.464],1,11315.163
8,False,452,0.763,45,[],[],"[(1062, 904)]",[],[1],[],[],"[640.0, 512.0]",vertical,"(890.0, 262.0)",[],[0],0,11320.065
8,False,453,0.654,39,[],[],"[(1034, 865)]",[],[1],[33],[0.55],"[640.0, 512.0]",vertical,"(390.0, 762.0)",[1.4],[0.51],1,11323.892
8,False,454,0.623,37,[],[],"[(1043, 854)]",[],[1],[37],[0.6166666666666667],"[640.0, 512.0]",horizontal,"(390.0, 762.0)",[1.45],[0.581],1,11351.964
8,False,455,0.703,42,[],[],"[(1052, 876)]",[],[1],[32],[0.5333333333333333],"[640.0, 512.0]",vertical,"(390.0, 762.0)",[0.6],[0.496],1,11356.729
8,False,456,0.513,30,[],[],"[(1077, 879)]",[],[1],[32],[0.5333333333333333],"[640.0, 512.0]",horizontal,"(390.0, 762.0)",[0.5833333333333334],[0.491],1,11360.747
8,False,457,1.156,69,[],[],"[(1062, 885)]",[],[1],[32],[0.5333333333333333],"[640.0, 512.0]",vertical,"(390.0, 762.0)",[0.9],[0.493],1,11364.565
8,False,458,0.53,31,[],[],"[(1057, 901)]",[],[1],[34],[0.5666666666666667],"[640.0, 512.0]",horizontal,"(390.0, 262.0)",[0.5833333333333334],[0.523],1,11369.496
8,False,459,0.969,58,[],[],"[(1067, 880)]",[],[1],[29],[0.48333333333333334],"[640.0, 512.0]",vertical,"(890.0, 262.0)",[1.1],[0.445],1,11373.277
8,False,460,0.53,31,[],[],"[(1023, 886), (1047, 873)]",[],"[0, 1]",[33],[0.55],"[640.0, 512.0]",horizontal,"(390.0, 762.0)",[1.0833333333333333],[0.507],1,11377.938
8,False,461,0.506,30,[],[],"[(1076, 875)]",[],[1],[34],[0.5666666666666667],"[640.0, 512.0]",vertical,"(390.0, 762.0)",[0.9166666666666666],[0.525],1,11384.188
8,False,462,0.683,40,[],[],"[(1045, 869)]",[],[1],[34],[0.5666666666666667],"[640.0, 512.0]",vertical,"(390.0, 262.0)",[0.7],[0.525],1,11388.416
8,False,463,0.674,40,[],[],"[(1076, 872)]",[],[1],[38],[0.6333333333333333],"[640.0, 512.0]",vertical,"(390.0, 762.0)",[1.0666666666666667],[0.59],1,11392.436
8,False,464,0.509,30,[],[],"[(1076, 872)]",[],[1],[31],[0.5166666666666666],"[640.0, 512.0]",vertical,"(890.0, 762.0)",[0.65],[0.477],1,11397.113
8,False,465,0.644,38,[],[],"[(1079, 862)]",[],[1],[32],[0.5333333333333333],"[640.0, 512.0]",horizontal,"(890.0, 262.0)",[0.85],[0.497],1,11401.046
8,False,466,1.113,66,[],[],"[(1078, 875)]",[],[1],[35],[0.5833333333333334],"[640.0, 512.0]",vertical,"(890.0, 262.0)",[1.0333333333333332],[0.545],1,11406.897
8,False,467,0.51,30,[],[],"[(1072, 869)]",[],[1],[35],[0.5833333333333334],"[640.0, 512.0]",vertical,"(390.0, 262.0)",[1.1333333333333333],[0.539],1,11411.614
8,False,468,0.847,50,[],[],"[(1074, 880)]",[],[1],[32],[0.5333333333333333],"[640.0, 512.0]",vertical,"(390.0, 762.0)",[0.5],[0.496],1,11416.017
8,False,469,0.758,45,[],[],"[(1038, 893)]",[],[1],[37],[0.6166666666666667],"[640.0, 512.0]",horizontal,"(890.0, 762.0)",[0.5],[0.576],1,11419.892
8,False,470,0.65,39,[],[],"[(1039, 896)]",[],[1],[32],[0.5333333333333333],"[640.0, 512.0]",vertical,"(390.0, 262.0)",[0.6833333333333333],[0.494],1,11423.874
8,False,471,0.919,55,[],[],"[(1067, 904)]",[],[1],[36],[0.6],"[640.0, 512.0]",vertical,"(890.0, 762.0)",[0.8333333333333334],[0.565],1,11427.858
8,False,472,0.66,39,[],[],"[(1076, 875)]",[],[1],[32],[0.5333333333333333],"[640.0, 512.0]",vertical,"(890.0, 262.0)",[0.7666666666666666],[0.493],1,11432.46
8,False,473,0.588,35,[],[],"[(1043, 910)]",[],[1],[32],[0.5333333333333333],"[640.0, 512.0]",vertical,"(890.0, 762.0)",[0.65],[0.489],1,11436.467
8,False,474,0.778,46,[],[],"[(1076, 899)]",[],[1],[32],[0.5333333333333333],"[640.0, 512.0]",horizontal,"(890.0, 262.0)",[1.6333333333333333],[0.495],1,11440.416
8,False,475,1.033,61,[],[],"[(1089, 870)]",[],[1],[32],[0.5333333333333333],"[640.0, 512.0]",vertical,"(390.0, 262.0)",[1.2166666666666666],[0.492],1,11445.545
8,False,476,0.569,34,[],[],"[(1086, 899)]",[],[1],[30],[0.5],"[640.0, 512.0]",horizontal,"(890.0, 762.0)",[0.6333333333333333],[0.458],1,11450.488
8,False,477,1.018,61,[],[],"[(1074, 862)]",[],[1],[32],[0.5333333333333333],"[640.0, 512.0]",horizontal,"(390.0, 762.0)",[0.8166666666666667],[0.495],1,11454.492
8,False,478,1.055,63,[],[],"[(1067, 870)]",[],[1],[32],[0.5333333333333333],"[640.0, 512.0]",horizontal,"(890.0, 762.0)",[0.9833333333333333],[0.493],1,11458.907
8,False,479,0.578,34,[],[],"[(1076, 856)]",[],[1],[32],[0.5333333333333333],"[640.0, 512.0]",vertical,"(390.0, 262.0)",[1.0166666666666666],[0.495],1,11463.799
8,False,480,1.04,62,[],[],"[(1085, 866)]",[],[1],[31],[0.5166666666666666],"[640.0, 512.0]",vertical,"(890.0, 262.0)",[1.45],[0.475],1,11467.975
9,False,481,1.187,71,[],[],"[(1078, 867)]",[],[1],[33],[0.55],"[640.0, 512.0]",horizontal,"(390.0, 762.0)",[0.7166666666666667],[0.517],1,11473.121
9,False,482,0.846,50,[],[],"[(1073, 885)]",[],[1],[32],[0.5333333333333333],"[640.0, 512.0]",vertical,"(390.0, 762.0)",[0.5],[0.494],1,11477.958
9,False,483,0.989,59,[],[],"[(1018, 858), (1076, 867)]",[],"[0, 1]",[38],[0.6333333333333333],"[640.0, 512.0]",vertical,"(390.0, 762.0)",[1.6833333333333333],[0.587],1,11481.992
9,False,484,0.674,40,[],[],"[(1084, 870)]",[],[1],[31],[0.5166666666666666],"[640.0, 512.0]",horizontal,"(890.0, 262.0)",[1.5666666666666667],[0.477],1,11489.001
9,False,485,1.057,63,[],[],"[(1062, 876)]",[],[1],[37],[0.6166666666666667],"[640.0, 512.0]",vertical,"(890.0, 262.0)",[0.65],[0.575],1,11493.77
9,False,486,0.746,44,[],[],"[(1030, 896)]",[],[1],[],[],"[640.0, 512.0]",vertical,"(890.0, 262.0)",[],[0],0,11498.141
9,False,487,0.828,49,[],[],"[(1066, 893)]",[],[1],[33],[0.55],"[640.0, 512.0]",horizontal,"(890.0, 262.0)",[1.05],[0.512],1,11501.385
9,False,488,0.919,55,[],[],"[(1051, 866)]",[],[1],[39],[0.65],"[640.0, 512.0]",horizontal,"(390.0, 262.0)",[0.9833333333333333],[0.61],1,11532.15
9,False,489,0.97,58,[],[],"[(1081, 858)]",[],[1],[51],[0.85],"[640.0, 512.0]",horizontal,"(890.0, 762.0)",[1.55],"[0, 0.812]",0,11536.704
9,False,490,0.622,37,[],[],"[(1066, 869)]",[],[1],[33],[0.55],"[640.0, 512.0]",horizontal,"(390.0, 762.0)",[1.2],[0.505],1,11542.07
9,False,491,0.639,38,[],[],"[(1044, 862)]",[],[1],[30],[0.5],"[640.0, 512.0]",vertical,"(390.0, 262.0)",[0.9],[0.464],1,11546.727
9,False,492,0.824,49,[],[],"[(1044, 881)]",[],[1],[42],[0.7],"[640.0, 512.0]",horizontal,"(890.0, 262.0)",[0.8333333333333334],[0.659],1,11550.79
9,False,493,1.105,66,[],[],"[(1044, 906)]",[],[1],[34],[0.5666666666666667],"[640.0, 512.0]",vertical,"(890.0, 262.0)",[0.6166666666666667],[0.532],1,11555.258
9,False,494,0.845,50,[],[],"[(1082, 868)]",[],[1],[31],[0.5166666666666666],"[640.0, 512.0]",vertical,"(890.0, 262.0)",[1.6666666666666667],[0.476],1,11559.685
9,False,495,0.515,30,[],[],"[(1077, 874)]",[],[1],[32],[0.5333333333333333],"[640.0, 512.0]",horizontal,"(890.0, 762.0)",[0.5666666666666667],[0.495],1,11564.977
9,False,496,0.695,41,[],[],"[(1076, 899)]",[],[1],[32],[0.5333333333333333],"[640.0, 512.0]",horizontal,"(390.0, 762.0)",[1.3166666666666667],[0.491],1,11568.675
9,False,497,0.532,31,[],[],"[(1076, 884)]",[],[1],[31],[0.5166666666666666],"[640.0, 512.0]",vertical,"(890.0, 262.0)",[1.2166666666666666],[0.472],1,11573.535
9,False,498,0.779,46,[],[],"[(1081, 870)]",[],[1],[32],[0.5333333333333333],"[640.0, 512.0]",horizontal,"(890.0, 762.0)",[1.2],[0.494],1,11577.867
9,False,499,0.907,54,[],[],"[(1081, 873)]",[],[1],[45],[0.75],"[640.0, 512.0]",vertical,"(890.0, 262.0)",[0.6333333333333333],[0.708],1,11582.343
9,False,500,0.802,48,[],[],"[(1086, 872)]",[],[1],[33],[0.55],"[640.0, 512.0]",horizontal,"(390.0, 762.0)",[1.3333333333333333],[0.511],1,11586.745
9,False,501,1.11,66,[],[],"[(1049, 879)]",[],[1],[34],[0.5666666666666667],"[640.0, 512.0]",horizontal,"(390.0, 262.0)",[1.1666666666666667],[0.524],1,11591.616
9,False,502,1.113,66,[],[],"[(1086, 895)]",[],[1],[32],[0.5333333333333333],"[640.0, 512.0]",vertical,"(890.0, 762.0)",[1.5833333333333333],[0.492],1,11596.662
9,False,503,0.586,35,[],[],"[(1086, 867)]",[],[1],[32],[0.5333333333333333],"[640.0, 512.0]",horizontal,"(390.0, 262.0)",[0.85],[0.493],1,11602.105
9,False,504,0.568,34,[],[],"[(1082, 852)]",[],[1],[30],[0.5],"[640.0, 512.0]",vertical,"(390.0, 262.0)",[1.25],[0.467],1,11606.186
9,False,505,0.684,41,[],[],"[(1049, 868)]",[],[1],[38],[0.6333333333333333],"[640.0, 512.0]",horizontal,"(890.0, 262.0)",[1.6333333333333333],[0.587],1,11610.695
9,False,506,1.072,64,[],[],"[(1062, 877)]",[],[1],[31],[0.5166666666666666],"[640.0, 512.0]",horizontal,"(890.0, 262.0)",[1.1],[0.471],1,11615.999
9,False,507,0.662,39,[],[],"[(1071, 870)]",[],[1],[31],[0.5166666666666666],"[640.0, 512.0]",vertical,"(890.0, 262.0)",[1.4833333333333334],[0.475],1,11620.799
9,False,508,1.131,67,[],[],"[(1094, 902)]",[],[1],[34],[0.5666666666666667],"[640.0, 512.0]",horizontal,"(390.0, 762.0)",[0.95],[0.524],1,11625.485
9,False,509,0.985,59,[],[],"[(1086, 872)]",[],[1],[33],[0.55],"[640.0, 512.0]",vertical,"(890.0, 762.0)",[1.6333333333333333],[0.512],1,11630.286
9,False,510,0.798,47,[],[],"[(1072, 863)]",[],[1],[33],[0.55],"[640.0, 512.0]",vertical,"(890.0, 762.0)",[1.0],[0.507],1,11635.684
9,False,511,0.935,56,[],[],"[(1076, 896)]",[],[1],[29],[0.48333333333333334],"[640.0, 512.0]",vertical,"(390.0, 262.0)",[1.6166666666666667],[0.441],1,11640.008
9,False,512,0.898,53,[],[],"[(1105, 885)]",[],[1],[31],[0.5166666666666666],"[640.0, 512.0]",vertical,"(890.0, 262.0)",[1.15],[0.475],1,11645.21
9,False,513,0.757,45,[],[],"[(1047, 852)]",[],[1],[30],[0.5],"[640.0, 512.0]",horizontal,"(890.0, 262.0)",[0.8333333333333334],[0.46],1,11650.032
9,False,514,0.95,57,[],[],"[(1090, 880)]",[],[1],[32],[0.5333333333333333],"[640.0, 512.0]",vertical,"(390.0, 762.0)",[1.2833333333333332],[0.49],1,11654.183
9,False,515,1.089,65,[],[],"[(1074, 887)]",[],[1],[33],[0.55],"[640.0, 512.0]",vertical,"(890.0, 762.0)",[1.3],[0.507],1,11659.078
9,False,516,1.187,71,[],[],"[(1093, 879)]",[],[1],[33],[0.55],"[640.0, 512.0]",horizontal,"(890.0, 762.0)",[0.8666666666666667],[0.51],1,11664.197
9,False,517,0.847,50,[],[],"[(1090, 883)]",[],[1],[33],[0.55],"[640.0, 512.0]",vertical,"(890.0, 762.0)",[1.45],[0.506],1,11668.915
9,False,518,0.926,55,[],[],"[(1074, 880)]",[],[1],[29],[0.48333333333333334],"[640.0, 512.0]",vertical,"(890.0, 262.0)",[0.5666666666666667],[0.445],1,11673.875
9,False,519,0.859,51,[],[],"[(1049, 888)]",[],[1],[41],[0.6833333333333333],"[640.0, 512.0]",horizontal,"(390.0, 762.0)",[1.3166666666666667],[0.638],1,11677.979
9,False,520,0.828,49,[],[],"[(1072, 876)]",[],[1],[39],[0.65],"[640.0, 512.0]",horizontal,"(890.0, 762.0)",[1.25],[0.605],1,11682.939
9,False,521,1.049,62,[],[],"[(1072, 873)]",[],[1],[32],[0.5333333333333333],"[640.0, 512.0]",vertical,"(890.0, 762.0)",[1.0666666666666667],[0.495],1,11687.733
9,False,522,0.638,38,[],[],"[(1063, 874)]",[],[1],[37],[0.6166666666666667],"[640.0, 512.0]",horizontal,"(890.0, 762.0)",[1.15],[0.571],1,11692.463
9,False,523,1.067,64,[],[],"[(1067, 878)]",[],[1],[39],[0.65],"[640.0, 512.0]",vertical,"(890.0, 762.0)",[1.0166666666666666],[0.605],1,11697.959
9,False,524,1.17,70,[],[],"[(1091, 891)]",[],[1],[34],[0.5666666666666667],"[640.0, 512.0]",vertical,"(890.0, 262.0)",[0.85],[0.523],1,11702.819
9,False,525,0.662,39,[],[],"[(1083, 875)]",[],[1],[32],[0.5333333333333333],"[640.0, 512.0]",vertical,"(890.0, 262.0)",[0.5666666666666667],[0.491],1,11707.5
9,False,526,0.735,44,[],[],"[(1067, 877)]",[],[1],[28],[0.4666666666666667],"[640.0, 512.0]",horizontal,"(390.0, 262.0)",[1.1166666666666667],[0.428],1,11711.414
9,False,527,0.876,52,[],[],"[(1009, 902), (1076, 863)]",[],"[0, 1]",[29],[0.48333333333333334],"[640.0, 512.0]",vertical,"(890.0, 262.0)",[1.55],[0.443],1,11716.036
9,False,528,0.858,51,[],[],"[(1072, 879)]",[],[1],[30],[0.5],"[640.0, 512.0]",horizontal,"(890.0, 262.0)",[0.85],[0.46],1,11723.052
9,False,529,0.528,31,[],[],"[(1029, 886), (1081, 858)]",[],"[0, 1]",[35],[0.5833333333333334],"[640.0, 512.0]",horizontal,"(390.0, 762.0)",[1.55],[0.542],1,11727.649
9,False,530,0.988,59,[],[],"[(1076, 881)]",[],[1],[33],[0.55],"[640.0, 512.0]",horizontal,"(390.0, 262.0)",[0.9666666666666667],[0.523],1,11734.212
9,False,531,0.986,59,[],[],"[(1081, 867)]",[],[1],[34],[0.5666666666666667],"[640.0, 512.0]",vertical,"(890.0, 762.0)",[1.1166666666666667],[0.526],1,11739.07
9,False,532,0.684,41,[],[],"[(1096, 877)]",[],[1],[31],[0.5166666666666666],"[640.0, 512.0]",vertical,"(890.0, 262.0)",[0.9],[0.471],1,11743.813
9,False,533,0.765,45,[],[],"[(1083, 856)]",[],[1],[33],[0.55],"[640.0, 512.0]",vertical,"(390.0, 762.0)",[0.8],[0.51],1,11748.078
9,False,534,0.673,40,[],[],"[(1049, 867)]",[],[1],[32],[0.5333333333333333],"[640.0, 512.0]",vertical,"(390.0, 262.0)",[0.7833333333333333],[0.492],1,11752.418
9,False,535,0.663,39,[],[],"[(1105, 883)]",[],[1],[31],[0.5166666666666666],"[640.0, 512.0]",vertical,"(390.0, 262.0)",[1.3166666666666667],[0.475],1,11756.46
9,False,536,0.857,51,[],[],"[(1086, 868)]",[],[1],[31],[0.5166666666666666],"[640.0, 512.0]",horizontal,"(390.0, 262.0)",[1.0166666666666666],[0.475],1,11761.034
9,False,537,0.61,36,[],[],"[(1081, 866)]",[],[1],[30],[0.5],"[640.0, 512.0]",vertical,"(390.0, 262.0)",[1.4833333333333334],[0.457],1,11765.462
9,False,538,0.756,45,[],[],"[(1081, 872)]",[],[1],[31],[0.5166666666666666],"[640.0, 512.0]",horizontal,"(390.0, 262.0)",[1.5166666666666666],[0.482],1,11770.347
9,False,539,1.047,62,[],[],"[(1067, 879)]",[],[1],[29],[0.48333333333333334],"[640.0, 512.0]",vertical,"(390.0, 262.0)",[1.4833333333333334],[0.443],1,11775.334
9,False,540,0.527,31,[],[],"[(1086, 872)]",[],[1],[32],[0.5333333333333333],"[640.0, 512.0]",horizontal,"(890.0, 762.0)",[0.9],[0.491],1,11780.296
10,False,541,1.003,60,[],[],"[(1090, 881)]",[],[1],[31],[0.5166666666666666],"[640.0, 512.0]",horizontal,"(890.0, 262.0)",[1.3666666666666667],[0.478],1,11784.465
10,False,542,0.91,54,[],[],"[(1090, 867)]",[],[1],[34],[0.5666666666666667],"[640.0, 512.0]",horizontal,"(390.0, 762.0)",[1.6333333333333333],[0.523],1,11789.595
10,False,543,0.933,55,[],[],"[(1062, 875)]",[],[1],[32],[0.5333333333333333],"[640.0, 512.0]",horizontal,"(890.0, 262.0)",[1.2166666666666666],[0.506],1,11794.686
10,False,544,0.92,55,[],[],"[(1062, 872)]",[],[1],[34],[0.5666666666666667],"[640.0, 512.0]",vertical,"(890.0, 762.0)",[1.6],[0.522],1,11799.354
10,False,545,0.959,57,[],[],"[(1090, 880)]",[],[1],[33],[0.55],"[640.0, 512.0]",horizontal,"(890.0, 262.0)",[1.0833333333333333],[0.513],1,11804.578
10,False,546,0.857,51,[],[],"[(1057, 872)]",[],[1],[34],[0.5666666666666667],"[640.0, 512.0]",horizontal,"(390.0, 762.0)",[1.35],[0.524],1,11809.266
10,False,547,0.716,42,[],[],"[(1089, 855)]",[],[1],[32],[0.5333333333333333],"[640.0, 512.0]",vertical,"(390.0, 262.0)",[1.4],[0.494],1,11814.136
10,False,548,1.059,63,[],[],"[(1070, 867)]",[],[1],[35],[0.5833333333333334],"[640.0, 512.0]",horizontal,"(390.0, 262.0)",[0.65],[0.544],1,11819.001
10,False,549,1.144,68,[],[],"[(1090, 882)]",[],[1],[32],[0.5333333333333333],"[640.0, 512.0]",vertical,"(890.0, 762.0)",[0.5666666666666667],[0.49],1,11823.279
10,False,550,0.699,41,[],[],"[(1049, 868)]",[],[1],[40],[0.6666666666666666],"[640.0, 512.0]",vertical,"(890.0, 762.0)",[1.5333333333333332],[0.623],1,11827.681
10,False,551,1.008,60,[],[],"[(1083, 873)]",[],[1],[32],[0.5333333333333333],"[640.0, 512.0]",vertical,"(390.0, 262.0)",[1.2666666666666666],[0.49],1,11832.551
10,False,552,1.078,64,[],[],"[(1089, 872)]",[],[1],[33],[0.55],"[640.0, 512.0]",vertical,"(390.0, 762.0)",[0.6333333333333333],[0.508],1,11837.533
10,False,553,1.037,62,[],[],"[(1075, 861)]",[],[1],[33],[0.55],"[640.0, 512.0]",vertical,"(390.0, 262.0)",[0.9],[0.506],1,11841.766
10,False,554,0.877,52,[],[],"[(1049, 881)]",[],[1],[35],[0.5833333333333334],"[640.0, 512.0]",horizontal,"(890.0, 762.0)",[1.2333333333333334],[0.544],1,11846.362
10,False,555,0.722,43,[],[],"[(1091, 896)]",[],[1],[31],[0.5166666666666666],"[640.0, 512.0]",horizontal,"(890.0, 262.0)",[1.3666666666666667],[0.477],1,11851.48
10,False,556,1.135,68,[],[],"[(1091, 877)]",[],[1],[31],[0.5166666666666666],"[640.0, 512.0]",horizontal,"(890.0, 262.0)",[0.9333333333333333],[0.479],1,11856.165
10,False,557,1.047,62,[],[],"[(1081, 876)]",[],[1],[26],[0.43333333333333335],"[640.0, 512.0]",vertical,"(390.0, 262.0)",[1.5166666666666666],[0.391],1,11860.801
10,False,558,1.055,63,[],[],"[(1078, 872)]",[],[1],[34],[0.5666666666666667],"[640.0, 512.0]",horizontal,"(890.0, 762.0)",[1.6833333333333333],[0.527],1,11865.779
10,False,559,0.507,30,[],[],"[(1080, 870)]",[],[1],[34],[0.5666666666666667],"[640.0, 512.0]",vertical,"(390.0, 762.0)",[1.0],[0.523],1,11871.322
10,False,560,0.994,59,[],[],"[(1052, 861)]",[],[1],[35],[0.5833333333333334],"[640.0, 512.0]",horizontal,"(390.0, 762.0)",[0.5333333333333333],[0.541],1,11875.582
10,False,561,1.076,64,[],[],"[(1062, 880)]",[],[1],[45],[0.75],"[640.0, 512.0]",vertical,"(390.0, 762.0)",[0.6833333333333333],[0.705],1,11879.861
10,False,562,0.805,48,[],[],"[(1067, 879)]",[],[1],[35],[0.5833333333333334],"[640.0, 512.0]",horizontal,"(390.0, 762.0)",[1.05],[0.54],1,11884.65
10,False,563,0.582,34,[],[],"[(1062, 881)]",[],[1],[33],[0.55],"[640.0, 512.0]",vertical,"(890.0, 262.0)",[0.9833333333333333],[0.507],1,11889.319
10,False,564,0.821,49,[],[],"[(1098, 881)]",[],[1],[],[],"[640.0, 512.0]",vertical,"(890.0, 262.0)",[],[0],0,11893.578
10,False,565,1.026,61,[],[],"[(1077, 862)]",[],[1],[37],[0.6166666666666667],"[640.0, 512.0]",vertical,"(390.0, 762.0)",[1.4833333333333334],[0.574],1,11897.366
10,False,566,1.181,70,[],[],"[(1081, 861)]",[],[1],[35],[0.5833333333333334],"[640.0, 512.0]",horizontal,"(390.0, 762.0)",[1.2666666666666666],[0.538],1,11902.835
10,False,567,1.11,66,[],[],"[(1072, 869)]",[],[1],[34],[0.5666666666666667],"[640.0, 512.0]",horizontal,"(890.0, 762.0)",[1.1666666666666667],[0.528],1,11908.059
10,False,568,0.927,55,[],[],"[(1087, 886)]",[],[1],[33],[0.55],"[640.0, 512.0]",horizontal,"(390.0, 762.0)",[1.25],[0.504],1,11912.979
10,False,569,0.827,49,[],[],"[(1082, 875)]",[],[1],[33],[0.55],"[640.0, 512.0]",horizontal,"(390.0, 262.0)",[0.8166666666666667],[0.512],1,11917.861
10,False,570,1.131,67,[],[],"[(1067, 890)]",[],[1],[33],[0.55],"[640.0, 512.0]",horizontal,"(890.0, 762.0)",[1.2333333333333334],[0.504],1,11922.192
10,False,571,0.516,30,[],[],"[(1052, 853)]",[],[1],[31],[0.5166666666666666],"[640.0, 512.0]",horizontal,"(390.0, 262.0)",[0.8166666666666667],[0.473],1,11927.165
10,False,572,1.031,61,[],[],"[(1110, 871)]",[],[1],[32],[0.5333333333333333],"[640.0, 512.0]",horizontal,"(890.0, 262.0)",[0.7666666666666666],[0.495],1,11931.181
10,False,573,0.577,34,[],[],"[(1067, 871)]",[],[1],[43],[0.7166666666666667],"[640.0, 512.0]",horizontal,"(390.0, 762.0)",[1.6],[0.674],1,11935.781
10,False,574,0.521,31,[],[],"[(1062, 875)]",[],[1],[31],[0.5166666666666666],"[640.0, 512.0]",horizontal,"(890.0, 262.0)",[1.2],[0.477],1,11940.802
10,False,575,1.117,67,[],[],"[(1077, 867)]",[],[1],[45],[0.75],"[640.0, 512.0]",horizontal,"(390.0, 262.0)",[1.6166666666666667],[0.709],1,11945.247
10,False,576,1.167,70,[],[],"[(1081, 871)]",[],[1],[33],[0.55],"[640.0, 512.0]",horizontal,"(890.0, 762.0)",[1.0],[0.505],1,11950.743
10,False,577,0.915,54,[],[],"[(1077, 850)]",[],[1],[33],[0.55],"[640.0, 512.0]",vertical,"(390.0, 762.0)",[0.6833333333333333],[0.512],1,11955.514
10,False,578,0.646,38,[],[],"[(1081, 881)]",[],[1],[33],[0.55],"[640.0, 512.0]",vertical,"(390.0, 762.0)",[1.4],[0.508],1,11959.767
10,False,579,1.191,71,[],[],"[(1052, 870)]",[],[1],[30],[0.5],"[640.0, 512.0]",horizontal,"(390.0, 262.0)",[0.6333333333333333],[0.457],1,11964.527
10,False,580,0.868,52,[],[],"[(1074, 870)]",[],[1],[39],[0.65],"[640.0, 512.0]",vertical,"(390.0, 262.0)",[0.9666666666666667],[0.602],1,11969.093
10,False,581,1.178,70,[],[],"[(1082, 869)]",[],[1],[32],[0.5333333333333333],"[640.0, 512.0]",horizontal,"(390.0, 762.0)",[1.1166666666666667],[0.501],1,11973.666
10,False,582,1.166,69,[],[],"[(1111, 876)]",[],[1],[38],[0.6333333333333333],"[640.0, 512.0]",horizontal,"(890.0, 762.0)",[0.5],[0.59],1,11978.597
10,False,583,1.109,66,[],[],"[(1080, 877)]",[],[1],[35],[0.5833333333333334],"[640.0, 512.0]",horizontal,"(890.0, 762.0)",[1.2333333333333334],[0.539],1,11982.992
10,False,584,1.141,68,[],[],"[(1078, 862)]",[],[1],[37],[0.6166666666666667],"[640.0, 512.0]",vertical,"(890.0, 762.0)",[1.4666666666666666],[0.573],1,11988.251
10,False,585,0.981,58,[],[],"[(1083, 879)]",[],[1],[38],[0.6333333333333333],"[640.0, 512.0]",horizontal,"(390.0, 762.0)",[1.15],[0.586],1,11993.621
10,False,586,1.156,69,[],[],"[(1077, 862)]",[],[1],[35],[0.5833333333333334],"[640.0, 512.0]",vertical,"(890.0, 762.0)",[1.1],[0.536],1,11998.391
10,False,587,0.722,43,[],[],"[(1081, 869)]",[],[1],[34],[0.5666666666666667],"[640.0, 512.0]",vertical,"(890.0, 762.0)",[1.2666666666666666],[0.524],1,12003.368
10,False,588,0.66,39,[],[],"[(1086, 872)]",[],[1],[34],[0.5666666666666667],"[640.0, 512.0]",horizontal,"(390.0, 262.0)",[0.5],[0.522],1,12007.99
10,False,589,1.087,65,[],[],"[(1082, 869)]",[],[1],[38],[0.6333333333333333],"[640.0, 512.0]",vertical,"(890.0, 762.0)",[1.5333333333333332],[0.592],1,12011.915
10,False,590,0.913,54,[],[],"[(1081, 883)]",[],[1],[33],[0.55],"[640.0, 512.0]",vertical,"(890.0, 762.0)",[0.5833333333333334],[0.504],1,12017.258
10,False,591,0.811,48,[],[],"[(1069, 877)]",[],[1],[43],[0.7166666666666667],"[640.0, 512.0]",vertical,"(890.0, 762.0)",[1.05],[0.669],1,12021.207
10,False,592,0.728,43,[],[],"[(1067, 859)]",[],[1],[38],[0.6333333333333333],"[640.0, 512.0]",horizontal,"(890.0, 762.0)",[1.6666666666666667],[0.595],1,12025.747
10,False,593,0.797,47,[],[],"[(1083, 886)]",[],[1],[36],[0.6],"[640.0, 512.0]",horizontal,"(890.0, 262.0)",[0.75],[0.559],1,12030.896
10,False,594,1.151,69,[],[],"[(1086, 872)]",[],[1],[33],[0.55],"[640.0, 512.0]",horizontal,"(890.0, 762.0)",[0.7],[0.519],1,12035.197
10,False,595,1.011,60,[],[],"[(1074, 868)]",[],[1],[34],[0.5666666666666667],"[640.0, 512.0]",vertical,"(390.0, 762.0)",[1.2166666666666666],[0.525],1,12039.631
10,False,596,1.134,68,[],[],"[(1048, 878)]",[],[1],[34],[0.5666666666666667],"[640.0, 512.0]",horizontal,"(890.0, 762.0)",[0.9166666666666666],[0.523],1,12044.574
10,False,597,0.825,49,[],[],"[(1083, 860)]",[],[1],[32],[0.5333333333333333],"[640.0, 512.0]",horizontal,"(890.0, 262.0)",[1.05],[0.492],1,12049.285
10,False,598,0.745,44,[],[],"[(1083, 865)]",[],[1],[32],[0.5333333333333333],"[640.0, 512.0]",vertical,"(890.0, 262.0)",[1.6666666666666667],[0.492],1,12053.683
10,False,599,0.706,42,[],[],"[(1067, 874)]",[],[1],[37],[0.6166666666666667],"[640.0, 512.0]",vertical,"(890.0, 262.0)",[1.0666666666666667],[0.572],1,12058.59
10,False,600,0.855,51,[],[],"[(1086, 884)]",[],[1],[32],[0.5333333333333333],"[640.0, 512.0]",vertical,"(890.0, 262.0)",[0.5666666666666667],[0.499],1,12063.418
11,False,601,0.606,36,[],[],"[(1085, 871)]",[],[1],[32],[0.5333333333333333],"[640.0, 512.0]",vertical,"(890.0, 762.0)",[0.9333333333333333],[0.493],1,12067.523
11,False,602,0.512,30,[],[],"[(1084, 881)]",[],[1],[33],[0.55],"[640.0, 512.0]",vertical,"(390.0, 762.0)",[0.5833333333333334],[0.509],1,12071.655
11,False,603,0.924,55,[],[],"[(1081, 880)]",[],[1],[31],[0.5166666666666666],"[640.0, 512.0]",vertical,"(890.0, 262.0)",[0.5166666666666666],[0.477],1,12075.384
11,False,604,0.838,50,[],[],"[(1074, 867)]",[],[1],[33],[0.55],"[640.0, 512.0]",horizontal,"(390.0, 762.0)",[1.0833333333333333],[0.513],1,12079.316
11,False,605,0.798,47,[],[],"[(1086, 888)]",[],[1],[33],[0.55],"[640.0, 512.0]",horizontal,"(890.0, 262.0)",[1.5333333333333332],[0.508],1,12084.024
11,False,606,0.916,54,[],[],"[(1072, 877)]",[],[1],[33],[0.55],"[640.0, 512.0]",horizontal,"(390.0, 262.0)",[0.9333333333333333],[0.515],1,12089.086
11,False,607,1.027,61,[],[],"[(1074, 869)]",[],[1],[32],[0.5333333333333333],"[640.0, 512.0]",vertical,"(890.0, 262.0)",[1.2666666666666666],[0.508],1,12093.496
11,False,608,0.784,47,[],[],"[(1086, 873)]",[],[1],[34],[0.5666666666666667],"[640.0, 512.0]",vertical,"(890.0, 262.0)",[0.55],[0.534],1,12098.675
11,False,609,0.512,30,[],[],"[(1086, 885)]",[],[1],[40],[0.6666666666666666],"[640.0, 512.0]",vertical,"(890.0, 762.0)",[0.6166666666666667],[0.621],1,12102.765
11,False,610,0.642,38,[],[],"[(1091, 905)]",[],[1],[31],[0.5166666666666666],"[640.0, 512.0]",horizontal,"(390.0, 262.0)",[1.3166666666666667],[0.484],1,12106.781
11,False,611,0.879,52,[],[],"[(1076, 872)]",[],[1],[37],[0.6166666666666667],"[640.0, 512.0]",horizontal,"(890.0, 262.0)",[0.7],[0.575],1,12111.331
11,False,612,0.853,51,[],[],"[(1072, 881)]",[],[1],[33],[0.55],"[640.0, 512.0]",horizontal,"(890.0, 762.0)",[0.8666666666666667],[0.509],1,12115.67
11,False,613,0.805,48,[],[],"[(1066, 862)]",[],[1],[39],[0.65],"[640.0, 512.0]",vertical,"(890.0, 262.0)",[0.65],[0.607],1,12120.138
11,False,614,1.144,68,[],[],"[(1084, 876)]",[],[1],[33],[0.55],"[640.0, 512.0]",vertical,"(890.0, 762.0)",[0.6833333333333333],[0.514],1,12124.429
11,False,615,0.649,38,[],[],"[(1086, 872)]",[],[1],[41],[0.6833333333333333],"[640.0, 512.0]",vertical,"(390.0, 262.0)",[0.5166666666666666],[0.641],1,12129.118
11,False,616,0.895,53,[],[],"[(1086, 880)]",[],[1],[31],[0.5166666666666666],"[640.0, 512.0]",horizontal,"(390.0, 262.0)",[1.3833333333333333],[0.486],1,12133.022
11,False,617,0.616,36,[],[],"[(1057, 867)]",[],[1],[34],[0.5666666666666667],"[640.0, 512.0]",vertical,"(390.0, 262.0)",[0.5],[0.532],1,12138.05
11,False,618,0.617,37,[],[],"[(1052, 881)]",[],[1],[33],[0.55],"[640.0, 512.0]",horizontal,"(390.0, 762.0)",[1.0166666666666666],[0.501],1,12142.001
11,False,619,0.952,57,[],[],"[(1067, 871)]",[],[1],[32],[0.5333333333333333],"[640.0, 512.0]",horizontal,"(890.0, 262.0)",[1.2666666666666666],[0.501],1,12146.446
11,False,620,0.928,55,[],[],"[(1081, 870)]",[],[1],[33],[0.55],"[640.0, 512.0]",vertical,"(390.0, 262.0)",[0.9833333333333333],[0.517],1,12151.651
11,False,621,0.607,36,[],[],"[(1067, 873)]",[],[1],[37],[0.6166666666666667],"[640.0, 512.0]",horizontal,"(390.0, 262.0)",[1.1666666666666667],[0.576],1,12156.195
11,False,622,1.18,70,[],[],"[(1081, 871)]",[],[1],[34],[0.5666666666666667],"[640.0, 512.0]",horizontal,"(390.0, 762.0)",[1.6],[0.53],1,12161.841
11,False,623,0.806,48,[],[],"[(1059, 876)]",[],[1],[34],[0.5666666666666667],"[640.0, 512.0]",vertical,"(390.0, 262.0)",[1.0],[0.521],1,12167.351
11,False,624,0.7,42,[],[],"[(1081, 866)]",[],[1],[40],[0.6666666666666666],"[640.0, 512.0]",horizontal,"(390.0, 762.0)",[1.4833333333333334],[0.627],1,12171.88
11,False,625,1.02,61,[],[],"[(1071, 859)]",[],[1],[35],[0.5833333333333334],"[640.0, 512.0]",horizontal,"(390.0, 262.0)",[0.5],[0.539],1,12176.864
11,False,626,0.549,32,[],[],"[(1068, 864)]",[],[1],[34],[0.5666666666666667],"[640.0, 512.0]",horizontal,"(890.0, 762.0)",[1.0],[0.524],1,12181.124
11,False,627,0.646,38,[],[],"[(1072, 858)]",[],[1],[33],[0.55],"[640.0, 512.0]",horizontal,"(890.0, 762.0)",[0.5166666666666666],[0.51],1,12185.469
11,False,628,0.745,44,[],[],"[(1086, 871)]",[],[1],[35],[0.5833333333333334],"[640.0, 512.0]",horizontal,"(390.0, 262.0)",[0.55],[0.543],1,12189.551
11,False,629,0.668,40,[],[],"[(1057, 867)]",[],[1],[45],[0.75],"[640.0, 512.0]",horizontal,"(390.0, 262.0)",[0.85],[0.703],1,12193.479
11,False,630,1.098,65,[],[],"[(1072, 870)]",[],[1],[30],[0.5],"[640.0, 512.0]",vertical,"(390.0, 262.0)",[1.4333333333333333],[0.46],1,12198.093
11,False,631,0.986,59,[],[],"[(1081, 873)]",[],[1],[44],[0.7333333333333333],"[640.0, 512.0]",horizontal,"(890.0, 262.0)",[0.7333333333333333],[0.687],1,12203.184
11,False,632,0.54,32,[],[],"[(1086, 872)]",[],[1],[34],[0.5666666666666667],"[640.0, 512.0]",vertical,"(390.0, 262.0)",[1.05],[0.526],1,12207.761
11,False,633,0.566,33,[],[],"[(1068, 874)]",[],[1],[42],[0.7],"[640.0, 512.0]",vertical,"(890.0, 762.0)",[1.3666666666666667],[0.661],1,12212.099
11,False,634,0.903,54,[],[],"[(1069, 864)]",[],[1],[31],[0.5166666666666666],"[640.0, 512.0]",vertical,"(390.0, 262.0)",[1.0],[0.472],1,12216.848
11,False,635,0.807,48,[],[],"[(1057, 876)]",[],[1],[32],[0.5333333333333333],"[640.0, 512.0]",horizontal,"(390.0, 262.0)",[1.1833333333333333],[0.489],1,12221.369
11,False,636,0.73,43,[],[],"[(1067, 864)]",[],[1],[39],[0.65],"[640.0, 512.0]",horizontal,"(390.0, 762.0)",[0.5166666666666666],[0.602],1,12225.96
11,False,637,0.943,56,[],[],"[(1081, 872)]",[],[1],[31],[0.5166666666666666],"[640.0, 512.0]",horizontal,"(390.0, 262.0)",[1.5666666666666667],[0.474],1,12229.866
11,False,638,1.002,60,[],[],"[(1072, 872)]",[],[1],[32],[0.5333333333333333],"[640.0, 512.0]",horizontal,"(890.0, 262.0)",[0.7666666666666666],[0.49],1,12235.111
11,False,639,1.085,65,[],[],"[(1072, 869)]",[],[1],[32],[0.5333333333333333],"[640.0, 512.0]",vertical,"(890.0, 262.0)",[1.0],[0.491],1,12239.352
11,False,640,1.162,69,[],[],"[(1086, 872)]",[],[1],[32],[0.5333333333333333],"[640.0, 512.0]",horizontal,"(890.0, 262.0)",[1.5333333333333332],[0.493],1,12243.978
11,False,641,0.881,52,[],[],"[(1096, 873)]",[],[1],[44],[0.7333333333333333],"[640.0, 512.0]",vertical,"(390.0, 262.0)",[1.65],[0.682],1,12249.331
11,False,642,0.845,50,[],[],"[(1071, 863)]",[],[1],[29],[0.48333333333333334],"[640.0, 512.0]",vertical,"(890.0, 262.0)",[0.7333333333333333],[0.446],1,12254.84
11,False,643,0.507,30,[],[],"[(1023, 885), (1042, 871)]",[],"[0, 1]",[51],[0.85],"[640.0, 512.0]",horizontal,"(390.0, 762.0)",[1.3666666666666667],[0.798],0,12258.92
11,False,644,0.99,59,[],[],"[(1062, 876)]",[],[1],[51],[0.85],"[640.0, 512.0]",horizontal,"(890.0, 762.0)",[0.6166666666666667],[0.802],0,12333.485
11,False,645,0.773,46,[],[],"[(1079, 847)]",[],[1],[36],[0.6],"[640.0, 512.0]",vertical,"(890.0, 762.0)",[1.3166666666666667],[0.555],1,12344.892
11,False,646,1.073,64,[],[],"[(1072, 886)]",[],[1],[34],[0.5666666666666667],"[640.0, 512.0]",vertical,"(390.0, 262.0)",[1.3333333333333333],[0.521],1,12350.999
11,False,647,0.863,51,[],[],"[(1076, 876)]",[],[1],[35],[0.5833333333333334],"[640.0, 512.0]",horizontal,"(890.0, 262.0)",[0.6],[0.545],1,12356.301
11,False,648,0.536,32,[],[],"[(1097, 886)]",[],[1],[51],[0.85],"[640.0, 512.0]",horizontal,"(890.0, 262.0)",[0.8],[0.798],0,12360.469
11,False,649,1.158,69,[],[],"[(1052, 867)]",[],[1],[38],[0.6333333333333333],"[640.0, 512.0]",vertical,"(890.0, 262.0)",[1.2333333333333334],[0.584],1,12364.898
11,False,650,0.513,30,[],[],"[(1088, 900)]",[],[1],[33],[0.55],"[640.0, 512.0]",horizontal,"(390.0, 262.0)",[0.8],[0.507],1,12370.703
11,False,651,0.53,31,[],[],"[(1086, 905)]",[],[1],[43],[0.7166666666666667],"[640.0, 512.0]",vertical,"(390.0, 762.0)",[1.3],[0.664],1,12374.635
11,False,652,0.807,48,[],[],"[(1072, 876)]",[],[1],[40],[0.6666666666666666],"[640.0, 512.0]",vertical,"(890.0, 262.0)",[0.7666666666666666],[0.626],1,12379.118
11,False,653,0.891,53,[],[],"[(1081, 903)]",[],[1],[35],[0.5833333333333334],"[640.0, 512.0]",vertical,"(890.0, 762.0)",[1.5666666666666667],[0.539],1,12383.256
11,False,654,1.168,70,[],[],"[(1081, 899)]",[],[1],[40],[0.6666666666666666],"[640.0, 512.0]",horizontal,"(890.0, 762.0)",[1.55],[0.622],1,12388.45
11,False,655,0.814,48,[],[],"[(1071, 882)]",[],[1],[33],[0.55],"[640.0, 512.0]",horizontal,"(890.0, 762.0)",[0.75],[0.514],1,12393.81
11,False,656,0.672,40,[],[],"[(1071, 900)]",[],[1],[34],[0.5666666666666667],"[640.0, 512.0]",horizontal,"(390.0, 762.0)",[0.5166666666666666],[0.524],1,12397.816
11,False,657,0.527,31,[],[],"[(1062, 888)]",[],[1],[36],[0.6],"[640.0, 512.0]",horizontal,"(390.0, 262.0)",[1.3166666666666667],[0.552],1,12401.619
11,False,658,0.572,34,[],[],"[(1037, 885)]",[],[1],[34],[0.5666666666666667],"[640.0, 512.0]",vertical,"(390.0, 762.0)",[0.6833333333333333],[0.522],1,12406.289
11,False,659,0.966,57,[],[],"[(1067, 871)]",[],[1],[31],[0.5166666666666666],"[640.0, 512.0]",horizontal,"(890.0, 262.0)",[0.5833333333333334],[0.479],1,12410.585
11,False,660,0.898,53,[],[],"[(1100, 876)]",[],[1],[32],[0.5333333333333333],"[640.0, 512.0]",vertical,"(890.0, 762.0)",[0.7666666666666666],[0.494],1,12414.842
12,False,661,0.566,33,[],[],"[(1076, 882)]",[],[1],[33],[0.55],"[640.0, 512.0]",horizontal,"(390.0, 262.0)",[1.65],[0.51],1,12419.178
12,False,662,0.801,48,[],[],"[(1073, 876)]",[],[1],[31],[0.5166666666666666],"[640.0, 512.0]",horizontal,"(890.0, 262.0)",[0.5666666666666667],[0.473],1,12424.171
12,False,663,0.696,41,[],[],"[(1074, 874)]",[],[1],[35],[0.5833333333333334],"[640.0, 512.0]",horizontal,"(390.0, 762.0)",[1.2333333333333334],[0.539],1,12428.048
12,False,664,0.718,43,[],[],"[(1065, 878)]",[],[1],[33],[0.55],"[640.0, 512.0]",horizontal,"(890.0, 262.0)",[0.8],[0.508],1,12432.622
12,False,665,0.705,42,[],[],"[(1043, 850)]",[],[1],[33],[0.55],"[640.0, 512.0]",vertical,"(890.0, 262.0)",[1.0166666666666666],[0.505],1,12436.687
12,False,666,0.577,34,[],[],"[(1067, 870)]",[],[1],[32],[0.5333333333333333],"[640.0, 512.0]",vertical,"(890.0, 262.0)",[0.6833333333333333],[0.496],1,12440.921
12,False,667,0.781,46,[],[],"[(1072, 866)]",[],[1],[33],[0.55],"[640.0, 512.0]",horizontal,"(890.0, 762.0)",[0.6833333333333333],[0.509],1,12444.773
12,False,668,1.071,64,[],[],"[(1062, 875)]",[],[1],[34],[0.5666666666666667],"[640.0, 512.0]",horizontal,"(890.0, 762.0)",[0.9333333333333333],[0.521],1,12448.704
12,False,669,1.134,68,[],[],"[(1077, 874)]",[],[1],[39],[0.65],"[640.0, 512.0]",vertical,"(890.0, 762.0)",[0.95],[0.613],1,12453.499
12,False,670,0.697,41,[],[],"[(1089, 870)]",[],[1],[33],[0.55],"[640.0, 512.0]",vertical,"(890.0, 262.0)",[1.6166666666666667],[0.509],1,12458.281
12,False,671,0.72,43,[],[],"[(1073, 876)]",[],[1],[32],[0.5333333333333333],"[640.0, 512.0]",vertical,"(390.0, 262.0)",[0.6833333333333333],[0.487],1,12463.347
12,False,672,1.155,69,[],[],"[(1076, 877)]",[],[1],[38],[0.6333333333333333],"[640.0, 512.0]",vertical,"(390.0, 762.0)",[0.8],[0.594],1,12467.534
12,False,673,1.004,60,[],[],"[(1067, 876)]",[],[1],[33],[0.55],"[640.0, 512.0]",horizontal,"(390.0, 762.0)",[1.0833333333333333],[0.506],1,12472.256
12,False,674,0.628,37,[],[],"[(1071, 875)]",[],[1],[33],[0.55],"[640.0, 512.0]",horizontal,"(390.0, 762.0)",[0.8166666666666667],[0.504],1,12476.906
12,False,675,0.553,33,[],[],"[(1067, 875)]",[],[1],[46],[0.7666666666666666],"[640.0, 512.0]",horizontal,"(390.0, 762.0)",[1.3333333333333333],[0.717],1,12481.063
12,False,676,1.046,62,[],[],"[(1043, 872)]",[],[1],[34],[0.5666666666666667],"[640.0, 512.0]",vertical,"(390.0, 262.0)",[1.55],[0.52],1,12485.877
12,False,677,0.529,31,[],[],"[(1070, 872)]",[],[1],[33],[0.55],"[640.0, 512.0]",vertical,"(890.0, 762.0)",[1.05],[0.512],1,12491.181
12,False,678,1.111,66,[],[],"[(1067, 872)]",[],[1],[43],[0.7166666666666667],"[640.0, 512.0]",horizontal,"(390.0, 762.0)",[1.5],[0.677],1,12495.496
