block,trial,trial_type,taps_start_loc_during_fix,taps_end_loc_during_fix,taps_on_lever_during_fix,taps_on_lever_s_during_fix,bar_orientation,target_xy,cti,rt,acc,time,pulses,fa_rate_recent100,actual_invalid_type
0,1,valid,"[(1112, 842)]",[],[1],[0.4],vertical,"(890.0, 762.0)",0.7,0.366,1,0.547,1,0.0,same
0,2,catch,"[(1126, 855)]",[],[1],[],horizontal,"(890.0, 762.0)",1.7,nan,1,8.624,1,0.0,same
0,3,valid,"[(1140, 781)]",[],[1],[0.5166666666666666],horizontal,"(890.0, 262.0)",0.95,0.493,1,49.07,1,0.0,same
0,4,valid,"[(1090, 808)]",[],[1],[0.65],horizontal,"(390.0, 762.0)",1.4333333333333333,0.626,1,54.421,2,0.0,same
0,5,catch,"[(1143, 821)]",[],[1],[],vertical,"(890.0, 262.0)",,"('cti', 1.698),nan",0,60.549,0,0.2,same
0,6,catch,"[(1130, 820)]",[],[1],[],vertical,"(390.0, 262.0)",1.7,nan,1,65.383,1,0.16666666666666666,same
0,7,valid,"[(1164, 802)]",[],[1],[0.5],vertical,"(890.0, 262.0)",1.2666666666666666,0.469,1,70.812,1,0.14285714285714285,same
0,8,valid,"[(1127, 817)]",[],[1],[0.4666666666666667],vertical,"(890.0, 262.0)",1.3166666666666667,0.438,1,76.432,1,0.125,same
0,9,valid,"[(1140, 791)]",[],[1],[],vertical,"(390.0, 262.0)",,"('fix', 0.561)",0,82.433,0,0.1111111111111111,same
0,10,catch,"[(1107, 852)]",[],[1],[],horizontal,"(390.0, 262.0)",,"('cti', 1.63),nan",0,84.715,0,0.2,same
0,11,valid,"[(1140, 811)]",[],[1],[],horizontal,"(390.0, 262.0)",,"('cti', 0.337)",0,104.892,0,0.18181818181818182,same
0,12,valid,"[(1174, 796)]",[],[1],[0.6666666666666666],vertical,"(390.0, 262.0)",0.9333333333333333,0.62,1,108.46,1,0.16666666666666666,same
0,13,valid,"[(1086, 789)]",[],[1],[],horizontal,"(390.0, 262.0)",,"('cti', 1.032)",0,113.441,0,0.15384615384615385,same
0,14,valid,"[(1131, 839)]",[],[1],[0.7666666666666666],horizontal,"(390.0, 262.0)",1.0,0.744,1,118.31,1,0.14285714285714285,same
0,15,catch,"[(1138, 830)]",[],[1],[],vertical,"(390.0, 262.0)",,"('cti', 1.59),nan",0,123.67,0,0.2,same
0,16,valid,"[(1102, 894)]","[(1091, 930)]",[1],[0.4666666666666667],horizontal,"(890.0, 262.0)",,"('bar', 0.487)",0,128.481,0,0.1875,same
0,17,catch,"[(1091, 797)]",[],[1],[],vertical,"(390.0, 262.0)",,"('cti', 1.552),nan",0,137.527,0,0.23529411764705882,same
0,18,invalid_adjacent_other_bar,"[(1133, 837)]",[],[1],[0.85],vertical,"(390.0, 762.0)",0.9833333333333333,nan,0,144.542,0,0.2222222222222222,other
0,19,catch,"[(1144, 839)]",[],[1],[],vertical,"(890.0, 762.0)",1.7,nan,1,150.052,1,0.21052631578947367,same
0,20,valid,"[(1145, 816)]",[],[1],[0.7],vertical,"(890.0, 262.0)",1.0666666666666667,0.657,1,171.97,1,0.2,same
0,21,valid,"[(1162, 769)]",[],[1],[0.85],horizontal,"(390.0, 262.0)",0.95,nan,0,177.131,0,0.19047619047619047,same
0,22,valid,"[(1165, 816)]",[],[1],[0.13333333333333333],horizontal,"(890.0, 262.0)",1.2666666666666666,0.102,0,181.877,0,0.18181818181818182,same
0,23,valid,"[(1164, 843)]","[(1159, 855)]",[1],[0.11666666666666667],horizontal,"(890.0, 762.0)",,"('bar', 0.133)",0,186.55,0,0.17391304347826086,same
0,24,valid,"[(1105, 831)]",[],[1],[0.5166666666666666],horizontal,"(890.0, 262.0)",0.48333333333333334,0.483,1,192.904,1,0.16666666666666666,same
0,25,valid,"[(1171, 807)]",[],[1],[0.2],horizontal,"(890.0, 762.0)",1.4333333333333333,0.172,0,200.819,0,0.16,same
0,26,valid,"[(1135, 803)]",[],[1],[0.5166666666666666],vertical,"(890.0, 762.0)",1.4,0.492,1,205.37,1,0.15384615384615385,same
0,27,valid,"[(1161, 789)]",[],[1],[0.4666666666666667],vertical,"(890.0, 762.0)",0.5666666666666667,0.439,1,211.022,1,0.14814814814814814,same
0,28,invalid_adjacent_other_bar,"[(1175, 798)]",[],[1],[0.85],horizontal,"(390.0, 262.0)",0.7833333333333333,nan,0,215.705,0,0.14285714285714285,other
0,29,valid,"[(1144, 798)]",[],[1],[0.5],horizontal,"(890.0, 262.0)",0.4,0.473,1,220.431,1,0.13793103448275862,same
0,30,catch,"[(1165, 806)]",[],[1],[0.03333333333333333],vertical,"(390.0, 262.0)",1.7,"0.016,nan",0,225.542,0,0.16666666666666666,same
0,31,valid,"[(1167, 783)]",[],[1],[0.85],vertical,"(890.0, 762.0)",1.2166666666666666,nan,0,230.237,0,0.16129032258064516,same
0,32,valid,"[(1144, 798)]",[],[1],[0.35],horizontal,"(890.0, 762.0)",1.15,0.319,1,235.227,1,0.15625,same
0,33,valid,"[(1089, 825)]",[],[1],[0.5166666666666666],horizontal,"(390.0, 762.0)",1.0166666666666666,0.492,1,240.057,1,0.15151515151515152,same
0,34,valid,"[(1169, 797)]",[],[1],[0.5],vertical,"(890.0, 262.0)",0.4,0.469,1,247.602,1,0.14705882352941177,same
0,35,catch,"[(1146, 806)]",[],[1],[],horizontal,"(390.0, 762.0)",,"('cti', 1.642),nan",0,252.181,0,0.17142857142857143,same
0,36,valid,"[(1165, 796)]",[],[1],[0.85],vertical,"(390.0, 262.0)",0.9833333333333333,nan,0,257.327,0,0.16666666666666666,same
0,37,valid,"[(1101, 783)]",[],[1],[0.85],vertical,"(390.0, 262.0)",0.7,nan,0,262.057,0,0.16216216216216217,same
0,38,valid,"[(1082, 817)]",[],[1],[0.6],horizontal,"(890.0, 762.0)",0.7333333333333333,0.563,1,268.397,1,0.15789473684210525,same
0,39,valid,"[(1166, 804)]",[],[1],[0.65],vertical,"(890.0, 762.0)",1.1666666666666667,0.623,1,281.815,1,0.15384615384615385,same
0,40,catch,"[(1152, 806)]",[],[1],[],horizontal,"(390.0, 262.0)",1.7,nan,1,286.992,1,0.15,same
0,41,valid,"[(1118, 836)]",[],[1],[0.85],vertical,"(890.0, 762.0)",0.35,nan,0,292.45,0,0.14634146341463414,same
0,42,valid,"[(1140, 796)]",[],[1],[0.85],horizontal,"(890.0, 262.0)",1.0,nan,0,297.243,0,0.14285714285714285,same
0,43,valid,"[(1125, 872)]",[],[1],[],horizontal,"(390.0, 262.0)",,"('cti', 0.26)",0,301.994,0,0.13953488372093023,same
0,44,catch,"[(1148, 804)]",[],[1],[],vertical,"(390.0, 262.0)",1.7,nan,1,331.364,1,0.13636363636363635,same
0,45,valid,"[(1155, 791)]",[],[1],[0.48333333333333334],horizontal,"(890.0, 762.0)",1.5,0.448,1,336.928,1,0.13333333333333333,same
0,46,catch,"[(1174, 792)]",[],[1],[],vertical,"(390.0, 262.0)",,"('cti', 0.887),nan",0,342.04,0,0.15217391304347827,same
0,47,catch,"[(1164, 773)]",[],[1],[],horizontal,"(390.0, 262.0)",1.7,nan,1,345.828,1,0.14893617021276595,same
0,48,valid,"[(1170, 788)]",[],[1],[0.85],horizontal,"(890.0, 262.0)",0.48333333333333334,nan,0,350.964,0,0.14583333333333334,same
0,49,valid,"[(1140, 788)]",[],[1],[0.85],horizontal,"(890.0, 762.0)",1.0833333333333333,nan,0,355.11,0,0.14285714285714285,same
0,50,invalid_same_bar,"[(1107, 807)]",[],[1],[],vertical,"(890.0, 262.0)",,"('cti', 0.031)",0,359.98,0,0.14,same
0,51,valid,"[(1130, 863)]",[],[1],[0.85],vertical,"(890.0, 262.0)",1.1666666666666667,nan,0,364.442,0,0.14,same
0,52,valid,"[(1131, 819)]",[],[1],[0.6833333333333333],horizontal,"(390.0, 762.0)",1.2,0.648,1,371.11,1,0.14,same
0,53,catch,"[(1166, 782)]",[],[1],[],vertical,"(390.0, 762.0)",1.7,nan,1,376.182,1,0.14,same
0,54,valid,"[(1135, 792)]",[],[1],[0.5666666666666667],horizontal,"(390.0, 762.0)",0.9166666666666666,0.521,1,381.164,1,0.14,same
0,55,valid,"[(1180, 795)]",[],[1],[0.5166666666666666],vertical,"(890.0, 762.0)",0.7833333333333333,0.475,1,386.202,2,0.12,same
0,56,valid,"[(1169, 783)]",[],[1],[0.85],horizontal,"(890.0, 762.0)",1.2,nan,0,391.195,0,0.12,same
0,57,valid,"[(1152, 791)]",[],[1],[0.85],horizontal,"(390.0, 262.0)",1.35,nan,0,396.01,0,0.12,same
0,58,invalid_same_bar,"[(1131, 810)]",[],[1],[0.55],horizontal,"(390.0, 762.0)",1.3833333333333333,0.505,1,400.894,1,0.12,same
0,59,valid,"[(1167, 790)]",[],[1],[0.48333333333333334],vertical,"(390.0, 762.0)",0.6666666666666666,0.447,1,406.06,1,0.12,same
0,60,invalid_same_bar,"[(1165, 799)]",[],[1],[],horizontal,"(890.0, 262.0)",,"('fix', 0.413)",0,410.337,0,0.1,same
0,61,catch,"[(1137, 802)]",[],[1],[],vertical,"(890.0, 762.0)",1.7,nan,1,412.253,1,0.1,same
0,62,valid,"[(1174, 778)]",[],[1],[0.45],vertical,"(890.0, 762.0)",0.8666666666666667,0.413,1,417.961,1,0.1,same
0,63,invalid_same_bar,"[(1162, 795)]",[],[1],[0.85],vertical,"(390.0, 762.0)",1.3166666666666667,nan,0,422.764,0,0.1,same
0,64,valid,"[(1157, 771)]",[],[1],[0.5166666666666666],horizontal,"(890.0, 262.0)",1.2333333333333334,0.482,1,427.861,1,0.1,same
0,65,valid,"[(1165, 789)]",[],[1],[0.5333333333333333],vertical,"(390.0, 262.0)",0.8166666666666667,0.491,1,432.695,1,0.08,same
0,66,catch,"[(1182, 776)]",[],[1],[],vertical,"(390.0, 262.0)",1.7,nan,1,437.468,1,0.08,same
0,67,catch,"[(1169, 789)]",[],[1],[],vertical,"(890.0, 262.0)",1.7,nan,1,442.678,2,0.06,same
0,68,invalid_adjacent_other_bar,"[(1164, 779)]",[],[1],[0.5666666666666667],horizontal,"(390.0, 762.0)",1.35,0.535,1,448.402,2,0.06,other
0,69,invalid_same_bar,"[(1165, 772)]",[],[1],[0.6833333333333333],vertical,"(890.0, 762.0)",0.8666666666666667,0.642,1,454.071,2,0.06,same
0,70,invalid_adjacent_other_bar,"[(1165, 779)]",[],[1],[0.65],horizontal,"(390.0, 262.0)",1.1333333333333333,0.612,1,459.444,2,0.06,other
0,71,valid,"[(1162, 782)]",[],[1],[0.85],horizontal,"(390.0, 262.0)",0.5833333333333334,nan,0,465.31,0,0.06,same
0,72,valid,"[(1122, 786)]",[],[1],[0.55],vertical,"(890.0, 262.0)",0.48333333333333334,0.517,1,469.993,1,0.06,same
0,73,valid,"[(1167, 794)]",[],[1],[0.6833333333333333],horizontal,"(390.0, 262.0)",0.4166666666666667,0.652,1,474.219,1,0.06,same
0,74,catch,"[(1166, 781)]",[],[1],[],vertical,"(890.0, 762.0)",,"('cti', 1.598),nan",0,478.462,0,0.08,same
0,75,valid,"[(1136, 806)]",[],[1],[0.85],vertical,"(890.0, 762.0)",0.8833333333333333,nan,0,483.405,0,0.08,same
0,76,catch,"[(1165, 773)]",[],[1],[],vertical,"(390.0, 762.0)",,"('cti', 0.996),nan",0,488.144,0,0.1,same
0,77,catch,"[(1146, 803)]",[],[1],[],horizontal,"(890.0, 762.0)",1.7,nan,1,492.311,1,0.1,same
0,78,catch,"[(1175, 795)]",[],[1],[],vertical,"(890.0, 762.0)",1.7,nan,1,497.365,1,0.1,same
0,79,valid,"[(1164, 802)]",[],[1],[0.65],vertical,"(390.0, 262.0)",1.1666666666666667,0.612,1,502.597,1,0.1,same
0,80,valid,"[(1177, 784)]",[],[1],[0.5666666666666667],horizontal,"(390.0, 762.0)",0.6666666666666666,0.527,1,508.03,2,0.08,same
0,81,valid,"[(1170, 772)]",[],[1],[0.5333333333333333],horizontal,"(390.0, 262.0)",1.45,0.492,1,513.293,2,0.08,same
0,82,valid,"[(1156, 817)]",[],[1],[0.55],vertical,"(890.0, 762.0)",1.4333333333333333,0.517,1,519.111,2,0.08,same
0,83,catch,"[(1156, 791)]",[],[1],[],horizontal,"(890.0, 262.0)",1.7,"('cti', 1.7),nan",0,526.02,0,0.1,same
0,84,catch,"[(1121, 833)]",[],[1],[],vertical,"(890.0, 762.0)",1.7,nan,1,530.89,1,0.1,same
0,85,invalid_same_bar,"[(1161, 832)]",[],[1],[0.4666666666666667],vertical,"(390.0, 762.0)",0.45,0.436,1,547.56,1,0.08,same
0,86,catch,"[(1120, 812)]",[],[1],[],vertical,"(890.0, 262.0)",1.7,nan,1,551.735,1,0.08,same
0,87,catch,"[(1160, 789)]",[],[1],[],vertical,"(890.0, 762.0)",1.7,nan,1,557.354,2,0.08,same
0,88,valid,"[(1156, 807)]",[],[1],[0.5333333333333333],horizontal,"(390.0, 762.0)",0.9833333333333333,0.488,1,563.25,2,0.08,same
0,89,catch,"[(1115, 799)]",[],[1],[],vertical,"(890.0, 262.0)",1.7,nan,1,568.669,2,0.08,same
0,90,valid,"[(1156, 811)]",[],[1],[0.5333333333333333],vertical,"(390.0, 762.0)",1.2833333333333332,0.499,1,574.66,2,0.08,same
0,91,valid,"[(1163, 805)]",[],[1],[0.65],horizontal,"(390.0, 262.0)",0.4166666666666667,0.611,1,580.537,3,0.08,same
0,92,valid,"[(1170, 798)]",[],[1],[0.85],vertical,"(390.0, 762.0)",1.1166666666666667,nan,0,585.5,0,0.08,same
0,93,invalid_same_bar,"[(1139, 791)]",[],[1],[0.85],horizontal,"(390.0, 762.0)",0.3833333333333333,nan,0,590.255,0,0.08,same
0,94,valid,"[(1140, 796)]",[],[1],[0.5],horizontal,"(390.0, 762.0)",0.6166666666666667,0.465,1,594.46,1,0.08,same
0,95,catch,"[(1149, 789)]",[],[1],[],horizontal,"(390.0, 762.0)",1.7,nan,1,599.331,1,0.08,same
0,96,valid,"[(1163, 786)]",[],[1],[0.85],horizontal,"(390.0, 262.0)",0.9,nan,0,604.56,0,0.06,same
0,97,valid,"[(1155, 785)]",[],[1],[0.6666666666666666],vertical,"(890.0, 262.0)",1.4333333333333333,0.624,1,609.342,1,0.06,same
0,98,catch,"[(1170, 778)]",[],[1],[],horizontal,"(890.0, 762.0)",1.7,nan,1,614.894,1,0.06,same
0,99,valid,"[(1166, 800)]",[],[1],[0.48333333333333334],horizontal,"(390.0, 762.0)",0.5333333333333333,0.446,1,620.113,1,0.06,same
0,100,valid,"[(1183, 760)]",[],[1],[0.85],horizontal,"(390.0, 262.0)",0.85,nan,0,624.895,0,0.06,same
0,101,catch,"[(1140, 791)]",[],[1],[],horizontal,"(890.0, 262.0)",1.7,nan,1,629.895,1,0.06,same
0,102,valid,"[(1165, 785)]",[],[1],[0.5333333333333333],horizontal,"(390.0, 262.0)",0.8166666666666667,0.499,1,635.561,1,0.06,same
0,103,catch,"[(1172, 779)]",[],[1],[],horizontal,"(890.0, 762.0)",1.7,nan,1,639.978,1,0.06,same
0,104,valid,"[(1159, 755)]",[],[1],[0.85],horizontal,"(890.0, 262.0)",0.6166666666666667,nan,0,644.812,0,0.06,same
0,105,valid,"[(1145, 796)]",[],[1],[0.5],horizontal,"(890.0, 262.0)",0.7166666666666667,0.458,1,649.228,1,0.06,same
0,106,valid,"[(1161, 781)]",[],[1],[0.5833333333333334],vertical,"(390.0, 262.0)",0.9666666666666667,0.538,1,654.01,1,0.06,same
0,107,valid,"[(1137, 787)]",[],[1],[0.5333333333333333],horizontal,"(390.0, 762.0)",0.9333333333333333,0.49,1,658.679,1,0.06,same
0,108,catch,"[(1170, 801)]",[],[1],[],horizontal,"(890.0, 762.0)",1.7,nan,1,663.295,2,0.06,same
0,109,valid,"[(1112, 808)]",[],[1],[0.5],horizontal,"(890.0, 262.0)",0.65,0.454,1,669.172,2,0.06,same
0,110,invalid_adjacent_other_bar,"[(1162, 787)]",[],[1],[0.5333333333333333],horizontal,"(890.0, 762.0)",0.45,0.495,1,681.052,2,0.06,other
0,111,valid,"[(1169, 803)]",[],[1],[0.55],horizontal,"(390.0, 262.0)",0.45,0.505,1,686.257,2,0.06,same
0,112,valid,"[(1165, 802)]",[],[1],[0.6333333333333333],vertical,"(390.0, 762.0)",1.3666666666666667,0.585,1,691.111,3,0.06,same
0,113,invalid_same_bar,"[(1165, 789)]",[],[1],[0.55],vertical,"(890.0, 762.0)",1.4333333333333333,0.509,1,697.334,3,0.06,same
0,114,invalid_same_bar,"[(1179, 792)]",[],[1],[0.85],vertical,"(390.0, 762.0)",0.43333333333333335,nan,0,703.193,0,0.06,same
0,115,valid,"[(1157, 775)]",[],[1],[0.5],horizontal,"(390.0, 262.0)",1.35,0.456,1,707.456,1,0.06,same
0,116,invalid_same_bar,"[(1165, 781)]",[],[1],[0.5],horizontal,"(890.0, 262.0)",0.75,0.456,1,713.144,1,0.06,same
0,117,valid,"[(1167, 782)]",[],[1],[0.8333333333333334],horizontal,"(890.0, 762.0)",0.6166666666666667,0.787,1,717.809,1,0.06,same
0,118,catch,"[(1170, 806)]",[],[1],[],horizontal,"(890.0, 262.0)",1.7,nan,1,722.644,2,0.06,same
0,119,invalid_same_bar,"[(1168, 796)]",[],[1],[0.6333333333333333],vertical,"(890.0, 262.0)",0.8833333333333333,0.589,1,728.046,2,0.06,same
0,120,catch,"[(1174, 795)]",[],[1],[],vertical,"(890.0, 262.0)",,"('cti', 0.063),nan",0,733.711,0,0.08,same
0,121,valid,"[(1129, 785)]",[],[1],[0.6833333333333333],vertical,"(390.0, 262.0)",1.5,0.648,1,736.61,1,0.08,same
0,122,valid,"[(1167, 776)]",[],[1],[0.6],horizontal,"(390.0, 762.0)",0.9,0.555,1,742.561,1,0.08,same
0,123,valid,"[(1175, 781)]",[],[1],[0.48333333333333334],horizontal,"(890.0, 262.0)",0.7833333333333333,0.443,1,747.432,1,0.08,same
0,124,valid,"[(1173, 795)]",[],[1],[0.7166666666666667],horizontal,"(390.0, 262.0)",0.36666666666666664,0.667,1,752.312,2,0.06,same
0,125,catch,"[(1167, 783)]",[],[1],[],vertical,"(390.0, 762.0)",1.7,nan,1,757.379,2,0.06,same
0,126,catch,"[(1175, 778)]",[],[1],[],vertical,"(390.0, 762.0)",1.7,nan,1,763.017,2,0.04,same
0,127,catch,"[(1174, 802)]",[],[1],[],horizontal,"(890.0, 762.0)",1.7,nan,1,768.477,2,0.04,same
0,128,invalid_adjacent_other_bar,"[(1165, 816)]",[],[1],[0.48333333333333334],horizontal,"(890.0, 262.0)",1.0666666666666667,0.444,1,774.145,3,0.04,other
0,129,valid,"[(1175, 791)]",[],[1],[0.5],vertical,"(390.0, 262.0)",0.8666666666666667,0.464,1,780.688,3,0.04,same
0,130,valid,"[(1175, 785)]",[],[1],[0.6166666666666667],vertical,"(390.0, 262.0)",1.35,0.575,1,786.477,3,0.04,same
0,131,valid,"[(1176, 767)]",[],[1],[0.7166666666666667],vertical,"(390.0, 762.0)",0.9166666666666666,0.668,1,792.492,3,0.04,same
0,132,valid,"[(1175, 780)]",[],[1],[0.65],vertical,"(390.0, 262.0)",1.2333333333333334,0.607,1,798.637,3,0.04,same
0,133,invalid_adjacent_other_bar,"[(1165, 771)]",[],[1],[0.6833333333333333],horizontal,"(390.0, 262.0)",0.7666666666666666,0.638,1,804.937,3,0.02,other
0,134,valid,"[(1166, 770)]",[],[1],[0.5833333333333334],vertical,"(390.0, 262.0)",0.4,0.543,1,810.604,3,0.02,same
0,135,catch,"[(1175, 788)]",[],[1],[],horizontal,"(890.0, 762.0)",1.7,nan,1,816.217,3,0.02,same
0,136,catch,"[(1175, 784)]",[],[1],[],horizontal,"(390.0, 262.0)",1.7,nan,1,821.962,3,0.02,same
0,137,catch,"[(1175, 784)]",[],[1],[],vertical,"(390.0, 262.0)",1.7,nan,1,828.235,3,0.02,same
0,138,valid,"[(1171, 825)]",[],[1],[0.6166666666666667],vertical,"(390.0, 762.0)",0.65,0.569,1,834.313,3,0.02,same
0,139,valid,"[(1173, 789)]",[],[1],[0.6],vertical,"(890.0, 262.0)",1.0333333333333332,0.559,1,840.194,3,0.02,same
0,140,valid,"[(1175, 801)]",[],[1],[0.65],vertical,"(390.0, 762.0)",1.25,0.606,1,845.643,3,0.02,same
0,141,catch,"[(1175, 791)]",[],[1],[],vertical,"(890.0, 262.0)",1.7,nan,1,851.511,3,0.02,same
0,142,valid,"[(1175, 798)]",[],[1],[0.65],horizontal,"(890.0, 762.0)",0.8166666666666667,0.606,1,857.527,3,0.02,same
0,143,invalid_adjacent_other_bar,"[(1175, 781)]",[],[1],[0.6333333333333333],vertical,"(390.0, 262.0)",1.35,0.595,1,863.003,3,0.02,other
0,144,valid,"[(1175, 785)]",[],[1],[0.6166666666666667],horizontal,"(890.0, 762.0)",1.2166666666666666,0.57,1,868.977,3,0.02,same
0,145,invalid_same_bar,"[(1141, 806)]",[],[1],[0.5],vertical,"(390.0, 262.0)",0.7,0.454,1,874.914,3,0.02,same
0,146,valid,"[(1175, 790)]",[],[1],[0.48333333333333334],horizontal,"(390.0, 762.0)",0.9,0.45,1,880.31,3,0.02,same
0,147,valid,"[(1175, 791)]",[],[1],[0.5666666666666667],horizontal,"(390.0, 262.0)",1.0833333333333333,0.523,1,886.115,3,0.02,same
0,148,valid,"[(1173, 789)]",[],[1],[0.6833333333333333],vertical,"(890.0, 262.0)",0.6666666666666666,0.639,1,892.474,3,0.02,same
0,149,valid,"[(1165, 792)]",[],[1],[0.5333333333333333],vertical,"(890.0, 762.0)",0.8833333333333333,0.5,1,898.162,3,0.02,same
0,150,valid,"[(1170, 794)]",[],[1],[0.55],vertical,"(890.0, 262.0)",1.3333333333333333,0.51,1,903.689,3,0.02,same
0,151,catch,"[(1173, 800)]",[],[1],[],vertical,"(890.0, 762.0)",1.7,nan,1,909.863,3,0.02,same
0,152,catch,"[(1181, 795)]",[],[1],[],horizontal,"(390.0, 762.0)",1.7,nan,1,915.791,3,0.02,same
0,153,valid,"[(1129, 830)]",[],[1],[0.6166666666666667],horizontal,"(890.0, 762.0)",0.7833333333333333,0.575,1,921.761,3,0.02,same
0,154,valid,"[(1175, 791)]",[],[1],"[0.85, 0.85]",horizontal,"(890.0, 262.0)",0.45,"0.806,nan",0,927.727,0,0.02,same
0,155,invalid_same_bar,"[(1127, 796)]",[],[1],[0.6],horizontal,"(390.0, 262.0)",1.45,0.556,1,931.927,1,0.02,same
0,156,valid,"[(1170, 783)]",[],[1],[0.5666666666666667],vertical,"(890.0, 262.0)",1.2833333333333332,0.536,1,937.318,1,0.02,same
0,157,catch,"[(1175, 801)]",[],[1],[],horizontal,"(890.0, 262.0)",,"('cti', 1.62),nan",0,942.772,0,0.04,same
0,158,valid,"[(1145, 793)]",[],[1],[0.4666666666666667],horizontal,"(390.0, 762.0)",1.4,0.433,1,947.445,1,0.04,same
0,159,valid,"[(1175, 786)]",[],[1],[0.6166666666666667],vertical,"(390.0, 262.0)",0.36666666666666664,0.572,1,952.998,1,0.04,same
0,160,catch,"[(1165, 776)]",[],[1],[],horizontal,"(890.0, 762.0)",1.7,nan,1,957.561,1,0.04,same
0,161,valid,"[(1169, 784)]",[],[1],[0.5333333333333333],horizontal,"(890.0, 762.0)",1.5333333333333332,0.491,1,962.744,2,0.04,same
0,162,valid,"[(1175, 788)]",[],[1],[0.5],vertical,"(890.0, 262.0)",1.2,0.462,1,968.413,2,0.04,same
0,163,valid,"[(1152, 795)]",[],[1],[0.5833333333333334],horizontal,"(890.0, 262.0)",0.35,0.538,1,974.144,2,0.04,same
0,164,valid,"[(1175, 796)]",[],[1],[0.6166666666666667],horizontal,"(890.0, 762.0)",1.4833333333333334,0.569,1,978.672,2,0.04,same
0,165,valid,"[(1163, 796)]",[],[1],[0.5833333333333334],horizontal,"(390.0, 262.0)",0.5666666666666667,0.549,1,984.514,3,0.04,same
0,166,valid,"[(1162, 803)]",[],[1],[0.5333333333333333],horizontal,"(390.0, 262.0)",0.9833333333333333,0.492,1,990.333,3,0.04,same
0,167,invalid_same_bar,"[(1167, 797)]",[],[1],[0.48333333333333334],vertical,"(890.0, 262.0)",0.6333333333333333,0.443,1,996.305,3,0.04,same
0,168,valid,"[(1168, 787)]",[],[1],[0.11666666666666667],horizontal,"(390.0, 262.0)",1.45,0.085,0,1001.814,0,0.04,same
0,169,invalid_same_bar,"[(1160, 776)]",[],[1],[0.5333333333333333],horizontal,"(890.0, 762.0)",0.9666666666666667,0.501,1,1006.778,1,0.04,same
0,170,invalid_same_bar,"[(1170, 793)]",[],[1],[0.85],vertical,"(390.0, 762.0)",0.4166666666666667,nan,0,1011.708,0,0.02,same
0,171,valid,"[(1125, 801)]",[],[1],[0.6666666666666666],horizontal,"(890.0, 262.0)",0.8,0.634,1,1016.077,1,0.02,same
0,172,valid,"[(1173, 771)]",[],[1],[0.5333333333333333],vertical,"(890.0, 762.0)",1.0666666666666667,0.492,1,1020.995,1,0.02,same
0,173,valid,"[(1180, 783)]",[],[1],[0.5],vertical,"(890.0, 262.0)",1.25,0.458,1,1026.311,1,0.02,same
0,174,valid,"[(1175, 780)]",[],[1],[0.48333333333333334],vertical,"(890.0, 762.0)",0.85,0.445,1,1031.515,2,0.02,same
0,175,valid,"[(1175, 796)]",[],[1],[0.55],vertical,"(390.0, 762.0)",0.45,0.514,1,1037.011,2,0.02,same
0,176,invalid_same_bar,"[(1214, 790)]","[(1179, 809)]",[1],[0.15],vertical,"(890.0, 262.0)",,"('bar', 0.166)",0,1041.798,0,0.02,same
0,177,valid,"[(1135, 794)]",[],[1],[0.55],vertical,"(390.0, 762.0)",1.4333333333333333,0.507,1,1044.177,1,0.02,same
0,178,catch,"[(1168, 757)]",[],[1],[],vertical,"(390.0, 762.0)",1.7,nan,1,1049.544,1,0.02,same
0,179,valid,"[(1171, 778)]",[],[1],[0.7166666666666667],horizontal,"(890.0, 262.0)",1.05,0.675,1,1054.795,1,0.02,same
0,180,valid,"[(1183, 792)]",[],[1],[0.6],horizontal,"(890.0, 262.0)",0.3833333333333333,0.555,1,1059.878,2,0.02,same
0,181,valid,"[(1185, 786)]",[],[1],[0.85],vertical,"(890.0, 262.0)",0.4666666666666667,nan,0,1064.829,0,0.02,same
0,182,invalid_same_bar,"[(1153, 786)]",[],[1],[0.5333333333333333],horizontal,"(390.0, 762.0)",0.36666666666666664,0.502,1,1069.209,1,0.02,same
0,183,valid,"[(1183, 790)]",[],[1],[0.48333333333333334],horizontal,"(390.0, 762.0)",0.8666666666666667,0.444,1,1073.393,1,0.02,same
0,184,valid,"[(1183, 764)]",[],[1],[0.5166666666666666],horizontal,"(890.0, 762.0)",0.7833333333333333,0.48,1,1078.455,1,0.02,same
0,185,invalid_same_bar,"[(1189, 769)]",[],[1],[0.6333333333333333],horizontal,"(890.0, 762.0)",0.6333333333333333,0.594,1,1083.122,2,0.02,same
0,186,valid,"[(1175, 791)]",[],[1],[0.5],horizontal,"(390.0, 262.0)",1.2333333333333334,0.459,1,1088.163,2,0.02,same
0,187,invalid_same_bar,"[(1183, 780)]",[],[1],[0.5333333333333333],horizontal,"(390.0, 262.0)",0.6833333333333333,0.496,1,1094.097,2,0.02,same
0,188,catch,"[(1170, 796)]",[],[1],[],horizontal,"(890.0, 762.0)",1.7,nan,1,1099.12,2,0.02,same
0,189,valid,"[(1173, 799)]",[],[1],[0.85],vertical,"(390.0, 762.0)",0.45,nan,0,1104.738,0,0.02,same
0,190,valid,"[(1152, 780)]",[],[1],[0.5833333333333334],horizontal,"(390.0, 262.0)",0.5166666666666666,0.54,1,1109.252,1,0.02,same
0,191,valid,"[(1190, 793)]",[],[1],[0.85],horizontal,"(390.0, 262.0)",1.0166666666666666,nan,0,1113.426,0,0.02,same
0,192,catch,"[(1165, 798)]",[],[1],[],horizontal,"(890.0, 262.0)",1.7,nan,1,1117.911,1,0.02,same
0,193,catch,"[(1183, 793)]",[],[1],[],horizontal,"(390.0, 262.0)",,"('cti', 0.95),nan",0,1123.944,0,0.04,same
0,194,catch,"[(1051, 829)]",[],[1],[],horizontal,"(390.0, 262.0)",1.7,nan,1,1127.796,1,0.04,same
0,195,catch,"[(1095, 806)]",[],[1],[],horizontal,"(890.0, 762.0)",1.7,nan,1,1170.562,1,0.04,same
0,196,valid,"[(1116, 826)]",[],[1],[0.5666666666666667],vertical,"(390.0, 762.0)",0.6333333333333333,0.519,1,1176.14,1,0.04,same
0,197,valid,"[(1159, 816)]",[],[1],[0.7166666666666667],vertical,"(890.0, 262.0)",1.2,0.668,1,1183.193,2,0.04,same
0,198,valid,"[(1159, 804)]",[],[1],[0.5666666666666667],vertical,"(890.0, 262.0)",0.8666666666666667,0.527,1,1189.412,2,0.04,same
0,199,valid,"[(1165, 796)]",[],[1],[0.5333333333333333],horizontal,"(890.0, 262.0)",0.5666666666666667,0.49,1,1194.862,2,0.04,same
0,200,valid,"[(1130, 792)]",[],[1],[0.5166666666666666],horizontal,"(390.0, 762.0)",1.1,0.473,1,1199.844,2,0.04,same
0,201,invalid_same_bar,"[(1136, 791)]",[],[1],[0.85],horizontal,"(890.0, 262.0)",0.85,nan,0,1205.578,0,0.04,same
0,202,catch,"[(1102, 804)]",[],[1],[],horizontal,"(890.0, 262.0)",1.7,nan,1,1209.919,1,0.04,same
0,203,valid,"[(1178, 802)]",[],[1],[0.5333333333333333],horizontal,"(390.0, 762.0)",1.2333333333333334,0.491,1,1231.834,1,0.04,same
0,204,catch,"[(1187, 789)]",[],[1],[],vertical,"(390.0, 762.0)",,"('cti', 1.668),nan",0,1236.795,0,0.06,same
0,205,valid,"[(1167, 776)]",[],[1],[0.6833333333333333],vertical,"(890.0, 262.0)",0.7333333333333333,0.642,1,1241.744,1,0.06,same
0,206,catch,"[(1158, 791)]",[],[1],[],horizontal,"(390.0, 762.0)",1.7,nan,1,1246.511,1,0.06,same
0,207,valid,"[(1162, 766)]",[],[1],[0.6333333333333333],horizontal,"(390.0, 762.0)",1.4,0.596,1,1251.311,1,0.04,same
0,208,valid,"[(1170, 783)]",[],[1],[0.48333333333333334],vertical,"(890.0, 762.0)",1.3,0.447,1,1256.5,2,0.04,same
0,209,catch,"[(1150, 795)]",[],[1],[],vertical,"(890.0, 762.0)",1.7,nan,1,1262.513,2,0.04,same
0,210,valid,"[(1175, 803)]",[],[1],[0.5166666666666666],vertical,"(890.0, 762.0)",0.7166666666666667,0.48,1,1268.029,2,0.04,same
0,211,valid,"[(1170, 786)]",[],[1],[0.7],vertical,"(890.0, 762.0)",0.7166666666666667,0.667,1,1273.251,2,0.04,same
0,212,catch,"[(1178, 792)]",[],[1],[],vertical,"(890.0, 262.0)",1.7,nan,1,1278.395,3,0.04,same
0,213,valid,"[(1175, 795)]",[],[1],[0.5666666666666667],vertical,"(890.0, 262.0)",1.1333333333333333,0.521,1,1285.079,3,0.04,same
0,214,valid,"[(1170, 796)]",[],[1],[0.5666666666666667],vertical,"(890.0, 262.0)",0.45,0.522,1,1291.267,3,0.04,same
0,215,catch,"[(1137, 786)]",[],[1],[],horizontal,"(390.0, 762.0)",1.7,nan,1,1296.589,3,0.04,same
0,216,valid,"[(1165, 786)]",[],[1],[0.5666666666666667],horizontal,"(390.0, 762.0)",1.0,0.53,1,1302.733,3,0.04,same
0,217,catch,"[(1162, 805)]",[],[1],[],vertical,"(390.0, 762.0)",1.7,nan,1,1308.395,3,0.04,same
0,218,invalid_adjacent_other_bar,"[(1170, 775)]",[],[1],[0.6666666666666666],horizontal,"(390.0, 262.0)",0.9333333333333333,0.626,1,1314.355,3,0.04,other
0,219,valid,"[(1184, 763)]",[],[1],[0.5166666666666666],horizontal,"(390.0, 762.0)",0.35,0.483,1,1319.889,3,0.04,same
0,220,valid,"[(1131, 835)]",[],[1],[0.4666666666666667],vertical,"(390.0, 262.0)",1.3666666666666667,0.426,1,1324.734,3,0.04,same
0,221,valid,"[(1164, 794)]",[],[1],[0.65],vertical,"(390.0, 762.0)",0.4,0.606,1,1338.841,3,0.04,same
0,222,valid,"[(1161, 794)]",[],[1],[0.85],horizontal,"(890.0, 762.0)",0.8833333333333333,nan,0,1344.662,0,0.04,same
0,223,invalid_adjacent_other_bar,"[(1157, 786)]",[],[1],[0.5333333333333333],horizontal,"(890.0, 262.0)",1.45,0.489,1,1349.177,1,0.04,other
0,224,valid,"[(1183, 774)]",[],[1],[0.5166666666666666],vertical,"(890.0, 762.0)",0.45,0.482,1,1354.527,1,0.04,same
0,225,valid,"[(1175, 777)]",[],[1],[0.6333333333333333],horizontal,"(390.0, 762.0)",0.85,0.588,1,1359.164,1,0.04,same
0,226,valid,"[(1180, 786)]","[(1178, 799)]",[1],[0.13333333333333333],horizontal,"(890.0, 762.0)",,"('bar', 0.151)",0,1363.73,0,0.04,same
0,227,valid,"[(1136, 799)]",[],[1],[0.6],horizontal,"(390.0, 262.0)",1.1333333333333333,0.563,1,1366.37,1,0.04,same
0,228,catch,"[(1165, 801)]",[],[1],[],horizontal,"(390.0, 262.0)",1.7,nan,1,1371.548,1,0.04,same
0,229,valid,"[(1185, 791)]",[],[1],[0.6833333333333333],vertical,"(890.0, 262.0)",0.6666666666666666,0.645,1,1376.33,1,0.04,same
0,230,valid,"[(1175, 796)]",[],[1],[0.5833333333333334],horizontal,"(390.0, 762.0)",1.4833333333333334,0.542,1,1380.884,2,0.04,same
0,231,catch,"[(1161, 783)]",[],[1],[],vertical,"(890.0, 262.0)",1.7,nan,1,1386.527,2,0.04,same
0,232,valid,"[(1163, 794)]",[],[1],[0.55],horizontal,"(890.0, 262.0)",1.0833333333333333,0.508,1,1391.993,2,0.04,same
0,233,valid,"[(1177, 770)]",[],[1],[0.5166666666666666],horizontal,"(890.0, 762.0)",0.5166666666666666,0.481,1,1397.477,2,0.04,same
0,234,valid,"[(1178, 803)]",[],[1],[0.6333333333333333],vertical,"(390.0, 262.0)",0.7833333333333333,0.593,1,1402.81,3,0.04,same
0,235,valid,"[(1174, 782)]",[],[1],[0.85],vertical,"(390.0, 762.0)",1.35,nan,0,1408.645,0,0.04,same
0,236,catch,"[(1125, 768)]",[],[1],[],horizontal,"(390.0, 262.0)",1.7,nan,1,1414.129,1,0.04,same
0,237,valid,"[(1162, 776)]",[],[1],[0.85],vertical,"(390.0, 262.0)",1.1333333333333333,nan,0,1419.545,0,0.04,same
0,238,valid,"[(1160, 781)]",[],[1],[0.5666666666666667],horizontal,"(890.0, 762.0)",1.3666666666666667,0.531,1,1424.596,1,0.04,same
0,239,catch,"[(1180, 774)]",[],[1],[],horizontal,"(390.0, 262.0)",1.7,nan,1,1430.029,1,0.04,same
0,240,catch,"[(1160, 776)]",[],[1],[],vertical,"(890.0, 262.0)",1.7,nan,1,1435.349,1,0.04,same
0,241,invalid_adjacent_other_bar,"[(1165, 777)]",[],[1],[0.6166666666666667],horizontal,"(390.0, 262.0)",0.9666666666666667,0.579,1,1440.862,2,0.04,other
0,242,valid,"[(1170, 758)]",[],[1],[0.36666666666666664],horizontal,"(890.0, 262.0)",1.2833333333333332,0.328,1,1446.332,2,0.04,same
0,243,valid,"[(1187, 787)]",[],[1],[0.5333333333333333],vertical,"(890.0, 262.0)",1.3333333333333333,0.492,1,1451.803,2,0.02,same
0,244,valid,"[(1185, 798)]",[],[1],[0.4666666666666667],vertical,"(890.0, 262.0)",1.4333333333333333,0.426,1,1457.743,2,0.02,same
0,245,valid,"[(1170, 792)]",[],[1],[0.5],horizontal,"(890.0, 262.0)",1.4833333333333334,0.457,1,1463.577,3,0.02,same
0,246,catch,"[(1165, 786)]",[],[1],[],vertical,"(890.0, 262.0)",1.7,nan,1,1470.245,3,0.02,same
0,247,valid,"[(1176, 784)]",[],[1],[0.6166666666666667],vertical,"(890.0, 762.0)",0.7,0.577,1,1476.107,3,0.02,same
0,248,invalid_adjacent_other_bar,"[(1160, 781)]",[],[1],[0.85],horizontal,"(890.0, 762.0)",0.9666666666666667,nan,0,1481.685,0,0.02,other
0,249,valid,"[(1135, 792)]",[],[1],[0.5833333333333334],horizontal,"(390.0, 262.0)",0.5,0.543,1,1486.762,1,0.02,same
0,250,valid,"[(1161, 791)]",[],[1],[0.5166666666666666],vertical,"(390.0, 262.0)",0.45,0.478,1,1491.445,1,0.02,same
0,251,valid,"[(1175, 793)]",[],[1],[0.6],vertical,"(890.0, 762.0)",0.43333333333333335,0.556,1,1495.612,1,0.02,same
0,252,valid,"[(1180, 782)]",[],[1],[0.6166666666666667],horizontal,"(390.0, 262.0)",0.9833333333333333,0.58,1,1500.107,2,0.02,same
0,253,catch,"[(1177, 798)]",[],[1],[],horizontal,"(390.0, 762.0)",1.7,nan,1,1505.762,2,0.02,same
0,254,valid,"[(1168, 800)]",[],[1],[0.85],horizontal,"(890.0, 262.0)",0.85,nan,0,1511.319,0,0.0,same
0,255,valid,"[(1141, 773)]",[],[1],[0.5166666666666666],vertical,"(890.0, 262.0)",1.2666666666666666,0.476,1,1516.295,1,0.0,same
0,256,invalid_adjacent_other_bar,"[(1153, 766)]",[],[1],[0.48333333333333334],vertical,"(890.0, 262.0)",0.48333333333333334,0.447,1,1521.745,1,0.0,other
0,257,valid,"[(1167, 794)]",[],[1],[0.5],vertical,"(890.0, 262.0)",0.8833333333333333,0.458,1,1525.713,1,0.0,same
0,258,valid,"[(1165, 780)]",[],[1],[0.85],vertical,"(890.0, 762.0)",1.3,nan,0,1530.308,0,0.0,same
0,259,valid,"[(1160, 793)]",[],[1],[0.5166666666666666],horizontal,"(890.0, 262.0)",1.0333333333333332,0.474,1,1535.429,1,0.0,same
0,260,valid,"[(1175, 776)]",[],[1],[0.55],vertical,"(390.0, 262.0)",1.1666666666666667,0.509,1,1540.163,1,0.0,same
0,261,valid,"[(1160, 772)]",[],[1],[0.5833333333333334],horizontal,"(390.0, 262.0)",0.5166666666666666,0.544,1,1545.512,1,0.0,same
0,262,valid,"[(1165, 784)]",[],[1],[0.5166666666666666],vertical,"(890.0, 262.0)",0.6166666666666667,0.482,1,1549.825,2,0.0,same
0,263,valid,"[(1175, 798)]",[],[1],[0.5333333333333333],vertical,"(890.0, 262.0)",1.1833333333333333,0.495,1,1554.774,2,0.0,same
0,264,catch,"[(1165, 795)]",[],[1],[],vertical,"(890.0, 762.0)",1.7,nan,1,1560.553,2,0.0,same
0,265,valid,"[(1169, 798)]",[],[1],[0.5833333333333334],vertical,"(390.0, 762.0)",1.2166666666666666,0.543,1,1566.018,2,0.0,same
0,266,valid,"[(1175, 798)]",[],[1],[0.55],horizontal,"(890.0, 762.0)",1.4333333333333333,0.517,1,1572.044,3,0.0,same
0,267,valid,"[(1168, 776)]",[],[1],[0.55],vertical,"(890.0, 762.0)",0.65,0.511,1,1578.791,3,0.0,same
0,268,catch,"[(1189, 785)]",[],[1],[],horizontal,"(390.0, 262.0)",1.7,nan,1,1584.089,3,0.0,same
0,269,valid,"[(1165, 805)]",[],[1],[0.7666666666666666],vertical,"(390.0, 262.0)",1.2333333333333334,0.721,1,1590.3,3,0.0,same
0,270,invalid_adjacent_other_bar,"[(1165, 782)]",[],[1],[0.5833333333333334],vertical,"(890.0, 762.0)",0.45,0.54,1,1596.747,3,0.0,other
0,271,catch,"[(1165, 769)]",[],[1],[],vertical,"(390.0, 262.0)",1.7,nan,1,1602.212,3,0.0,same
0,272,valid,"[(1165, 781)]",[],[1],[0.5666666666666667],vertical,"(890.0, 762.0)",0.48333333333333334,0.524,1,1608.206,3,0.0,same
0,273,valid,"[(1180, 793)]",[],[1],[0.2833333333333333],horizontal,"(890.0, 762.0)",1.3833333333333333,0.249,1,1613.577,3,0.0,same
0,274,catch,"[(1165, 759)]",[],[1],[],vertical,"(390.0, 762.0)",1.7,nan,1,1619.78,3,0.0,same
0,275,valid,"[(1180, 794)]",[],[1],[0.6333333333333333],vertical,"(890.0, 762.0)",1.1166666666666667,0.595,1,1625.775,3,0.0,same
0,276,catch,"[(1178, 789)]",[],[1],[],vertical,"(890.0, 762.0)",1.7,nan,1,1631.969,3,0.0,same
0,277,valid,"[(1175, 774)]",[],[1],[0.5166666666666666],horizontal,"(390.0, 762.0)",0.7166666666666667,0.471,1,1637.944,3,0.0,same
0,278,catch,"[(1165, 769)]",[],[1],[],horizontal,"(390.0, 762.0)",1.7,nan,1,1643.23,3,0.0,same
0,279,valid,"[(1175, 793)]",[],[1],[0.5166666666666666],vertical,"(390.0, 262.0)",0.6666666666666666,0.471,1,1649.375,3,0.0,same
0,280,catch,"[(1157, 770)]",[],[1],[],vertical,"(390.0, 762.0)",1.7,nan,1,1654.63,3,0.0,same
0,281,catch,"[(1160, 791)]",[],[1],[],horizontal,"(890.0, 262.0)",1.7,nan,1,1660.63,3,0.0,same
0,282,valid,"[(1160, 781)]",[],[1],[0.65],vertical,"(390.0, 262.0)",0.8666666666666667,0.606,1,1666.896,3,0.0,same
0,283,valid,"[(1164, 790)]",[],[1],[0.5666666666666667],horizontal,"(390.0, 262.0)",1.0666666666666667,0.524,1,1672.879,3,0.0,same
0,284,invalid_same_bar,"[(1145, 778)]",[],[1],[0.5333333333333333],horizontal,"(890.0, 762.0)",0.6833333333333333,0.489,1,1678.462,3,0.0,same
0,285,valid,"[(1168, 781)]",[],[1],[0.65],vertical,"(390.0, 762.0)",0.9166666666666666,0.607,1,1684.161,3,0.0,same
0,286,valid,"[(1165, 794)]",[],[1],[0.6333333333333333],vertical,"(890.0, 262.0)",0.8333333333333334,0.594,1,1690.233,3,0.0,same
0,287,valid,"[(1168, 789)]",[],[1],[0.2],vertical,"(390.0, 262.0)",1.35,0.169,0,1696.246,0,0.0,same
0,288,valid,"[(1145, 778)]",[],[1],[0.5166666666666666],horizontal,"(890.0, 762.0)",1.25,0.479,1,1700.695,1,0.0,same
0,289,catch,"[(1172, 787)]",[],[1],[],horizontal,"(890.0, 762.0)",1.7,nan,1,1705.962,1,0.0,same
0,290,invalid_same_bar,"[(1175, 783)]",[],[1],[0.5],horizontal,"(890.0, 262.0)",0.5166666666666666,0.457,1,1711.429,1,0.0,same
0,291,invalid_same_bar,"[(1176, 778)]",[],[1],[0.48333333333333334],horizontal,"(890.0, 262.0)",1.4166666666666667,0.446,1,1715.842,2,0.0,same
0,292,valid,"[(1185, 769)]",[],[1],[0.7666666666666666],vertical,"(390.0, 762.0)",1.3833333333333333,0.72,1,1721.194,2,0.0,same
0,293,catch,"[(1130, 796)]",[],[1],[],vertical,"(390.0, 762.0)",1.7,nan,1,1727.021,2,0.0,same
0,294,valid,"[(1170, 794)]",[],[1],[0.48333333333333334],horizontal,"(890.0, 262.0)",0.55,0.445,1,1733.681,2,0.0,same
0,295,valid,"[(1165, 794)]",[],[1],[0.85],horizontal,"(890.0, 762.0)",0.5666666666666667,nan,0,1739.079,0,0.0,same
0,296,valid,"[(1149, 793)]",[],[1],[0.4666666666666667],horizontal,"(890.0, 762.0)",0.75,0.424,1,1743.879,1,0.0,same
0,297,valid,"[(1175, 791)]",[],[1],[0.5166666666666666],horizontal,"(390.0, 762.0)",1.3166666666666667,0.469,1,1748.979,1,0.0,same
0,298,valid,"[(1179, 789)]",[],[1],[0.7],vertical,"(890.0, 762.0)",0.6,0.654,1,1754.112,1,0.0,same
0,299,valid,"[(1165, 801)]",[],[1],[0.5166666666666666],vertical,"(890.0, 762.0)",0.7833333333333333,0.473,1,1758.901,2,0.0,same
0,300,valid,"[(1155, 792)]",[],[1],[0.75],vertical,"(390.0, 762.0)",0.7,0.708,1,1764.345,2,0.0,same
0,301,valid,"[(1140, 821)]",[],[1],[0.5833333333333334],horizontal,"(890.0, 262.0)",1.3333333333333333,0.542,1,1769.588,2,0.0,same
0,302,valid,"[(1164, 805)]",[],[1],[0.5166666666666666],vertical,"(390.0, 262.0)",0.36666666666666664,0.479,1,1776.035,2,0.0,same
0,303,valid,"[(1166, 791)]",[],[1],[0.65],vertical,"(390.0, 762.0)",0.36666666666666664,0.605,1,1780.906,3,0.0,same
0,304,valid,"[(1150, 803)]",[],[1],[0.5166666666666666],vertical,"(390.0, 262.0)",1.3166666666666667,0.481,1,1786.855,3,0.0,same
0,305,catch,"[(1164, 782)]",[],[1],[],horizontal,"(890.0, 262.0)",1.7,"('cti', 1.696),nan",0,1793.025,0,0.02,same
0,306,valid,"[(1160, 779)]",[],[1],[0.5333333333333333],horizontal,"(390.0, 762.0)",1.4666666666666666,0.488,1,1797.979,1,0.02,same
0,307,catch,"[(1160, 764)]",[],[1],[],vertical,"(890.0, 762.0)",1.7,nan,1,1803.332,1,0.02,same
0,308,valid,"[(1183, 769)]",[],[1],[0.85],horizontal,"(390.0, 262.0)",1.3,nan,0,1808.68,0,0.02,same
0,309,valid,"[(1165, 781)]",[],[1],[0.5166666666666666],horizontal,"(890.0, 762.0)",1.4,0.479,1,1813.496,1,0.02,same
0,310,valid,"[(1175, 811)]",[],[1],[0.5166666666666666],horizontal,"(390.0, 262.0)",0.5666666666666667,0.481,1,1819.264,1,0.02,same
0,311,valid,"[(1160, 785)]",[],[1],[0.36666666666666664],vertical,"(390.0, 262.0)",1.3,0.331,1,1823.775,1,0.02,same
0,312,valid,"[(1162, 773)]",[],[1],[0.5333333333333333],vertical,"(890.0, 762.0)",0.48333333333333334,0.499,1,1828.959,2,0.02,same
0,313,valid,"[(1176, 774)]",[],[1],[0.75],vertical,"(890.0, 262.0)",1.2166666666666666,0.712,1,1833.477,2,0.02,same
0,314,catch,"[(1165, 784)]",[],[1],[],horizontal,"(390.0, 762.0)",1.7,nan,1,1839.396,2,0.02,same
0,315,catch,"[(1160, 787)]",[],[1],[],vertical,"(390.0, 762.0)",1.7,nan,1,1845.47,2,0.02,same
0,316,valid,"[(1165, 806)]",[],[1],[0.6166666666666667],vertical,"(890.0, 262.0)",0.5833333333333334,0.568,1,1851.734,3,0.02,same
0,317,valid,"[(1183, 795)]",[],[1],[0.85],vertical,"(390.0, 762.0)",1.25,nan,0,1857.861,0,0.02,same
0,318,catch,"[(1165, 786)]",[],[1],[],horizontal,"(890.0, 262.0)",1.7,nan,1,1863.242,1,0.02,same
0,319,catch,"[(1184, 776)]",[],[1],[],horizontal,"(390.0, 262.0)",1.7,nan,1,1868.23,1,0.02,same
0,320,valid,"[(1165, 772)]",[],[1],[0.6833333333333333],vertical,"(890.0, 762.0)",0.7333333333333333,0.648,1,1873.477,1,0.02,same
0,321,valid,"[(1178, 789)]",[],[1],[0.5166666666666666],vertical,"(890.0, 762.0)",1.5,0.475,1,1878.789,2,0.02,same
0,322,catch,"[(1185, 776)]",[],[1],[],horizontal,"(890.0, 762.0)",1.7,nan,1,1884.38,2,0.02,same
0,323,valid,"[(1166, 776)]",[],[1],[0.65],horizontal,"(390.0, 262.0)",1.2,0.608,1,1890.213,2,0.02,same
0,324,valid,"[(1175, 759)]",[],[1],[0.55],vertical,"(390.0, 762.0)",1.0833333333333333,0.519,1,1896.473,2,0.02,same
0,325,valid,"[(1176, 792)]",[],[1],[0.6166666666666667],horizontal,"(390.0, 262.0)",0.8666666666666667,0.578,1,1902.146,3,0.02,same
0,326,valid,"[(1160, 779)]",[],[1],[0.5166666666666666],vertical,"(390.0, 762.0)",1.1666666666666667,0.482,1,1907.912,3,0.02,same
0,327,valid,"[(1165, 782)]",[],[1],[0.7333333333333333],horizontal,"(890.0, 762.0)",1.0833333333333333,0.703,1,1913.882,3,0.02,same
0,328,catch,"[(1157, 833)]",[],[1],[],vertical,"(390.0, 262.0)",1.7,nan,1,1920.197,3,0.02,same
0,329,valid,"[(1165, 777)]",[],[1],[0.7166666666666667],horizontal,"(390.0, 262.0)",1.35,0.678,1,1926.195,3,0.02,same
0,330,catch,"[(1160, 777)]",[],[1],[],horizontal,"(390.0, 262.0)",1.7,nan,1,1933.029,3,0.02,same
0,331,invalid_adjacent_other_bar,"[(1160, 793)]",[],[1],[0.85],vertical,"(890.0, 762.0)",1.0666666666666667,nan,0,1939.422,0,0.02,other
0,332,valid,"[(1158, 798)]",[],[1],[0.55],vertical,"(890.0, 262.0)",1.1833333333333333,0.511,1,1944.561,1,0.02,same
0,333,valid,"[(1180, 791)]",[],[1],[0.5333333333333333],vertical,"(890.0, 262.0)",1.4666666666666666,0.492,1,1949.556,1,0.02,same
0,334,catch,"[(1160, 776)]",[],[1],[],vertical,"(890.0, 262.0)",1.7,nan,1,1954.947,1,0.02,same
0,335,catch,"[(1175, 787)]",[],[1],[],horizontal,"(890.0, 262.0)",1.7,nan,1,1959.992,2,0.02,same
0,336,valid,"[(1176, 782)]",[],[1],[0.6666666666666666],horizontal,"(390.0, 262.0)",0.36666666666666664,0.621,1,1965.755,2,0.02,same
0,337,valid,"[(1195, 777)]",[],[1],[0.85],vertical,"(890.0, 262.0)",0.7166666666666667,nan,0,1970.813,0,0.02,same
0,338,valid,"[(1165, 775)]",[],[1],[0.55],horizontal,"(390.0, 762.0)",0.7166666666666667,0.51,1,1975.679,1,0.02,same
0,339,catch,"[(1165, 791)]",[],[1],[],horizontal,"(890.0, 762.0)",1.7,nan,1,1980.229,1,0.02,same
0,340,valid,"[(1156, 809)]",[],[1],[0.6833333333333333],horizontal,"(890.0, 262.0)",1.5,0.64,1,1985.295,1,0.02,same
0,341,valid,"[(1174, 781)]",[],[1],[0.5166666666666666],horizontal,"(390.0, 762.0)",0.55,0.476,1,1991.146,2,0.02,same
0,342,valid,"[(1165, 796)]",[],[1],[0.5],vertical,"(890.0, 262.0)",1.3666666666666667,0.459,1,1995.746,2,0.02,same
0,343,valid,"[(1166, 796)]",[],[1],[0.5],vertical,"(390.0, 762.0)",0.6666666666666666,0.455,1,2001.561,2,0.02,same
0,344,valid,"[(1155, 788)]",[],[1],[0.5333333333333333],horizontal,"(390.0, 762.0)",0.95,0.497,1,2006.847,2,0.02,same
0,345,valid,"[(1212, 796)]",[],[1],[0.85],vertical,"(390.0, 762.0)",1.0,nan,0,2012.265,0,0.02,same
0,346,valid,"[(1125, 808)]",[],[1],[0.5333333333333333],vertical,"(390.0, 262.0)",0.95,0.488,1,2017.116,1,0.02,same
0,347,valid,"[(1165, 768)]",[],[1],[0.5333333333333333],vertical,"(390.0, 762.0)",1.2666666666666666,0.494,1,2022.38,1,0.02,same
0,348,catch,"[(1160, 796)]",[],[1],[],horizontal,"(390.0, 762.0)",1.7,nan,1,2027.096,1,0.02,same
0,349,catch,"[(1164, 796)]",[],[1],[],horizontal,"(390.0, 262.0)",1.7,nan,1,2032.348,2,0.02,same
0,350,catch,"[(1163, 792)]",[],[1],[],vertical,"(390.0, 262.0)",1.7,nan,1,2037.698,2,0.02,same
0,351,catch,"[(1160, 787)]",[],[1],[],vertical,"(390.0, 762.0)",1.7,nan,1,2042.92,2,0.02,same
0,352,catch,"[(1165, 774)]",[],[1],[],vertical,"(890.0, 762.0)",1.7,nan,1,2048.463,2,0.02,same
0,353,valid,"[(1166, 789)]",[],[1],[0.85],horizontal,"(890.0, 262.0)",0.8666666666666667,nan,0,2054.197,0,0.02,same
0,354,catch,"[(1141, 775)]",[],[1],[],horizontal,"(890.0, 262.0)",1.7,nan,1,2059.13,1,0.02,same
0,355,invalid_adjacent_other_bar,"[(1170, 781)]",[],[1],[0.6333333333333333],vertical,"(390.0, 262.0)",1.3166666666666667,0.594,1,2064.563,1,0.0,other
0,356,invalid_same_bar,"[(1170, 761)]",[],[1],[0.8333333333333334],horizontal,"(890.0, 762.0)",1.4666666666666666,0.783,1,2070.212,1,0.0,same
0,357,valid,"[(1165, 777)]",[],[1],[0.7333333333333333],vertical,"(890.0, 262.0)",0.4166666666666667,0.686,1,2075.828,2,0.0,same
0,358,valid,"[(1160, 767)]",[],[1],[0.5166666666666666],horizontal,"(890.0, 262.0)",0.55,0.478,1,2080.88,2,0.0,same
0,359,valid,"[(1165, 793)]",[],[1],[0.5166666666666666],horizontal,"(390.0, 762.0)",1.45,0.473,1,2085.58,2,0.0,same
0,360,catch,"[(1180, 784)]",[],[1],[],horizontal,"(390.0, 262.0)",1.7,nan,1,2091.457,2,0.0,same
0,361,valid,"[(1165, 781)]",[],[1],[0.8166666666666667],vertical,"(890.0, 762.0)",1.25,0.761,1,2096.863,3,0.0,same
0,362,valid,"[(1168, 781)]",[],[1],[0.6833333333333333],horizontal,"(890.0, 762.0)",0.95,0.637,1,2103.171,3,0.0,same
0,363,catch,"[(1166, 803)]",[],[1],[],horizontal,"(890.0, 762.0)",1.7,nan,1,2109.013,3,0.0,same
0,364,valid,"[(1175, 780)]",[],[1],[0.5333333333333333],vertical,"(890.0, 762.0)",0.6166666666666667,0.496,1,2115.163,3,0.0,same
0,365,catch,"[(1166, 784)]",[],[1],[],vertical,"(890.0, 262.0)",1.7,nan,1,2120.529,3,0.0,same
0,366,valid,"[(1170, 807)]",[],[1],[0.5333333333333333],vertical,"(890.0, 762.0)",0.9666666666666667,0.493,1,2126.397,3,0.0,same
0,367,invalid_adjacent_other_bar,"[(1165, 781)]",[],[1],[0.85],vertical,"(890.0, 762.0)",0.6666666666666666,nan,0,2132.246,0,0.0,other
0,368,invalid_adjacent_other_bar,"[(1161, 766)]",[],[1],[0.85],vertical,"(890.0, 762.0)",0.3833333333333333,nan,0,2136.745,0,0.0,other
0,369,invalid_same_bar,"[(1135, 789)]",[],[1],[0.48333333333333334],vertical,"(890.0, 262.0)",0.65,0.44,1,2140.897,1,0.0,same
0,370,valid,"[(1138, 784)]",[],[1],[0.7],horizontal,"(390.0, 262.0)",1.15,0.656,1,2145.642,1,0.0,same
0,371,catch,"[(1168, 769)]",[],[1],[],horizontal,"(390.0, 262.0)",1.7,nan,1,2151.203,1,0.0,same
0,372,valid,"[(1177, 767)]",[],[1],[0.6833333333333333],vertical,"(890.0, 262.0)",0.9666666666666667,0.643,1,2156.022,2,0.0,same
0,373,catch,"[(1175, 781)]",[],[1],[],horizontal,"(890.0, 762.0)",1.7,nan,1,2161.662,2,0.0,same
0,374,valid,"[(1173, 795)]",[],[1],[0.5],vertical,"(390.0, 762.0)",1.4833333333333334,0.456,1,2167.111,2,0.0,same
0,375,valid,"[(1163, 779)]",[],[1],[0.6166666666666667],vertical,"(390.0, 262.0)",1.3666666666666667,0.573,1,2173.042,2,0.0,same
0,376,valid,"[(1179, 793)]",[],[1],[0.5],horizontal,"(390.0, 762.0)",0.55,0.458,1,2178.73,3,0.0,same
0,377,valid,"[(1165, 783)]",[],[1],[0.55],horizontal,"(390.0, 762.0)",1.1666666666666667,0.503,1,2184.222,3,0.0,same
0,378,catch,"[(1181, 771)]",[],[1],[],horizontal,"(890.0, 262.0)",1.7,nan,1,2190.113,3,0.0,same
0,379,catch,"[(1135, 801)]",[],[1],[],horizontal,"(890.0, 262.0)",1.7,nan,1,2195.978,3,0.0,same
0,380,valid,"[(1161, 784)]",[],[1],[0.7],vertical,"(390.0, 262.0)",0.65,0.652,1,2201.703,3,0.0,same
0,381,valid,"[(1137, 805)]",[],[1],[0.6],vertical,"(390.0, 262.0)",0.35,0.555,1,2207.658,3,0.0,same
0,382,invalid_same_bar,"[(1166, 781)]",[],[1],[0.5333333333333333],horizontal,"(390.0, 262.0)",1.15,0.496,1,2212.764,3,0.0,same
0,383,valid,"[(1166, 775)]",[],[1],[0.85],vertical,"(390.0, 262.0)",1.3,nan,0,2218.826,0,0.0,same
0,384,catch,"[(1121, 786)]",[],[1],[],vertical,"(890.0, 762.0)",1.7,nan,1,2223.747,1,0.0,same
0,385,invalid_adjacent_other_bar,"[(1162, 769)]",[],[1],[0.5333333333333333],vertical,"(890.0, 762.0)",0.5166666666666666,0.495,1,2228.903,1,0.0,other
0,386,valid,"[(1182, 774)]",[],[1],[0.7],vertical,"(390.0, 762.0)",1.3,0.661,1,2233.368,1,0.0,same
0,387,valid,"[(1161, 761)]",[],[1],[0.5],vertical,"(890.0, 262.0)",1.4,0.458,1,2238.879,2,0.0,same
0,388,catch,"[(1166, 761)]",[],[1],[],vertical,"(390.0, 262.0)",1.7,nan,1,2244.616,2,0.0,same
0,389,valid,"[(1140, 795)]",[],[1],[0.5166666666666666],horizontal,"(890.0, 762.0)",1.1666666666666667,0.483,1,2250.165,2,0.0,same
0,390,valid,"[(1140, 788)]",[],[1],[0.85],vertical,"(890.0, 262.0)",0.5666666666666667,nan,0,2255.933,0,0.0,same
0,391,valid,"[(1138, 756)]",[],[1],[0.6166666666666667],vertical,"(890.0, 762.0)",0.8833333333333333,0.574,1,2260.492,1,0.0,same
0,392,valid,"[(1165, 772)]",[],[1],[0.5166666666666666],horizontal,"(390.0, 762.0)",0.5166666666666666,0.477,1,2265.411,1,0.0,same
0,393,catch,"[(1170, 776)]",[],[1],[],horizontal,"(890.0, 262.0)",1.7,nan,1,2269.742,1,0.0,same
0,394,catch,"[(1160, 791)]",[],[1],[],vertical,"(390.0, 262.0)",1.7,nan,1,2275.046,2,0.0,same
0,395,valid,"[(1156, 786)]",[],[1],[0.85],horizontal,"(390.0, 762.0)",1.05,nan,0,2280.547,0,0.0,same
0,396,invalid_adjacent_other_bar,"[(1165, 776)]",[],[1],[0.75],vertical,"(890.0, 762.0)",1.0,0.703,1,2285.43,1,0.0,other
0,397,valid,"[(1165, 791)]",[],[1],[0.36666666666666664],horizontal,"(890.0, 762.0)",1.5333333333333332,0.329,1,2290.925,1,0.0,same
0,398,catch,"[(1175, 801)]",[],[1],[],vertical,"(890.0, 762.0)",1.7,nan,1,2296.364,1,0.0,same
0,399,valid,"[(1163, 802)]",[],[1],[0.5166666666666666],vertical,"(390.0, 262.0)",0.8333333333333334,0.479,1,2301.246,2,0.0,same
0,400,invalid_same_bar,"[(1174, 788)]",[],[1],[0.5],horizontal,"(890.0, 262.0)",1.2166666666666666,0.462,1,2306.746,2,0.0,same
0,401,valid,"[(1165, 775)]",[],[1],[0.55],horizontal,"(390.0, 262.0)",0.8666666666666667,0.511,1,2312.234,2,0.0,same
0,402,catch,"[(1162, 784)]",[],[1],[],horizontal,"(390.0, 762.0)",1.7,nan,1,2317.606,2,0.0,same
0,403,invalid_adjacent_other_bar,"[(1165, 786)]",[],[1],[0.5333333333333333],vertical,"(390.0, 762.0)",0.7333333333333333,0.497,1,2323.575,3,0.0,other
0,404,valid,"[(1164, 771)]",[],[1],[0.5166666666666666],horizontal,"(390.0, 262.0)",1.0666666666666667,0.476,1,2329.223,3,0.0,same
0,405,catch,"[(1172, 799)]",[],[1],[],vertical,"(890.0, 262.0)",1.7,nan,1,2334.835,3,0.0,same
0,406,valid,"[(1175, 791)]",[],[1],[0.6166666666666667],horizontal,"(390.0, 262.0)",0.48333333333333334,0.572,1,2340.68,3,0.0,same
0,407,valid,"[(1168, 792)]",[],[1],[0.6333333333333333],vertical,"(390.0, 762.0)",1.2166666666666666,0.592,1,2345.797,3,0.0,same
0,408,valid,"[(1147, 818)]",[],[1],[0.6166666666666667],vertical,"(890.0, 762.0)",0.6666666666666666,0.582,1,2351.78,3,0.0,same
0,409,valid,"[(1180, 793)]",[],[1],[0.5],horizontal,"(390.0, 762.0)",0.55,0.461,1,2357.546,3,0.0,same
0,410,invalid_same_bar,"[(1170, 782)]",[],[1],[0.48333333333333334],vertical,"(890.0, 262.0)",0.9166666666666666,0.446,1,2362.66,3,0.0,same
0,411,valid,"[(1175, 772)]",[],[1],[0.55],horizontal,"(890.0, 262.0)",0.8,0.51,1,2368.649,3,0.0,same
0,412,catch,"[(1140, 797)]",[],[1],[],horizontal,"(390.0, 262.0)",1.7,nan,1,2374.147,3,0.0,same
0,413,invalid_adjacent_other_bar,"[(1175, 773)]",[],[1],[0.85],horizontal,"(390.0, 762.0)",0.4666666666666667,nan,0,2380.57,0,0.0,other
0,414,valid,"[(1145, 766)]",[],[1],[0.7666666666666666],horizontal,"(890.0, 762.0)",1.1666666666666667,0.719,1,2384.68,1,0.0,same
0,415,valid,"[(1158, 807)]",[],[1],[0.6166666666666667],horizontal,"(890.0, 762.0)",0.6833333333333333,0.583,1,2390.033,1,0.0,same
0,416,valid,"[(1160, 795)]",[],[1],[0.5333333333333333],horizontal,"(890.0, 262.0)",0.8833333333333333,0.499,1,2394.88,1,0.0,same
0,417,valid,"[(1141, 775)]",[],[1],[0.6],vertical,"(890.0, 262.0)",0.8166666666666667,0.56,1,2399.531,2,0.0,same
0,418,valid,"[(1137, 789)]",[],[1],[0.5333333333333333],horizontal,"(390.0, 762.0)",0.9833333333333333,0.49,1,2404.729,2,0.0,same
0,419,valid,"[(1165, 781)]",[],[1],[0.5166666666666666],vertical,"(890.0, 762.0)",1.4333333333333333,0.479,1,2410.113,2,0.0,same
0,420,valid,"[(1179, 786)]",[],[1],[0.5666666666666667],horizontal,"(890.0, 762.0)",1.15,0.53,1,2415.975,2,0.0,same
0,421,valid,"[(1174, 797)]",[],[1],[0.5],horizontal,"(890.0, 262.0)",0.43333333333333335,0.462,1,2421.73,3,0.0,same
0,422,valid,"[(1185, 773)]",[],[1],[0.5166666666666666],vertical,"(390.0, 762.0)",0.95,0.479,1,2426.731,3,0.0,same
0,423,catch,"[(1159, 791)]",[],[1],[],horizontal,"(390.0, 262.0)",1.7,nan,1,2432.281,3,0.0,same
0,424,catch,"[(1155, 775)]",[],[1],[],vertical,"(890.0, 762.0)",1.7,nan,1,2437.814,3,0.0,same
0,425,valid,"[(1193, 792)]",[],[1],[0.6166666666666667],vertical,"(890.0, 262.0)",1.4166666666666667,0.573,1,2443.747,3,0.0,same
0,426,invalid_same_bar,"[(1177, 774)]",[],[1],[0.6],vertical,"(390.0, 262.0)",1.4666666666666666,0.568,1,2449.83,3,0.0,same
0,427,valid,"[(1154, 781)]",[],[1],[0.6],horizontal,"(890.0, 262.0)",0.6333333333333333,0.561,1,2455.931,3,0.0,same
0,428,catch,"[(1165, 780)]",[],[1],[],vertical,"(390.0, 762.0)",1.7,nan,1,2461.43,3,0.0,same
0,429,valid,"[(1147, 788)]",[],[1],[0.55],vertical,"(890.0, 762.0)",1.05,0.508,1,2467.38,3,0.0,same
0,430,valid,"[(1160, 771)]",[],[1],[0.5166666666666666],vertical,"(890.0, 262.0)",0.4666666666666667,0.472,1,2473.297,3,0.0,same
0,431,valid,"[(1160, 802)]",[],[1],[0.5333333333333333],vertical,"(890.0, 262.0)",0.9333333333333333,0.488,1,2478.105,3,0.0,same
0,432,valid,"[(1150, 768)]",[],[1],[0.85],vertical,"(890.0, 262.0)",0.7333333333333333,nan,0,2483.813,0,0.0,same
0,433,valid,"[(1145, 790)]",[],[1],[0.43333333333333335],vertical,"(390.0, 262.0)",1.35,0.395,1,2487.979,1,0.0,same
0,434,invalid_same_bar,"[(1175, 792)]",[],[1],[0.85],vertical,"(390.0, 262.0)",0.8833333333333333,nan,0,2493.303,0,0.0,same
0,435,catch,"[(1156, 788)]",[],[1],[],vertical,"(390.0, 762.0)",1.7,nan,1,2497.998,1,0.0,same
0,436,valid,"[(1175, 786)]",[],[1],[0.7333333333333333],vertical,"(390.0, 762.0)",1.05,0.685,1,2503.209,1,0.0,same
0,437,valid,"[(1166, 795)]",[],[1],[0.5166666666666666],horizontal,"(890.0, 762.0)",0.5,0.478,1,2508.239,1,0.0,same
0,438,invalid_same_bar,"[(1180, 773)]",[],[1],[0.55],vertical,"(390.0, 262.0)",1.45,0.505,1,2512.741,2,0.0,same
0,439,valid,"[(1178, 782)]",[],[1],[0.55],horizontal,"(390.0, 262.0)",1.4666666666666666,0.507,1,2518.815,2,0.0,same
0,440,valid,"[(1165, 798)]",[],[1],[0.6833333333333333],horizontal,"(890.0, 262.0)",1.35,0.641,1,2524.646,2,0.0,same
0,441,valid,"[(1184, 796)]",[],[1],[0.5],vertical,"(390.0, 262.0)",0.85,0.457,1,2530.164,2,0.0,same
0,442,valid,"[(1166, 786)]",[],[1],[0.85],vertical,"(390.0, 762.0)",0.5333333333333333,nan,0,2535.513,0,0.0,same
0,443,valid,"[(1128, 801)]",[],[1],[0.85],horizontal,"(890.0, 762.0)",1.1833333333333333,nan,0,2539.914,0,0.0,same
0,444,valid,"[(1138, 777)]",[],[1],[0.6666666666666666],vertical,"(390.0, 262.0)",0.5,0.621,1,2544.814,1,0.0,same
0,445,valid,"[(1194, 792)]",[],[1],[0.5333333333333333],vertical,"(390.0, 262.0)",0.7666666666666666,0.49,1,2549.462,1,0.0,same
0,446,valid,"[(1176, 786)]",[],[1],[0.65],vertical,"(890.0, 762.0)",0.55,0.614,1,2554.28,1,0.0,same
0,447,catch,"[(1175, 789)]",[],[1],[],horizontal,"(890.0, 762.0)",1.7,nan,1,2559.072,2,0.0,same
0,448,valid,"[(1173, 780)]",[],[1],[0.85],horizontal,"(390.0, 762.0)",0.3833333333333333,nan,0,2564.796,0,0.0,same
0,449,valid,"[(1141, 836)]",[],[1],[0.48333333333333334],horizontal,"(390.0, 762.0)",0.6666666666666666,0.441,1,2568.863,1,0.0,same
0,450,valid,"[(1173, 813)]",[],[1],[0.5166666666666666],vertical,"(890.0, 762.0)",1.0666666666666667,0.477,1,2610.598,1,0.0,same
0,451,valid,"[(1145, 786)]",[],[1],[0.5],vertical,"(890.0, 262.0)",1.3166666666666667,0.465,1,2615.875,1,0.0,same
0,452,catch,"[(1168, 768)]",[],[1],[],horizontal,"(390.0, 762.0)",1.7,nan,1,2621.31,2,0.0,same
0,453,valid,"[(1170, 793)]",[],[1],[0.5166666666666666],vertical,"(890.0, 762.0)",0.8666666666666667,0.471,1,2626.793,2,0.0,same
0,454,valid,"[(1167, 788)]",[],[1],[0.85],horizontal,"(390.0, 262.0)",1.0833333333333333,nan,0,2632.146,0,0.0,same
0,455,invalid_adjacent_other_bar,"[(1151, 781)]",[],[1],[0.5333333333333333],vertical,"(890.0, 262.0)",1.45,0.494,1,2637.13,1,0.0,other
0,456,valid,"[(1167, 788)]",[],[1],[0.85],horizontal,"(390.0, 262.0)",0.5666666666666667,nan,0,2642.78,0,0.0,same
0,457,valid,"[(1170, 770)]",[],[1],[0.5666666666666667],horizontal,"(890.0, 262.0)",1.1,0.521,1,2646.648,1,0.0,same
0,458,valid,"[(1167, 757)]",[],[1],[0.7],horizontal,"(890.0, 262.0)",1.3333333333333333,0.656,1,2651.348,1,0.0,same
0,459,valid,"[(1168, 766)]",[],[1],[0.5333333333333333],vertical,"(890.0, 762.0)",0.5666666666666667,0.493,1,2656.681,1,0.0,same
0,460,valid,"[(1175, 798)]",[],[1],[0.4666666666666667],horizontal,"(390.0, 262.0)",1.2,0.425,1,2660.847,2,0.0,same
0,461,valid,"[(1182, 775)]",[],[1],[0.7],vertical,"(390.0, 762.0)",1.4333333333333333,0.659,1,2666.796,2,0.0,same
0,462,catch,"[(1160, 766)]",[],[1],[],horizontal,"(890.0, 762.0)",1.7,nan,1,2672.406,2,0.0,same
0,463,valid,"[(1179, 790)]",[],[1],[0.5166666666666666],vertical,"(890.0, 262.0)",1.1333333333333333,0.475,1,2677.931,2,0.0,same
0,464,catch,"[(1160, 796)]",[],[1],[],vertical,"(390.0, 762.0)",1.7,nan,1,2683.59,3,0.0,same
0,465,catch,"[(1156, 760)]",[],[1],[],horizontal,"(390.0, 262.0)",1.7,nan,1,2689.27,3,0.0,same
0,466,valid,"[(1161, 774)]",[],[1],[0.5],vertical,"(390.0, 262.0)",1.0333333333333332,0.469,1,2695.623,3,0.0,same
0,467,valid,"[(1177, 791)]",[],[1],[0.75],horizontal,"(890.0, 762.0)",1.1,0.705,1,2701.43,3,0.0,same
0,468,valid,"[(1174, 773)]",[],[1],[0.5],horizontal,"(390.0, 762.0)",1.2666666666666666,0.462,1,2707.588,3,0.0,same
0,469,catch,"[(1165, 780)]",[],[1],[],vertical,"(390.0, 762.0)",1.7,nan,1,2713.743,3,0.0,same
0,470,valid,"[(1161, 769)]",[],[1],[0.7166666666666667],vertical,"(390.0, 262.0)",0.75,0.682,1,2719.884,3,0.0,same
0,471,valid,"[(1180, 778)]",[],[1],[0.6833333333333333],vertical,"(890.0, 262.0)",0.8166666666666667,0.636,1,2725.782,3,0.0,same
0,472,valid,"[(1174, 806)]",[],[1],[0.85],vertical,"(390.0, 262.0)",0.36666666666666664,nan,0,2731.438,0,0.0,same
0,473,valid,"[(1135, 786)]",[],[1],[0.6166666666666667],horizontal,"(390.0, 762.0)",1.0,0.58,1,2735.605,1,0.0,same
0,474,catch,"[(1165, 789)]",[],[1],[],horizontal,"(390.0, 262.0)",1.7,nan,1,2740.562,1,0.0,same
0,475,valid,"[(1169, 811)]",[],[1],[0.5333333333333333],horizontal,"(890.0, 262.0)",1.15,0.496,1,2745.63,1,0.0,same
0,476,valid,"[(1135, 793)]",[],[1],[0.5166666666666666],vertical,"(890.0, 762.0)",1.2666666666666666,0.481,1,2751.346,2,0.0,same
0,477,valid,"[(1178, 779)]",[],[1],[0.6833333333333333],horizontal,"(890.0, 262.0)",1.1833333333333333,0.636,1,2757.172,2,0.0,same
0,478,valid,"[(1175, 791)]",[],[1],[0.2],horizontal,"(390.0, 762.0)",1.3666666666666667,0.171,0,2762.812,0,0.0,same
0,479,valid,"[(1145, 775)]",[],[1],[0.6166666666666667],vertical,"(390.0, 762.0)",1.4333333333333333,0.577,1,2767.498,1,0.0,same
0,480,valid,"[(1180, 777)]",[],[1],[0.5],vertical,"(890.0, 262.0)",0.6833333333333333,0.468,1,2773.38,1,0.0,same
0,481,invalid_adjacent_other_bar,"[(1169, 771)]",[],[1],[0.85],vertical,"(890.0, 762.0)",0.5166666666666666,nan,0,2777.815,0,0.0,other
0,482,valid,"[(1115, 806)]",[],[1],[0.45],vertical,"(890.0, 262.0)",1.1166666666666667,0.408,1,2781.722,1,0.0,same
0,483,valid,"[(1167, 785)]",[],[1],[0.85],horizontal,"(390.0, 762.0)",0.3833333333333333,nan,0,2791.867,0,0.0,same
0,484,catch,"[(1140, 789)]",[],[1],[],horizontal,"(890.0, 262.0)",,"('cti', 1.466),nan",0,2796.348,0,0.02,same
0,485,valid,"[(1161, 802)]",[],[1],[0.85],horizontal,"(390.0, 762.0)",0.9666666666666667,nan,0,2800.862,0,0.02,same
0,486,catch,"[(1142, 784)]",[],[1],[],horizontal,"(390.0, 262.0)",1.7,nan,1,2805.929,1,0.02,same
0,487,valid,"[(1165, 761)]",[],[1],[0.4666666666666667],vertical,"(890.0, 262.0)",1.1166666666666667,0.427,1,2811.382,1,0.02,same
0,488,valid,"[(1179, 777)]",[],[1],[0.85],horizontal,"(890.0, 262.0)",1.1333333333333333,nan,0,2815.848,0,0.02,same
0,489,catch,"[(1135, 776)]",[],[1],[],vertical,"(390.0, 262.0)",1.7,nan,1,2820.564,1,0.02,same
0,490,valid,"[(1175, 760)]",[],[1],[0.55],horizontal,"(890.0, 262.0)",0.8,0.509,1,2825.819,1,0.02,same
0,491,valid,"[(1190, 776)]",[],[1],[0.7333333333333333],vertical,"(390.0, 762.0)",1.25,0.69,1,2830.975,1,0.02,same
0,492,catch,"[(1161, 761)]",[],[1],[],horizontal,"(390.0, 262.0)",1.7,nan,1,2836.075,2,0.02,same
0,493,valid,"[(1165, 766)]",[],[1],[0.6333333333333333],vertical,"(390.0, 262.0)",1.35,0.592,1,2841.601,2,0.02,same
0,494,valid,"[(1165, 791)]",[],[1],[0.6],vertical,"(390.0, 762.0)",0.5833333333333334,0.556,1,2847.257,2,0.02,same
0,495,catch,"[(1164, 767)]",[],[1],[],vertical,"(890.0, 262.0)",1.7,nan,1,2851.947,2,0.02,same
0,496,valid,"[(1165, 766)]",[],[1],[0.5166666666666666],horizontal,"(890.0, 762.0)",0.36666666666666664,0.477,1,2857.338,3,0.02,same
0,497,valid,"[(1161, 777)]",[],[1],[0.5],horizontal,"(390.0, 762.0)",0.36666666666666664,0.456,1,2862.926,3,0.02,same
0,498,valid,"[(1120, 824)]",[],[1],[0.6],vertical,"(890.0, 262.0)",1.1333333333333333,0.56,1,2867.915,3,0.02,same
0,499,catch,"[(1165, 763)]",[],[1],[],vertical,"(890.0, 262.0)",1.7,nan,1,2873.833,3,0.02,same
0,500,invalid_same_bar,"[(1170, 765)]",[],[1],[0.85],horizontal,"(890.0, 762.0)",0.7,nan,0,2879.874,0,0.02,same
0,501,valid,"[(1129, 799)]",[],[1],[0.55],horizontal,"(890.0, 262.0)",1.3333333333333333,0.507,1,2884.415,1,0.02,same
0,502,catch,"[(1120, 786)]","[(1116, 820)]",[1],[0.05],horizontal,"(390.0, 262.0)",,"('bar', 0.067),nan",0,2889.614,0,0.04,same
0,503,valid,"[(1120, 789)]",[],[1],[0.5],vertical,"(390.0, 262.0)",0.5666666666666667,0.462,1,2904.464,1,0.04,same
0,504,valid,"[(1156, 792)]",[],[1],[0.65],vertical,"(390.0, 762.0)",0.4666666666666667,0.611,1,2910.03,1,0.04,same
0,505,valid,"[(1175, 773)]",[],[1],[0.6],vertical,"(890.0, 262.0)",1.0666666666666667,0.555,1,2914.499,1,0.04,same
0,506,valid,"[(1161, 771)]",[],[1],[0.5166666666666666],vertical,"(890.0, 262.0)",1.4333333333333333,0.471,1,2920.001,2,0.04,same
0,507,valid,"[(1176, 777)]",[],[1],[0.5333333333333333],horizontal,"(890.0, 262.0)",0.5833333333333334,0.488,1,2925.499,2,0.04,same
0,508,valid,"[(1165, 770)]",[],[1],[0.55],horizontal,"(390.0, 762.0)",0.8666666666666667,0.517,1,2930.127,2,0.04,same
0,509,valid,"[(1166, 775)]",[],[1],[0.7333333333333333],horizontal,"(890.0, 762.0)",1.1666666666666667,0.692,1,2935.772,2,0.04,same
0,510,valid,"[(1163, 791)]",[],[1],[0.6833333333333333],vertical,"(390.0, 762.0)",1.0666666666666667,0.638,1,2941.366,3,0.04,same
0,511,catch,"[(1170, 765)]",[],[1],[],vertical,"(390.0, 262.0)",1.7,nan,1,2947.332,3,0.04,same
0,512,catch,"[(1175, 790)]",[],[1],[],vertical,"(390.0, 762.0)",1.7,nan,1,2952.858,3,0.04,same
0,513,valid,"[(1164, 780)]",[],[1],[0.5833333333333334],horizontal,"(390.0, 262.0)",0.6666666666666666,0.542,1,2958.899,3,0.04,same
0,514,valid,"[(1168, 781)]",[],[1],[0.2833333333333333],vertical,"(390.0, 262.0)",1.4333333333333333,0.25,1,2964.198,3,0.04,same
0,515,valid,"[(1170, 781)]",[],[1],[0.7333333333333333],vertical,"(390.0, 762.0)",0.95,0.688,1,2970.298,3,0.04,same
0,516,valid,"[(1180, 774)]",[],[1],[0.85],horizontal,"(890.0, 262.0)",0.85,nan,0,2976.611,0,0.04,same
0,517,valid,"[(1156, 774)]",[],[1],[0.5833333333333334],horizontal,"(390.0, 262.0)",1.0666666666666667,0.536,1,2981.161,1,0.04,same
0,518,valid,"[(1180, 787)]",[],[1],[0.6],horizontal,"(890.0, 762.0)",0.6833333333333333,0.56,1,2986.864,1,0.04,same
0,519,valid,"[(1162, 782)]",[],[1],[0.5166666666666666],vertical,"(890.0, 262.0)",0.8333333333333334,0.475,1,2991.314,1,0.04,same
0,520,valid,"[(1170, 781)]",[],[1],[0.65],vertical,"(890.0, 262.0)",1.4333333333333333,0.604,1,2996.091,2,0.04,same
0,521,invalid_same_bar,"[(1172, 781)]",[],[1],[0.6],vertical,"(890.0, 762.0)",0.7333333333333333,0.559,1,3001.764,2,0.04,same
0,522,catch,"[(1170, 768)]",[],[1],[],vertical,"(890.0, 762.0)",1.7,nan,1,3006.681,2,0.04,same
0,523,valid,"[(1169, 796)]",[],[1],[0.5833333333333334],horizontal,"(390.0, 262.0)",1.4,0.535,1,3012.163,2,0.04,same
0,524,valid,"[(1160, 783)]",[],[1],[0.6333333333333333],horizontal,"(390.0, 762.0)",0.8666666666666667,0.591,1,3017.885,3,0.04,same
0,525,valid,"[(1167, 781)]",[],[1],[0.5166666666666666],vertical,"(890.0, 262.0)",0.55,0.477,1,3023.669,3,0.04,same
0,526,valid,"[(1178, 798)]",[],[1],[0.6],horizontal,"(890.0, 262.0)",1.3666666666666667,0.563,1,3029.213,3,0.04,same
0,527,valid,"[(1166, 793)]",[],[1],[0.85],horizontal,"(890.0, 762.0)",1.3,nan,0,3035.498,0,0.04,same
0,528,valid,"[(1159, 791)]",[],[1],[0.55],horizontal,"(390.0, 262.0)",1.3666666666666667,0.509,1,3040.444,1,0.04,same
0,529,valid,"[(1175, 795)]",[],[1],[0.48333333333333334],horizontal,"(890.0, 762.0)",1.2166666666666666,0.439,1,3046.064,1,0.04,same
0,530,valid,"[(1159, 783)]",[],[1],[0.48333333333333334],horizontal,"(390.0, 762.0)",0.6333333333333333,0.447,1,3051.191,1,0.04,same
0,531,catch,"[(1161, 794)]",[],[1],[],horizontal,"(890.0, 762.0)",1.7,nan,1,3055.584,2,0.04,same
0,532,valid,"[(1180, 780)]",[],[1],[0.6166666666666667],vertical,"(890.0, 262.0)",1.3666666666666667,0.574,1,3060.981,2,0.04,same
0,533,catch,"[(1180, 797)]",[],[1],[],vertical,"(890.0, 262.0)",1.7,nan,1,3066.838,2,0.04,same
0,534,valid,"[(1168, 773)]",[],[1],[0.5166666666666666],vertical,"(390.0, 762.0)",1.5,0.475,1,3072.722,2,0.02,same
0,535,catch,"[(1164, 796)]",[],[1],[],vertical,"(890.0, 762.0)",1.7,nan,1,3079.023,3,0.02,same
0,536,catch,"[(1167, 790)]",[],[1],[],horizontal,"(890.0, 262.0)",1.7,nan,1,3085.122,3,0.02,same
0,537,invalid_same_bar,"[(1180, 773)]",[],[1],[0.5],horizontal,"(890.0, 262.0)",0.7666666666666666,0.466,1,3090.957,3,0.02,same
0,538,valid,"[(1180, 770)]",[],[1],[0.5333333333333333],vertical,"(890.0, 262.0)",1.2166666666666666,0.493,1,3096.08,3,0.02,same
0,539,valid,"[(1167, 769)]",[],[1],[0.5166666666666666],horizontal,"(890.0, 262.0)",1.15,0.476,1,3101.924,3,0.02,same
0,540,valid,"[(1177, 791)]",[],[1],[0.5833333333333334],horizontal,"(390.0, 262.0)",0.8,0.542,1,3107.514,3,0.02,same
0,541,catch,"[(1173, 796)]",[],[1],[],horizontal,"(390.0, 262.0)",1.7,nan,1,3112.789,3,0.02,same
0,542,invalid_adjacent_other_bar,"[(1172, 791)]",[],[1],[0.6666666666666666],horizontal,"(890.0, 762.0)",0.6666666666666666,0.622,1,3118.811,3,0.02,other
0,543,valid,"[(1141, 804)]",[],[1],[0.5333333333333333],horizontal,"(890.0, 762.0)",1.0833333333333333,0.496,1,3124.279,3,0.02,same
0,544,catch,"[(1159, 772)]",[],[1],[],horizontal,"(890.0, 262.0)",1.7,nan,1,3130.22,3,0.02,same
0,545,valid,"[(1175, 768)]",[],[1],[0.7166666666666667],vertical,"(890.0, 262.0)",0.9333333333333333,0.672,1,3136.624,3,0.02,same
0,546,valid,"[(1175, 792)]",[],[1],[0.48333333333333334],horizontal,"(890.0, 762.0)",0.9333333333333333,0.447,1,3142.849,3,0.02,same
0,547,catch,"[(1169, 791)]",[],[1],[],horizontal,"(390.0, 762.0)",,"('cti', 1.62),nan",0,3148.865,0,0.04,same
0,548,valid,"[(1140, 783)]",[],[1],[0.5333333333333333],horizontal,"(890.0, 262.0)",0.85,0.501,1,3153.682,1,0.04,same
0,549,catch,"[(1188, 765)]",[],[1],[],horizontal,"(890.0, 762.0)",1.7,nan,1,3158.526,1,0.04,same
0,550,catch,"[(1166, 776)]",[],[1],[],vertical,"(390.0, 262.0)",1.7,nan,1,3163.677,1,0.04,same
0,551,valid,"[(1185, 791)]",[],[1],[0.6166666666666667],horizontal,"(390.0, 762.0)",1.2833333333333332,0.579,1,3168.765,2,0.04,same
0,552,valid,"[(1168, 783)]",[],[1],[0.5833333333333334],vertical,"(390.0, 762.0)",1.35,0.544,1,3174.238,2,0.02,same
0,553,catch,"[(1168, 782)]",[],[1],[],horizontal,"(890.0, 262.0)",,"('cti', 1.345),nan",0,3180.098,0,0.04,same
0,554,valid,"[(1149, 796)]",[],[1],[0.6],horizontal,"(890.0, 762.0)",0.35,0.556,1,3184.247,1,0.04,same
0,555,valid,"[(1174, 777)]",[],[1],[0.5],horizontal,"(390.0, 762.0)",0.5166666666666666,0.465,1,3188.826,1,0.04,same
0,556,invalid_same_bar,"[(1185, 790)]",[],[1],[0.5333333333333333],vertical,"(890.0, 762.0)",1.3666666666666667,0.49,1,3193.596,1,0.04,same
0,557,valid,"[(1174, 792)]",[],[1],[0.5833333333333334],vertical,"(890.0, 762.0)",0.43333333333333335,0.542,1,3199.12,2,0.04,same
0,558,invalid_same_bar,"[(1168, 784)]",[],[1],[0.8333333333333334],horizontal,"(390.0, 262.0)",0.7833333333333333,0.798,1,3204.138,2,0.04,same
0,559,valid,"[(1165, 779)]",[],[1],[0.4666666666666667],horizontal,"(890.0, 262.0)",1.3,0.426,1,3209.93,2,0.04,same
0,560,valid,"[(1165, 778)]",[],[1],[0.5833333333333334],vertical,"(890.0, 262.0)",1.0333333333333332,0.544,1,3215.82,2,0.04,same
0,561,valid,"[(1165, 788)]",[],[1],[0.5166666666666666],vertical,"(390.0, 762.0)",0.5666666666666667,0.482,1,3221.814,3,0.04,same
0,562,valid,"[(1155, 761)]",[],[1],[0.5833333333333334],vertical,"(390.0, 262.0)",0.45,0.544,1,3227.663,3,0.04,same
0,563,valid,"[(1175, 764)]",[],[1],[0.8],horizontal,"(390.0, 262.0)",0.7666666666666666,0.753,1,3232.782,3,0.04,same
0,564,catch,"[(1178, 784)]",[],[1],[],horizontal,"(890.0, 762.0)",1.7,nan,1,3238.85,3,0.04,same
0,565,invalid_adjacent_other_bar,"[(1162, 764)]",[],[1],[0.85],vertical,"(390.0, 762.0)",0.36666666666666664,nan,0,3245.032,0,0.04,other
0,566,valid,"[(1149, 779)]",[],[1],[0.55],vertical,"(890.0, 262.0)",1.1,0.511,1,3249.249,1,0.04,same
0,567,catch,"[(1170, 793)]",[],[1],[],horizontal,"(390.0, 262.0)",1.7,nan,1,3254.731,1,0.04,same
0,568,valid,"[(1155, 790)]",[],[1],[0.5833333333333334],horizontal,"(890.0, 762.0)",0.6666666666666666,0.546,1,3259.965,1,0.04,same
0,569,invalid_same_bar,"[(1174, 782)]",[],[1],[0.5333333333333333],horizontal,"(390.0, 262.0)",0.48333333333333334,0.496,1,3264.374,2,0.04,same
0,570,catch,"[(1180, 776)]",[],[1],[],vertical,"(890.0, 262.0)",1.7,nan,1,3269.349,2,0.04,same
0,571,catch,"[(1180, 786)]",[],[1],[],vertical,"(890.0, 762.0)",1.7,nan,1,3275.098,2,0.04,same
0,572,valid,"[(1180, 765)]",[],[1],[0.5833333333333334],vertical,"(890.0, 262.0)",0.3833333333333333,0.551,1,3280.896,2,0.04,same
0,573,valid,"[(1169, 776)]",[],[1],[0.5166666666666666],vertical,"(390.0, 762.0)",0.8666666666666667,0.478,1,3286.249,3,0.04,same
0,574,catch,"[(1162, 754)]",[],[1],[],vertical,"(390.0, 262.0)",1.7,nan,1,3291.999,3,0.04,same
0,575,valid,"[(1148, 786)]",[],[1],[0.3333333333333333],horizontal,"(890.0, 762.0)",1.4833333333333334,0.295,1,3297.973,3,0.04,same
0,576,valid,"[(1161, 782)]",[],[1],[0.5],vertical,"(390.0, 262.0)",1.2666666666666666,0.457,1,3304.573,3,0.04,same
0,577,valid,"[(1159, 789)]",[],[1],[0.5666666666666667],vertical,"(890.0, 762.0)",0.7666666666666666,0.527,1,3310.981,3,0.04,same
0,578,valid,"[(1175, 794)]",[],[1],[0.5166666666666666],vertical,"(390.0, 762.0)",1.0,0.484,1,3316.789,3,0.04,same
0,579,catch,"[(1176, 768)]",[],[1],[],horizontal,"(390.0, 762.0)",1.7,nan,1,3322.366,3,0.04,same
0,580,valid,"[(1177, 781)]",[],[1],[0.5333333333333333],vertical,"(390.0, 262.0)",0.4166666666666667,0.491,1,3328.345,3,0.04,same
0,581,catch,"[(1169, 766)]",[],[1],[],vertical,"(890.0, 762.0)",1.7,nan,1,3333.234,3,0.04,same
0,582,valid,"[(1180, 782)]",[],[1],[0.55],horizontal,"(390.0, 262.0)",0.7666666666666666,0.509,1,3339.099,3,0.04,same
0,583,valid,"[(1183, 772)]",[],[1],[0.5166666666666666],vertical,"(890.0, 262.0)",0.4,0.478,1,3344.965,3,0.04,same
0,584,catch,"[(1162, 779)]",[],[1],[],horizontal,"(890.0, 262.0)",1.7,nan,1,3350.311,3,0.04,same
0,585,valid,"[(1169, 791)]",[],[1],[0.6333333333333333],horizontal,"(890.0, 762.0)",0.9833333333333333,0.596,1,3356.0,3,0.04,same
0,586,valid,"[(1165, 792)]",[],[1],[0.85],horizontal,"(390.0, 262.0)",0.9166666666666666,nan,0,3361.981,0,0.04,same
0,587,valid,"[(1119, 778)]",[],[1],[0.85],vertical,"(390.0, 262.0)",0.4666666666666667,nan,0,3366.433,0,0.04,same
0,588,catch,"[(1129, 787)]",[],[1],[],horizontal,"(390.0, 762.0)",1.7,nan,1,3371.077,1,0.04,same
0,589,valid,"[(1179, 793)]",[],[1],[0.48333333333333334],vertical,"(890.0, 262.0)",1.2333333333333334,0.441,1,3376.337,1,0.04,same
0,590,valid,"[(1138, 815)]",[],[1],[0.5833333333333334],vertical,"(390.0, 262.0)",0.9333333333333333,0.536,1,3381.663,1,0.04,same
0,591,catch,"[(1175, 766)]",[],[1],[],horizontal,"(390.0, 262.0)",1.7,nan,1,3386.965,2,0.04,same
0,592,valid,"[(1185, 777)]",[],[1],[0.85],horizontal,"(390.0, 262.0)",0.48333333333333334,nan,0,3392.642,0,0.04,same
0,593,valid,"[(1149, 762)]",[],[1],[0.5166666666666666],horizontal,"(390.0, 262.0)",0.7333333333333333,0.469,1,3397.139,1,0.04,same
0,594,valid,"[(1161, 785)]",[],[1],[0.6],horizontal,"(390.0, 762.0)",1.3166666666666667,0.553,1,3401.982,1,0.04,same
0,595,invalid_adjacent_other_bar,"[(1163, 777)]",[],[1],[0.5333333333333333],horizontal,"(890.0, 262.0)",0.5333333333333333,0.49,1,3407.498,1,0.04,other
0,596,catch,"[(1175, 798)]",[],[1],[],vertical,"(390.0, 762.0)",1.7,nan,1,3411.847,2,0.04,same
0,597,valid,"[(1181, 792)]",[],[1],[0.7],vertical,"(390.0, 262.0)",1.2666666666666666,0.656,1,3417.149,2,0.02,same
0,598,valid,"[(1169, 783)]",[],[1],[0.5833333333333334],vertical,"(390.0, 262.0)",1.0,0.54,1,3422.884,2,0.02,same
0,599,valid,"[(1175, 779)]",[],[1],[0.5166666666666666],horizontal,"(890.0, 762.0)",1.0,0.474,1,3428.481,2,0.02,same
0,600,catch,"[(1099, 811)]",[],[1],[],vertical,"(390.0, 762.0)",,"('fix', 0.442),nan",0,3433.73,0,0.04,same
0,601,valid,"[(1112, 829)]",[],[1],[0.6833333333333333],vertical,"(390.0, 762.0)",1.1666666666666667,0.647,1,3435.957,1,0.04,same
0,602,valid,"[(1131, 806)]",[],[1],[0.48333333333333334],horizontal,"(890.0, 262.0)",1.5,0.441,1,3458.677,1,0.04,same
0,603,valid,"[(1180, 792)]",[],[1],[0.48333333333333334],vertical,"(890.0, 262.0)",0.55,0.444,1,3464.231,1,0.02,same
0,604,catch,"[(1168, 778)]",[],[1],[],vertical,"(390.0, 262.0)",1.7,nan,1,3468.787,2,0.02,same
0,605,invalid_same_bar,"[(1179, 789)]",[],[1],[0.85],horizontal,"(390.0, 262.0)",0.6833333333333333,nan,0,3474.203,0,0.02,same
0,606,catch,"[(1148, 763)]",[],[1],[],horizontal,"(390.0, 262.0)",1.7,nan,1,3478.339,1,0.02,same
0,607,valid,"[(1175, 786)]",[],[1],[0.6],horizontal,"(390.0, 762.0)",1.0333333333333332,0.557,1,3483.655,1,0.02,same
0,608,catch,"[(1179, 782)]",[],[1],[],horizontal,"(390.0, 262.0)",1.7,nan,1,3488.732,1,0.02,same
0,609,invalid_same_bar,"[(1155, 773)]",[],[1],[0.5833333333333334],horizontal,"(890.0, 762.0)",0.5833333333333334,0.542,1,3494.109,2,0.02,same
0,610,valid,"[(1170, 767)]",[],[1],[0.5],vertical,"(390.0, 762.0)",0.6333333333333333,0.456,1,3499.111,2,0.02,same
0,611,valid,"[(1190, 796)]",[],[1],[0.5833333333333334],horizontal,"(390.0, 762.0)",1.4666666666666666,0.541,1,3504.116,2,0.02,same
0,612,valid,"[(1188, 785)]",[],[1],[0.6],horizontal,"(890.0, 762.0)",1.2833333333333332,0.559,1,3509.898,2,0.02,same
0,613,valid,"[(1168, 811)]",[],[1],[0.85],horizontal,"(390.0, 262.0)",0.8,nan,0,3515.626,0,0.02,same
0,614,valid,"[(1135, 791)]",[],[1],[0.5166666666666666],horizontal,"(390.0, 262.0)",1.1166666666666667,0.471,1,3520.353,1,0.02,same
0,615,valid,"[(1175, 782)]",[],[1],[0.7833333333333333],horizontal,"(890.0, 762.0)",0.6166666666666667,0.734,1,3525.082,1,0.02,same
0,616,valid,"[(1175, 776)]",[],[1],[0.48333333333333334],vertical,"(890.0, 262.0)",0.5833333333333334,0.443,1,3529.798,1,0.02,same
0,617,valid,"[(1200, 803)]",[],[1],[0.5666666666666667],horizontal,"(890.0, 262.0)",0.9,0.536,1,3534.234,2,0.02,same
0,618,valid,"[(1162, 791)]",[],[1],[0.2833333333333333],vertical,"(390.0, 762.0)",0.9833333333333333,0.247,1,3539.932,2,0.02,same
0,619,valid,"[(1180, 770)]",[],[1],[0.8],horizontal,"(390.0, 262.0)",1.3,0.754,1,3545.282,2,0.02,same
0,620,catch,"[(1181, 775)]",[],[1],[],vertical,"(890.0, 262.0)",1.7,nan,1,3551.227,2,0.02,same
0,621,catch,"[(1165, 759)]",[],[1],[],horizontal,"(890.0, 262.0)",1.7,nan,1,3557.03,3,0.02,same
0,622,valid,"[(1180, 783)]",[],[1],[0.5833333333333334],horizontal,"(390.0, 762.0)",1.1166666666666667,0.537,1,3563.259,3,0.02,same
0,623,valid,"[(1195, 795)]",[],[1],[0.6],vertical,"(890.0, 762.0)",0.35,0.555,1,3568.992,3,0.02,same
0,624,catch,"[(1181, 780)]",[],[1],[],horizontal,"(890.0, 762.0)",1.7,nan,1,3574.435,3,0.02,same
0,625,invalid_adjacent_other_bar,"[(1140, 781)]",[],[1],[0.5333333333333333],vertical,"(890.0, 762.0)",0.48333333333333334,0.494,1,3580.461,3,0.02,other
0,626,valid,"[(1110, 841)]",[],[1],[0.85],vertical,"(890.0, 762.0)",0.35,nan,0,3585.799,0,0.02,same
0,627,valid,"[(1111, 798)]",[],[1],[0.6666666666666666],horizontal,"(390.0, 262.0)",1.25,0.627,1,5354.678,1,0.02,same
0,628,valid,"[(1174, 791)]",[],[1],[0.6333333333333333],horizontal,"(390.0, 262.0)",1.0333333333333332,0.59,1,5381.531,1,0.02,same
0,629,valid,"[(1162, 773)]",[],[1],[0.6],horizontal,"(390.0, 262.0)",1.0666666666666667,0.564,1,5386.703,1,0.02,same
0,630,valid,"[(1160, 770)]",[],[1],[0.5333333333333333],vertical,"(890.0, 762.0)",0.65,0.5,1,5392.101,2,0.02,same
0,631,valid,"[(1160, 776)]",[],[1],[0.48333333333333334],horizontal,"(890.0, 262.0)",0.8,0.448,1,5397.31,2,0.02,same
0,632,catch,"[(1118, 804)]",[],[1],[],vertical,"(890.0, 262.0)",1.7,nan,1,5402.474,2,0.02,same
0,633,valid,"[(1157, 820)]",[],[1],[0.5333333333333333],horizontal,"(390.0, 762.0)",0.9666666666666667,0.496,1,5434.399,2,0.02,same
0,634,valid,"[(1174, 791)]",[],[1],[0.6],vertical,"(390.0, 762.0)",0.45,0.559,1,5439.852,3,0.02,same
0,635,valid,"[(1175, 791)]",[],[1],[0.5166666666666666],horizontal,"(390.0, 262.0)",1.1,0.479,1,5445.285,3,0.02,same
0,636,catch,"[(1179, 796)]",[],[1],[],horizontal,"(390.0, 262.0)",,"('cti', 1.112),nan",0,5451.103,0,0.04,same
0,637,valid,"[(1137, 789)]",[],[1],[0.48333333333333334],horizontal,"(890.0, 262.0)",0.7333333333333333,0.445,1,5455.568,1,0.04,same
0,638,valid,"[(1175, 793)]",[],[1],[0.3833333333333333],horizontal,"(890.0, 762.0)",1.3666666666666667,0.348,1,5460.585,1,0.04,same
0,639,valid,"[(1167, 798)]",[],[1],[0.5],horizontal,"(890.0, 762.0)",0.55,0.465,1,5465.67,1,0.04,same
0,640,valid,"[(1166, 778)]",[],[1],[0.7166666666666667],horizontal,"(390.0, 762.0)",0.36666666666666664,0.674,1,5469.985,2,0.04,same
0,641,valid,"[(1180, 776)]",[],[1],[0.6],horizontal,"(390.0, 762.0)",1.0666666666666667,0.568,1,5475.002,2,0.04,same
0,642,valid,"[(1183, 798)]",[],[1],[0.48333333333333334],vertical,"(890.0, 262.0)",0.9166666666666666,0.439,1,5479.986,2,0.04,same
0,643,valid,"[(1165, 802)]",[],[1],[0.5333333333333333],horizontal,"(890.0, 262.0)",0.45,0.501,1,5485.335,2,0.04,same
0,644,catch,"[(1167, 787)]",[],[1],[],vertical,"(390.0, 762.0)",,"('cti', 1.594),nan",0,5490.551,0,0.06,same
0,645,catch,"[(1157, 791)]",[],[1],[],vertical,"(890.0, 762.0)",1.7,nan,1,5495.089,1,0.06,same
0,646,valid,"[(1165, 790)]",[],[1],[0.6],vertical,"(890.0, 262.0)",1.2666666666666666,0.558,1,5499.919,1,0.06,same
0,647,valid,"[(1177, 788)]",[],[1],[0.4666666666666667],vertical,"(390.0, 262.0)",1.35,0.432,1,5504.893,1,0.06,same
0,648,catch,"[(1165, 786)]",[],[1],[],horizontal,"(890.0, 762.0)",1.7,nan,1,5510.235,2,0.06,same
0,649,invalid_same_bar,"[(1170, 801)]",[],[1],[0.55],vertical,"(390.0, 262.0)",0.5666666666666667,0.515,1,5515.568,2,0.06,same
0,650,valid,"[(1109, 822)]",[],[1],[0.6],horizontal,"(890.0, 262.0)",0.4,0.555,1,5520.458,2,0.04,same
0,651,valid,"[(1160, 770)]",[],[1],[0.4666666666666667],vertical,"(890.0, 262.0)",0.35,0.428,1,5574.168,2,0.04,same
0,652,valid,"[(1132, 776)]",[],[1],[0.5666666666666667],horizontal,"(890.0, 262.0)",0.9833333333333333,0.529,1,5578.835,3,0.04,same
0,653,valid,"[(1165, 769)]",[],[1],[0.5],vertical,"(390.0, 762.0)",0.9333333333333333,0.459,1,5585.042,3,0.04,same
0,654,valid,"[(1171, 791)]",[],[1],[0.48333333333333334],horizontal,"(390.0, 262.0)",0.8,0.446,1,5590.685,3,0.04,same
0,655,valid,"[(1169, 774)]",[],[1],[0.5],vertical,"(890.0, 262.0)",1.0166666666666666,0.454,1,5596.123,3,0.04,same
0,656,valid,"[(1161, 775)]",[],[1],[0.6],horizontal,"(390.0, 762.0)",0.6166666666666667,0.556,1,5601.978,3,0.04,same
0,657,invalid_adjacent_other_bar,"[(1141, 774)]",[],[1],[0.5],vertical,"(890.0, 762.0)",0.5833333333333334,0.455,1,5607.54,3,0.04,other
0,658,invalid_adjacent_other_bar,"[(1167, 771)]",[],[1],[0.5833333333333334],horizontal,"(390.0, 762.0)",1.15,0.54,1,5612.652,3,0.04,other
0,659,invalid_same_bar,"[(1165, 782)]",[],[1],[0.85],horizontal,"(890.0, 262.0)",0.6166666666666667,nan,0,5618.602,0,0.04,same
0,660,invalid_same_bar,"[(1148, 788)]",[],[1],[0.6],vertical,"(890.0, 762.0)",0.3833333333333333,0.553,1,5622.935,1,0.04,same
0,661,valid,"[(1167, 767)]",[],[1],[],vertical,"(390.0, 762.0)",,"('cti', 1.284)",0,5627.302,0,0.04,same
0,662,valid,"[(1160, 777)]",[],[1],[0.5166666666666666],horizontal,"(390.0, 762.0)",0.6333333333333333,0.475,1,5631.714,1,0.04,same
0,663,valid,"[(1165, 780)]",[],[1],[0.4166666666666667],horizontal,"(390.0, 762.0)",1.1833333333333333,0.372,1,5636.168,1,0.04,same
0,664,catch,"[(1164, 769)]",[],[1],[],vertical,"(390.0, 762.0)",,"('cti', 1.513),nan",0,5641.394,0,0.06,same
0,665,valid,"[(1166, 807)]",[],[1],[0.65],vertical,"(390.0, 262.0)",0.5333333333333333,0.604,1,5645.852,1,0.06,same
0,666,valid,"[(1161, 796)]",[],[1],[0.5333333333333333],horizontal,"(890.0, 762.0)",1.4333333333333333,0.499,1,5651.968,1,0.06,same
0,667,valid,"[(1163, 775)]",[],[1],[0.5833333333333334],vertical,"(390.0, 262.0)",0.45,0.534,1,5657.28,1,0.06,same
0,668,catch,"[(1163, 772)]",[],[1],[],horizontal,"(390.0, 262.0)",1.7,nan,1,5661.501,2,0.06,same
0,669,catch,"[(1164, 778)]",[],[1],[],vertical,"(890.0, 262.0)",1.7,nan,1,5666.988,2,0.06,same
0,670,valid,"[(1180, 802)]",[],[1],[0.5833333333333334],vertical,"(390.0, 762.0)",0.9,0.544,1,5672.885,2,0.06,same
0,671,valid,"[(1175, 778)]",[],[1],[0.5333333333333333],horizontal,"(390.0, 262.0)",1.1833333333333333,0.488,1,5678.385,2,0.06,same
0,672,catch,"[(1167, 778)]",[],[1],[],horizontal,"(890.0, 762.0)",1.7,nan,1,5683.987,3,0.06,same
0,673,valid,"[(1170, 799)]",[],[1],[0.85],vertical,"(890.0, 762.0)",0.4666666666666667,nan,0,5690.298,0,0.06,same
0,674,catch,"[(1141, 777)]",[],[1],[],horizontal,"(390.0, 762.0)",1.7,nan,1,5694.228,1,0.06,same
0,675,valid,"[(1162, 796)]",[],[1],[0.7],vertical,"(890.0, 762.0)",0.36666666666666664,0.657,1,5699.919,1,0.06,same
0,676,valid,"[(1163, 779)]",[],[1],[0.5],vertical,"(390.0, 262.0)",0.6,0.457,1,5704.351,1,0.06,same
0,677,valid,"[(1130, 821)]",[],[1],[0.55],horizontal,"(890.0, 262.0)",1.2666666666666666,0.51,1,5708.96,2,0.06,same
0,678,valid,"[(1165, 785)]",[],[1],[0.5166666666666666],vertical,"(890.0, 262.0)",1.1333333333333333,0.475,1,5715.501,2,0.06,same
0,679,valid,"[(1165, 786)]",[],[1],[0.5333333333333333],vertical,"(890.0, 762.0)",1.3333333333333333,0.493,1,5720.862,2,0.06,same
0,680,catch,"[(1157, 789)]",[],[1],[],vertical,"(890.0, 262.0)",1.7,nan,1,5727.018,2,0.06,same
0,681,catch,"[(1162, 764)]",[],[1],[],horizontal,"(390.0, 762.0)",1.7,nan,1,5732.719,3,0.06,same
0,682,valid,"[(1165, 774)]",[],[1],[0.5],horizontal,"(890.0, 762.0)",1.4333333333333333,0.463,1,5739.056,3,0.06,same
0,683,valid,"[(1166, 772)]",[],[1],[],horizontal,"(390.0, 762.0)",,"('cti', 0.47)",0,5744.961,0,0.06,same
0,684,valid,"[(1141, 794)]",[],[1],[0.4666666666666667],vertical,"(390.0, 262.0)",1.0833333333333333,0.43,1,5748.669,1,0.06,same
0,685,invalid_adjacent_other_bar,"[(1165, 786)]",[],[1],[0.55],horizontal,"(390.0, 762.0)",1.5166666666666666,0.512,1,5754.102,1,0.06,other
0,686,catch,"[(1147, 794)]",[],[1],[],vertical,"(390.0, 262.0)",1.7,"('cti', 1.669),nan",0,5759.269,0,0.06,same
0,687,valid,"[(1148, 769)]",[],[1],[0.5833333333333334],horizontal,"(390.0, 262.0)",0.6833333333333333,0.542,1,5764.135,1,0.06,same
0,688,invalid_same_bar,"[(1172, 779)]",[],[1],[0.7166666666666667],vertical,"(890.0, 762.0)",0.8666666666666667,0.671,1,5769.217,1,0.06,same
0,689,valid,"[(1164, 766)]",[],[1],[0.7],horizontal,"(890.0, 262.0)",1.0833333333333333,0.652,1,5774.493,1,0.06,same
0,690,invalid_same_bar,"[(1021, 812)]",[],[1],[0.43333333333333335],vertical,"(390.0, 762.0)",1.0166666666666666,0.394,1,5779.485,2,0.06,same
0,691,catch,"[(1118, 819)]",[],[1],[],horizontal,"(890.0, 762.0)",1.7,nan,1,5788.61,2,0.06,same
0,692,valid,"[(1140, 801)]",[],[1],[0.5166666666666666],horizontal,"(390.0, 762.0)",1.2666666666666666,0.469,1,5794.269,2,0.06,same
0,693,valid,"[(1139, 822)]",[],[1],[0.5],horizontal,"(890.0, 262.0)",1.4,0.464,1,5800.185,2,0.06,same
0,694,valid,"[(1140, 743), (1102, 806)]",[],"[0, 1]",[0.35],horizontal,"(890.0, 262.0)",0.9833333333333333,0.311,1,5806.169,3,0.04,same
0,695,valid,"[(1160, 789)]",[],[1],[0.5166666666666666],vertical,"(890.0, 762.0)",0.3833333333333333,0.477,1,5814.198,3,0.04,same
0,696,valid,"[(1132, 790)]",[],[1],[0.5333333333333333],vertical,"(890.0, 762.0)",0.85,0.496,1,5819.469,3,0.04,same
0,697,invalid_adjacent_other_bar,"[(1171, 772)]",[],[1],[0.55],vertical,"(890.0, 262.0)",0.5333333333333333,0.51,1,5824.784,3,0.04,other
0,698,valid,"[(1127, 791)]",[],[1],[0.5166666666666666],vertical,"(390.0, 262.0)",0.9,0.477,1,5830.302,3,0.04,same
0,699,catch,"[(1160, 767)]",[],[1],[],vertical,"(390.0, 262.0)",1.7,nan,1,5836.219,3,0.04,same
0,700,catch,"[(1162, 779)]",[],[1],[],vertical,"(390.0, 762.0)",1.7,nan,1,5842.619,3,0.04,same
0,701,valid,"[(1145, 772)]",[],[1],[0.5333333333333333],vertical,"(390.0, 262.0)",0.55,0.495,1,5848.327,3,0.04,same
0,702,invalid_adjacent_other_bar,"[(1143, 783)]",[],[1],[0.5],horizontal,"(890.0, 262.0)",1.4833333333333334,0.458,1,5853.336,3,0.04,other
0,703,valid,"[(1168, 789)]",[],[1],[],horizontal,"(390.0, 762.0)",,"('fix', 0.64)",0,5859.452,0,0.04,same
0,704,valid,"[(1111, 820)]",[],[1],[0.85],vertical,"(890.0, 262.0)",0.8333333333333334,nan,0,5861.599,0,0.04,same
0,705,catch,"[(1100, 805)]",[],[1],[],vertical,"(390.0, 762.0)",1.7,nan,1,6212.02,1,0.04,same
0,706,valid,"[(1171, 781)]",[],[1],[0.7166666666666667],vertical,"(390.0, 262.0)",1.1166666666666667,0.669,1,6217.152,1,0.04,same
0,707,valid,"[(1162, 790)]",[],[1],[0.85],vertical,"(390.0, 762.0)",0.7,nan,0,6222.277,0,0.04,same
0,708,invalid_adjacent_other_bar,"[(1114, 800)]",[],[1],[0.7666666666666666],horizontal,"(390.0, 762.0)",0.85,0.719,1,6226.586,1,0.04,other
0,709,catch,"[(1160, 777)]",[],[1],[],horizontal,"(890.0, 262.0)",1.7,nan,1,6231.565,1,0.04,same
0,710,valid,"[(1162, 793)]",[],[1],[0.6833333333333333],vertical,"(390.0, 762.0)",0.4666666666666667,0.646,1,6236.911,1,0.04,same
0,711,catch,"[(1180, 770)]",[],[1],[],horizontal,"(890.0, 762.0)",1.7,nan,1,6241.604,2,0.04,same
0,712,valid,"[(1162, 770)]",[],[1],[0.55],horizontal,"(890.0, 262.0)",1.4833333333333334,0.505,1,6247.152,2,0.04,same
0,713,valid,"[(1176, 778)]",[],[1],[0.5666666666666667],horizontal,"(390.0, 262.0)",1.0833333333333333,0.52,1,6253.144,2,0.04,same
0,714,invalid_adjacent_other_bar,"[(1137, 785)]",[],[1],[0.4],horizontal,"(390.0, 762.0)",1.45,0.36,1,6258.945,2,0.02,other
0,715,valid,"[(1165, 808)]",[],[1],[0.5],vertical,"(390.0, 762.0)",0.65,0.463,1,6265.011,3,0.02,same
0,716,valid,"[(1165, 785)]",[],[1],[0.5666666666666667],vertical,"(390.0, 262.0)",1.1,0.526,1,6270.729,3,0.02,same
0,717,valid,"[(1160, 794)]",[],[1],[0.4666666666666667],horizontal,"(890.0, 262.0)",1.05,0.432,1,6276.289,3,0.02,same
0,718,valid,"[(1149, 781)]",[],[1],[0.5666666666666667],vertical,"(890.0, 762.0)",0.7333333333333333,0.529,1,6281.769,3,0.02,same
0,719,valid,"[(1164, 804)]",[],[1],[0.5833333333333334],horizontal,"(390.0, 762.0)",0.6833333333333333,0.543,1,6287.177,3,0.02,same
0,720,catch,"[(1135, 782)]",[],[1],[],vertical,"(390.0, 262.0)",1.7,nan,1,6292.676,3,0.02,same
0,721,catch,"[(1160, 775)]",[],[1],[],vertical,"(390.0, 262.0)",1.7,nan,1,6298.363,3,0.02,same
0,722,catch,"[(1165, 782)]",[],[1],[],horizontal,"(890.0, 762.0)",1.7,nan,1,6304.186,3,0.02,same
0,723,valid,"[(1155, 792)]",[],[1],[0.55],vertical,"(890.0, 762.0)",0.48333333333333334,0.507,1,6310.554,3,0.02,same
0,724,catch,"[(1163, 776)]",[],[1],[],horizontal,"(890.0, 762.0)",1.7,nan,1,6316.254,3,0.02,same
0,725,valid,"[(1165, 772)]",[],[1],[0.6333333333333333],vertical,"(390.0, 762.0)",1.2166666666666666,0.592,1,6321.853,3,0.02,same
0,726,valid,"[(1169, 795)]",[],[1],[0.7333333333333333],horizontal,"(890.0, 762.0)",1.1333333333333333,0.691,1,6327.709,3,0.02,same
0,727,invalid_adjacent_other_bar,"[(1159, 791)]",[],[1],[0.6166666666666667],vertical,"(390.0, 262.0)",1.45,0.576,1,6333.82,3,0.02,other
0,728,valid,"[(1138, 788)]",[],[1],[0.5333333333333333],vertical,"(390.0, 262.0)",0.4,0.492,1,6339.565,3,0.02,same
0,729,valid,"[(1160, 801)]",[],[1],[0.7333333333333333],vertical,"(890.0, 262.0)",0.7833333333333333,0.688,1,6344.877,3,0.02,same
0,730,valid,"[(1165, 773)]",[],[1],[0.45],vertical,"(890.0, 262.0)",1.5166666666666666,0.412,1,6350.668,3,0.02,same
0,731,catch,"[(1179, 792)]",[],[1],[],vertical,"(890.0, 762.0)",1.7,nan,1,6356.688,3,0.02,same
0,732,invalid_same_bar,"[(1162, 769)]",[],[1],[0.4666666666666667],horizontal,"(390.0, 762.0)",1.4166666666666667,0.436,1,6363.061,3,0.02,same
0,733,valid,"[(1150, 791)]",[],[1],[0.16666666666666666],vertical,"(390.0, 262.0)",1.1666666666666667,0.132,0,6369.331,0,0.02,same
0,734,valid,"[(1145, 773)]",[],[1],[0.5333333333333333],horizontal,"(390.0, 262.0)",0.9166666666666666,0.501,1,6373.678,1,0.02,same
0,735,valid,"[(1178, 792)]",[],[1],[0.6833333333333333],vertical,"(390.0, 262.0)",0.9333333333333333,0.642,1,6378.5,1,0.02,same
0,736,catch,"[(1164, 785)]",[],[1],[],horizontal,"(890.0, 762.0)",1.7,nan,1,6383.576,1,0.0,same
0,737,valid,"[(1150, 763)]",[],[1],[0.5166666666666666],horizontal,"(890.0, 262.0)",1.3166666666666667,0.479,1,6388.839,2,0.0,same
0,738,valid,"[(1170, 786)]",[],[1],[0.5333333333333333],vertical,"(890.0, 762.0)",1.0166666666666666,0.497,1,6394.603,2,0.0,same
0,739,valid,"[(1150, 796)]",[],[1],[0.4666666666666667],horizontal,"(390.0, 762.0)",1.3166666666666667,0.426,1,6399.805,2,0.0,same
0,740,catch,"[(1161, 786)]",[],[1],[],vertical,"(890.0, 262.0)",1.7,nan,1,6405.542,2,0.0,same
0,741,invalid_same_bar,"[(1156, 796)]",[],[1],[0.5166666666666666],vertical,"(890.0, 762.0)",1.45,0.476,1,6410.92,3,0.0,same
0,742,catch,"[(1158, 756)]",[],[1],[],horizontal,"(390.0, 262.0)",1.7,nan,1,6417.005,3,0.0,same
0,743,valid,"[(1156, 787)]",[],[1],[0.6833333333333333],vertical,"(390.0, 762.0)",1.15,0.641,1,6422.654,3,0.0,same
0,744,catch,"[(1169, 794)]",[],[1],[],vertical,"(390.0, 262.0)",,"('cti', 1.146),nan",0,6428.299,0,0.02,same
0,745,valid,"[(1135, 779)]",[],[1],[0.55],vertical,"(390.0, 762.0)",1.0666666666666667,0.513,1,6432.8,1,0.02,same
0,746,valid,"[(1170, 769)]",[],[1],[0.85],vertical,"(390.0, 762.0)",0.55,nan,0,6437.822,0,0.02,same
0,747,invalid_adjacent_other_bar,"[(1155, 806)]",[],[1],[],vertical,"(890.0, 262.0)",,"('cti', 0.571)",0,6442.387,0,0.02,other
0,748,invalid_same_bar,"[(1170, 782)]",[],[1],[0.11666666666666667],horizontal,"(890.0, 762.0)",1.3666666666666667,0.084,0,6446.207,0,0.02,same
0,749,valid,"[(1140, 789)]",[],[1],[0.5666666666666667],horizontal,"(390.0, 762.0)",0.6,0.523,1,6450.886,1,0.02,same
0,750,valid,"[(1185, 779)]",[],[1],[0.5333333333333333],horizontal,"(890.0, 262.0)",0.48333333333333334,0.488,1,6455.771,1,0.02,same
0,751,valid,"[(1145, 830)]",[],[1],[0.85],horizontal,"(890.0, 262.0)",0.36666666666666664,"('fix', 0.773),nan",0,6460.003,0,0.02,same
0,752,valid,"[(1101, 808)]",[],[1],[0.43333333333333335],horizontal,"(390.0, 762.0)",1.5166666666666666,0.402,1,6464.303,1,0.02,same
0,753,catch,"[(1112, 820)]",[],[1],[],vertical,"(890.0, 762.0)",1.7,nan,1,6595.508,1,0.02,same
0,754,catch,"[(1100, 843)]",[],[1],[],vertical,"(390.0, 762.0)",1.7,nan,1,8337.623,1,0.02,same
0,755,valid,"[(1128, 806)]",[],[1],[0.85],vertical,"(890.0, 262.0)",0.5166666666666666,nan,0,8344.048,0,0.02,same
0,756,valid,"[(1115, 820)]",[],[1],[0.65],vertical,"(390.0, 762.0)",0.45,0.603,1,8348.806,1,0.02,same
0,757,valid,"[(1137, 774)]",[],[1],[0.48333333333333334],horizontal,"(890.0, 262.0)",1.5,0.445,1,8353.434,1,0.02,same
0,758,valid,"[(1146, 751), (996, 970), (1115, 803)]",[],"[0, 0, 1]",[0.85],vertical,"(390.0, 762.0)",0.4166666666666667,nan,0,8359.089,0,0.02,same
0,759,catch,"[(1135, 820)]",[],[1],[],vertical,"(390.0, 262.0)",1.7,nan,1,8365.823,1,0.02,same
0,760,valid,"[(1107, 808)]",[],[1],[0.6666666666666666],horizontal,"(390.0, 762.0)",1.4833333333333334,0.626,1,8371.459,1,0.02,same
0,761,catch,"[(1143, 772)]",[],[1],[],vertical,"(890.0, 762.0)",1.7,nan,1,8377.757,1,0.02,same
0,762,valid,"[(1162, 796)]",[],[1],[0.85],vertical,"(890.0, 762.0)",0.8666666666666667,nan,0,8383.04,0,0.02,same
0,763,valid,"[(1090, 803)]",[],[1],[0.85],horizontal,"(390.0, 262.0)",0.6166666666666667,nan,0,8387.924,0,0.02,same
0,764,valid,"[(1106, 782)]",[],[1],[0.7333333333333333],vertical,"(890.0, 762.0)",0.8,0.694,1,8393.369,1,0.02,same
0,765,catch,"[(1133, 816)]",[],[1],[],vertical,"(890.0, 262.0)",1.7,nan,1,8398.592,1,0.02,same
0,766,catch,"[(1137, 773)]",[],[1],[],horizontal,"(890.0, 262.0)",1.7,nan,1,8403.892,1,0.02,same
0,767,valid,"[(1165, 820)]",[],[1],[0.6833333333333333],horizontal,"(890.0, 262.0)",0.9333333333333333,0.64,1,8409.106,2,0.02,same
0,768,catch,"[(1168, 777)]",[],[1],[],vertical,"(890.0, 762.0)",1.7,nan,1,8414.535,2,0.02,same
0,769,valid,"[(1150, 786)]",[],[1],[0.6166666666666667],horizontal,"(390.0, 762.0)",0.48333333333333334,0.569,1,8420.094,2,0.02,same
0,770,valid,"[(1158, 794)]",[],[1],[0.85],vertical,"(390.0, 762.0)",1.5333333333333332,nan,0,8425.423,0,0.02,same
0,771,valid,"[(1124, 795)]",[],[1],[0.5666666666666667],horizontal,"(890.0, 262.0)",0.9,0.52,1,8430.792,1,0.02,same
0,772,catch,"[(1160, 772)]",[],[1],[],horizontal,"(390.0, 262.0)",1.7,nan,1,8435.678,1,0.02,same
0,773,valid,"[(1185, 769)]",[],[1],[0.7166666666666667],horizontal,"(890.0, 762.0)",1.2166666666666666,0.67,1,8440.989,1,0.02,same
0,774,valid,"[(1182, 760)]",[],[1],[0.5666666666666667],horizontal,"(390.0, 762.0)",1.15,0.522,1,8446.256,2,0.02,same
0,775,valid,"[(1165, 794)]",[],[1],[0.43333333333333335],horizontal,"(890.0, 762.0)",0.6333333333333333,0.396,1,8451.703,2,0.02,same
0,776,valid,"[(1161, 785)]",[],[1],[0.6166666666666667],vertical,"(890.0, 262.0)",0.8166666666666667,0.57,1,8457.1,2,0.02,same
0,777,invalid_same_bar,"[(1115, 780)]",[],[1],[0.85],horizontal,"(390.0, 262.0)",0.4666666666666667,nan,0,8462.423,0,0.02,same
0,778,catch,"[(1081, 815)]",[],[1],[],vertical,"(390.0, 762.0)",1.7,nan,1,8466.762,1,0.02,same
0,779,valid,"[(1163, 784)]",[],[1],[0.85],horizontal,"(390.0, 762.0)",0.35,nan,0,8475.36,0,0.02,same
0,780,valid,"[(1115, 766)]",[],[1],[0.6166666666666667],vertical,"(890.0, 262.0)",0.9,0.575,1,8479.591,1,0.02,same
0,781,valid,"[(1117, 761)]",[],[1],[0.85],horizontal,"(390.0, 762.0)",1.3333333333333333,nan,0,8484.274,0,0.02,same
0,782,valid,"[(1121, 775)]",[],[1],[0.85],horizontal,"(390.0, 762.0)",1.2833333333333332,nan,0,8489.21,0,0.02,same
0,783,valid,"[(1080, 776)]",[],[1],[0.6333333333333333],vertical,"(890.0, 762.0)",0.6833333333333333,0.601,1,8494.112,1,0.02,same
0,784,invalid_same_bar,"[(1164, 773)]",[],[1],[0.65],vertical,"(390.0, 762.0)",1.3333333333333333,0.616,1,8500.24,1,0.02,same
0,785,valid,"[(1153, 777)]",[],[1],[0.4],vertical,"(390.0, 762.0)",0.95,0.361,1,8505.824,1,0.02,same
0,786,valid,"[(1161, 780)]",[],[1],[0.65],vertical,"(890.0, 262.0)",0.5833333333333334,0.623,1,8510.806,2,0.02,same
0,787,valid,"[(1130, 801)]",[],[1],[0.7166666666666667],horizontal,"(390.0, 262.0)",0.6333333333333333,0.672,1,8515.64,2,0.02,same
0,788,valid,"[(1160, 788)]",[],[1],[0.85],vertical,"(890.0, 762.0)",1.3833333333333333,nan,0,8521.506,0,0.02,same
0,789,valid,"[(1029, 789)]",[],[1],[0.85],vertical,"(390.0, 262.0)",1.2833333333333332,nan,0,8527.07,0,0.02,same
0,790,catch,"[(1132, 791)]",[],[1],[],horizontal,"(890.0, 262.0)",1.7,nan,1,8532.089,1,0.02,same
0,791,valid,"[(1176, 784)]",[],[1],[0.6833333333333333],vertical,"(390.0, 262.0)",0.6333333333333333,0.639,1,8537.365,1,0.02,same
0,792,valid,"[(1130, 797)]",[],[1],[0.43333333333333335],horizontal,"(390.0, 262.0)",1.45,0.395,1,8542.497,1,0.02,same
0,793,valid,"[(1090, 789)]",[],[1],[0.5333333333333333],vertical,"(390.0, 762.0)",0.9,0.494,1,8548.132,2,0.02,same
0,794,invalid_adjacent_other_bar,"[(1165, 764)]",[],[1],[0.5833333333333334],vertical,"(390.0, 762.0)",1.5333333333333332,0.547,1,8553.023,2,0.0,other
0,795,valid,"[(1178, 801)]",[],[1],[0.55],horizontal,"(390.0, 262.0)",0.3833333333333333,0.511,1,8558.874,2,0.0,same
0,796,catch,"[(1181, 773)]",[],[1],[],horizontal,"(890.0, 762.0)",1.7,nan,1,8563.835,2,0.0,same
0,797,invalid_same_bar,"[(1163, 768)]",[],[1],[0.6],horizontal,"(390.0, 762.0)",0.6166666666666667,0.562,1,8569.805,3,0.0,same
0,798,catch,"[(1174, 786)]",[],[1],[],vertical,"(390.0, 762.0)",1.7,nan,1,8575.456,3,0.0,same
0,799,valid,"[(1165, 786)]",[],[1],[0.5833333333333334],vertical,"(890.0, 762.0)",0.9833333333333333,0.542,1,8581.106,3,0.0,same
0,800,valid,"[(1156, 786)]",[],[1],[0.85],horizontal,"(390.0, 762.0)",0.45,nan,0,8586.892,0,0.0,same
0,801,valid,"[(1145, 758)]",[],[1],[0.6166666666666667],horizontal,"(390.0, 762.0)",0.48333333333333334,0.574,1,8590.84,1,0.0,same
0,802,catch,"[(1115, 781)]",[],[1],[],vertical,"(890.0, 262.0)",1.7,nan,1,8595.25,1,0.0,same
0,803,catch,"[(1162, 790)]",[],[1],[],vertical,"(390.0, 262.0)",1.7,nan,1,8600.806,1,0.0,same
0,804,valid,"[(1111, 802)]",[],[1],[0.5333333333333333],horizontal,"(890.0, 762.0)",1.5166666666666666,0.491,1,8606.457,2,0.0,same
0,805,valid,"[(1143, 773)]",[],[1],[0.55],vertical,"(390.0, 262.0)",0.6166666666666667,0.506,1,8613.173,2,0.0,same
0,806,valid,"[(1170, 791)]",[],[1],[0.6833333333333333],vertical,"(390.0, 762.0)",1.45,0.64,1,8618.055,2,0.0,same
0,807,catch,"[(1150, 773)]",[],[1],[],horizontal,"(890.0, 262.0)",1.7,nan,1,8624.138,2,0.0,same
0,808,valid,"[(1142, 770)]",[],[1],[0.55],vertical,"(390.0, 762.0)",0.7833333333333333,0.518,1,8630.235,3,0.0,same
0,809,valid,"[(1135, 757)]",[],[1],[0.6166666666666667],horizontal,"(390.0, 262.0)",1.1666666666666667,0.575,1,8636.005,3,0.0,same
0,810,valid,"[(1180, 780)]",[],[1],[0.6166666666666667],vertical,"(390.0, 262.0)",0.5166666666666666,0.575,1,8642.221,3,0.0,same
0,811,valid,"[(1162, 789)]",[],[1],[0.65],vertical,"(890.0, 762.0)",0.85,0.606,1,8647.172,3,0.0,same
0,812,valid,"[(1164, 779)]",[],[1],[0.5166666666666666],horizontal,"(890.0, 762.0)",0.9166666666666666,0.477,1,8653.09,3,0.0,same
0,813,valid,"[(1168, 775)]",[],[1],[0.5666666666666667],horizontal,"(890.0, 762.0)",0.48333333333333334,0.521,1,8658.973,3,0.0,same
0,814,catch,"[(1161, 786)]",[],[1],[],horizontal,"(390.0, 262.0)",1.7,"('cti', 1.693),nan",0,8664.24,0,0.02,same
0,815,catch,"[(1140, 768)]",[],[1],[],horizontal,"(890.0, 762.0)",1.7,nan,1,8669.388,1,0.02,same
0,816,valid,"[(1149, 773)]",[],[1],[0.5833333333333334],vertical,"(390.0, 262.0)",0.3833333333333333,0.54,1,8674.94,1,0.02,same
0,817,catch,"[(1171, 763)]",[],[1],[],horizontal,"(890.0, 762.0)",1.7,nan,1,8679.472,1,0.02,same
0,818,valid,"[(1168, 765)]",[],[1],[0.55],vertical,"(890.0, 262.0)",0.48333333333333334,0.51,1,8684.549,2,0.02,same
0,819,valid,"[(1170, 771)]",[],[1],[0.5333333333333333],vertical,"(890.0, 762.0)",0.6666666666666666,0.495,1,8689.272,2,0.02,same
0,820,catch,"[(1140, 770)]",[],[1],[],horizontal,"(890.0, 262.0)",1.7,nan,1,8694.416,2,0.02,same
0,821,invalid_same_bar,"[(1166, 760)]",[],[1],[0.5333333333333333],vertical,"(390.0, 262.0)",0.75,0.49,1,8699.773,2,0.02,same
0,822,valid,"[(1165, 792)]",[],[1],[0.5666666666666667],horizontal,"(890.0, 762.0)",1.2166666666666666,0.528,1,8704.743,3,0.02,same
0,823,valid,"[(1169, 772)]",[],[1],[0.6333333333333333],horizontal,"(890.0, 262.0)",0.7166666666666667,0.594,1,8710.831,3,0.02,same
0,824,valid,"[(1166, 796)]",[],[1],[0.85],horizontal,"(390.0, 262.0)",1.2333333333333334,nan,0,8716.674,0,0.02,same
0,825,catch,"[(1168, 773)]",[],[1],[],horizontal,"(890.0, 762.0)",,"('cti', 1.505),nan",0,8721.39,0,0.04,same
0,826,valid,"[(1145, 780)]",[],[1],[0.5166666666666666],horizontal,"(390.0, 762.0)",1.4,0.472,1,8725.963,1,0.04,same
0,827,valid,"[(1182, 786)]",[],[1],[0.5666666666666667],vertical,"(390.0, 262.0)",0.6166666666666667,0.524,1,8731.79,1,0.04,same
0,828,valid,"[(1156, 799)]",[],[1],[0.5666666666666667],horizontal,"(390.0, 262.0)",1.4333333333333333,0.524,1,8736.699,1,0.04,same
0,829,valid,"[(1036, 776)]",[],[1],[0.85],horizontal,"(390.0, 262.0)",1.3166666666666667,nan,0,8741.652,0,0.04,same
0,830,valid,"[(1120, 836)]",[],[1],[0.85],vertical,"(890.0, 762.0)",0.4,nan,0,8754.632,0,0.04,same
0,831,catch,"[(1134, 804)]",[],[1],[],vertical,"(390.0, 762.0)",1.7,nan,1,8820.457,1,0.04,same
0,832,invalid_same_bar,"[(1105, 835)]",[],[1],[0.55],vertical,"(390.0, 762.0)",0.4666666666666667,0.501,1,8826.212,1,0.04,same
0,833,valid,"[(1145, 790)]",[],[1],[0.55],vertical,"(890.0, 762.0)",0.7166666666666667,0.508,1,8831.259,1,0.04,same
0,834,valid,"[(1131, 772)]",[],[1],[0.65],vertical,"(890.0, 762.0)",1.1333333333333333,0.603,1,8836.283,2,0.04,same
0,835,invalid_same_bar,"[(1161, 791)]",[],[1],[0.6],vertical,"(890.0, 762.0)",1.2,0.553,1,8842.351,2,0.04,same
0,836,valid,"[(1167, 796)]",[],[1],[0.65],vertical,"(890.0, 762.0)",1.4,0.602,1,8848.292,2,0.04,same
0,837,valid,"[(1169, 787)]",[],[1],[0.6666666666666666],vertical,"(390.0, 762.0)",1.2,0.623,1,8854.212,2,0.04,same
0,838,valid,"[(1158, 787)]",[],[1],[0.7166666666666667],vertical,"(390.0, 262.0)",1.2333333333333334,0.67,1,8860.189,3,0.04,same
0,839,catch,"[(1161, 766)]",[],[1],[],horizontal,"(890.0, 262.0)",1.7,nan,1,8866.94,3,0.04,same
0,840,valid,"[(1166, 780)]",[],[1],[0.7],vertical,"(390.0, 262.0)",0.7,0.655,1,8873.113,3,0.04,same
0,841,valid,"[(1159, 781)]",[],[1],[0.6166666666666667],horizontal,"(390.0, 262.0)",0.55,0.573,1,8878.717,3,0.04,same
0,842,valid,"[(1150, 761)]",[],[1],[0.5833333333333334],vertical,"(390.0, 262.0)",1.0833333333333333,0.536,1,8884.074,3,0.04,same
0,843,catch,"[(1158, 783)]",[],[1],[],vertical,"(390.0, 262.0)",1.7,nan,1,8890.119,3,0.04,same
0,844,valid,"[(1165, 779)]",[],[1],[0.7166666666666667],horizontal,"(890.0, 262.0)",1.4666666666666666,0.67,1,8896.64,3,0.04,same
0,845,valid,"[(1164, 790)]",[],[1],[0.5833333333333334],vertical,"(890.0, 262.0)",1.0,0.539,1,8903.341,3,0.04,same
0,846,valid,"[(1158, 812)]",[],[1],[0.75],vertical,"(390.0, 762.0)",0.7666666666666666,0.707,1,8909.201,3,0.04,same
0,847,valid,"[(1162, 776)]",[],[1],[0.6],vertical,"(890.0, 762.0)",0.8666666666666667,0.557,1,8915.349,3,0.04,same
0,848,invalid_adjacent_other_bar,"[(1166, 779)]",[],[1],[0.5666666666666667],horizontal,"(390.0, 262.0)",0.9166666666666666,0.532,1,8920.912,3,0.04,other
0,849,valid,"[(1151, 754)]",[],[1],[0.6833333333333333],vertical,"(390.0, 262.0)",1.05,0.641,1,8926.874,3,0.04,same
0,850,invalid_same_bar,"[(1160, 764)]",[],[1],[0.5333333333333333],vertical,"(390.0, 762.0)",0.7333333333333333,0.494,1,8932.655,3,0.04,same
0,851,valid,"[(1155, 779)]",[],[1],[0.5],horizontal,"(390.0, 262.0)",0.95,0.458,1,8938.099,3,0.04,same
0,852,valid,"[(1162, 782)]",[],[1],[0.7333333333333333],vertical,"(390.0, 262.0)",1.2333333333333334,0.694,1,8943.641,3,0.04,same
0,853,invalid_same_bar,"[(1160, 764)]",[],[1],[0.85],horizontal,"(390.0, 262.0)",1.3333333333333333,nan,0,8949.482,0,0.04,same
0,854,catch,"[(1150, 769)]",[],[1],[],vertical,"(890.0, 762.0)",1.7,nan,1,8954.657,1,0.04,same
0,855,valid,"[(1166, 771)]",[],[1],[0.7666666666666666],horizontal,"(390.0, 262.0)",1.3666666666666667,0.723,1,8960.216,1,0.04,same
0,856,valid,"[(1159, 766)]",[],[1],[0.7666666666666666],vertical,"(390.0, 762.0)",0.4,0.717,1,8965.625,1,0.04,same
0,857,valid,"[(1136, 770)]",[],[1],[0.5166666666666666],horizontal,"(390.0, 262.0)",0.5833333333333334,0.482,1,8970.524,2,0.04,same
