block,trial,trial_type,taps_start_loc_during_fix,taps_end_loc_during_fix,taps_on_lever_during_fix,taps_on_lever_s_during_fix,bar_orientation,target_xy,cti,rt,acc,time,pulses,fa_rate_recent100,actual_invalid_type
0,1,valid,"[(1071, 823)]",[],[1],[0.48333333333333334],horizontal,"(390.0, 262.0)",1.5,0.441,1,0.449,1,0.0,same
0,2,valid,"[(1156, 773)]",[],[1],[0.48333333333333334],horizontal,"(890.0, 762.0)",1.2833333333333332,0.445,1,230.863,1,0.0,same
0,3,catch,"[(1157, 789)]",[],[1],[],vertical,"(390.0, 262.0)",1.7,nan,1,236.295,1,0.0,same
0,4,valid,"[(1151, 825)]",[],[1],[0.85],vertical,"(390.0, 262.0)",0.4166666666666667,nan,0,241.848,0,0.0,same
0,5,valid,"[(1132, 767)]",[],[1],[0.5],vertical,"(890.0, 262.0)",0.85,0.463,1,246.009,1,0.0,same
0,6,valid,"[(1149, 808)]",[],[1],[0.5666666666666667],vertical,"(890.0, 262.0)",0.6666666666666666,0.537,1,251.033,1,0.0,same
0,7,valid,"[(1165, 816)]",[],[1],[0.5833333333333334],vertical,"(390.0, 262.0)",0.36666666666666664,0.547,1,255.771,1,0.0,same
0,8,valid,"[(1124, 854)]",[],[1],[0.5],horizontal,"(890.0, 762.0)",0.9833333333333333,0.473,1,260.211,2,0.0,same
0,9,valid,"[(1158, 759)]",[],[1],[0.6666666666666666],vertical,"(890.0, 762.0)",0.7666666666666666,0.636,1,265.744,2,0.0,same
0,10,invalid_same_bar,"[(1167, 802)]",[],[1],[0.5166666666666666],horizontal,"(890.0, 762.0)",1.35,0.478,1,271.016,2,0.0,same
0,11,valid,"[(1168, 789)]",[],[1],[0.6],horizontal,"(890.0, 262.0)",0.9166666666666666,0.555,1,276.851,3,0.0,same
0,12,valid,"[(1111, 808)]",[],[1],[0.6833333333333333],horizontal,"(890.0, 762.0)",0.8,0.641,1,282.386,3,0.0,same
0,13,valid,"[(1127, 811)]",[],[1],[0.5],horizontal,"(390.0, 762.0)",0.7166666666666667,0.466,1,290.03,3,0.0,same
0,14,valid,"[(1155, 801)]",[],[1],[0.55],vertical,"(390.0, 262.0)",0.85,0.509,1,295.512,3,0.0,same
0,15,valid,"[(1157, 806)]",[],[1],[0.5833333333333334],horizontal,"(890.0, 762.0)",0.8666666666666667,0.539,1,300.713,3,0.0,same
0,16,valid,"[(1111, 864)]",[],[1],[0.48333333333333334],horizontal,"(390.0, 262.0)",0.3833333333333333,0.451,1,306.197,3,0.0,same
0,17,catch,"[(1153, 816)]",[],[1],[],horizontal,"(390.0, 762.0)",1.7,nan,1,311.594,3,0.0,same
0,18,valid,"[(1169, 803)]",[],[1],[0.5],vertical,"(390.0, 262.0)",1.1833333333333333,0.461,1,317.293,3,0.0,same
0,19,valid,"[(1162, 790)]",[],[1],[0.43333333333333335],vertical,"(890.0, 262.0)",1.45,0.4,1,323.181,3,0.0,same
0,20,catch,"[(1161, 796)]",[],[1],[],horizontal,"(390.0, 262.0)",1.7,nan,1,329.242,3,0.0,same
0,21,valid,"[(1159, 782)]",[],[1],[0.3833333333333333],horizontal,"(390.0, 762.0)",1.1333333333333333,0.345,1,335.088,3,0.0,same
0,22,valid,"[(1161, 783)]",[],[1],[0.5333333333333333],vertical,"(890.0, 762.0)",1.3666666666666667,0.495,1,340.586,3,0.0,same
0,23,valid,"[(1171, 794)]",[],[1],[0.48333333333333334],horizontal,"(390.0, 762.0)",1.4166666666666667,0.446,1,346.694,3,0.0,same
0,24,valid,"[(1160, 781)]",[],[1],[0.5],vertical,"(390.0, 762.0)",1.3666666666666667,0.464,1,353.014,3,0.0,same
0,25,valid,"[(1141, 792)]",[],[1],[0.85],horizontal,"(390.0, 762.0)",0.85,nan,0,359.047,0,0.0,same
0,26,valid,"[(1129, 765)]",[],[1],[0.6333333333333333],vertical,"(890.0, 762.0)",0.7666666666666666,0.593,1,363.814,1,0.0,same
0,27,catch,"[(1161, 777)]",[],[1],[],vertical,"(890.0, 262.0)",1.7,nan,1,368.314,1,0.0,same
0,28,catch,"[(1161, 792)]",[],[1],[],vertical,"(890.0, 262.0)",1.7,nan,1,373.265,1,0.0,same
0,29,valid,"[(1158, 780)]",[],[1],[0.55],horizontal,"(390.0, 262.0)",1.0666666666666667,0.51,1,378.28,2,0.0,same
0,30,valid,"[(1153, 796)]",[],[1],[0.65],horizontal,"(390.0, 762.0)",0.8333333333333334,0.609,1,383.647,2,0.0,same
0,31,valid,"[(1131, 803)]",[],[1],[0.85],horizontal,"(390.0, 262.0)",0.8166666666666667,nan,0,388.872,0,0.0,same
0,32,valid,"[(1146, 782)]",[],[1],[0.85],vertical,"(390.0, 762.0)",0.5166666666666666,nan,0,393.814,0,0.0,same
0,33,valid,"[(1147, 770)]",[],[1],[0.48333333333333334],vertical,"(890.0, 262.0)",1.1333333333333333,0.448,1,397.929,1,0.0,same
0,34,catch,"[(1165, 791)]",[],[1],[],horizontal,"(390.0, 762.0)",1.7,nan,1,402.954,1,0.0,same
0,35,catch,"[(1160, 799)]",[],[1],[],vertical,"(390.0, 762.0)",1.7,nan,1,407.789,1,0.0,same
0,36,valid,"[(1131, 797)]",[],[1],[0.5333333333333333],vertical,"(390.0, 262.0)",0.4,0.492,1,412.982,2,0.0,same
0,37,valid,"[(1159, 796)]",[],[1],[0.5166666666666666],horizontal,"(390.0, 762.0)",0.85,0.483,1,417.778,2,0.0,same
0,38,invalid_adjacent_other_bar,"[(1165, 803)]",[],[1],[0.48333333333333334],horizontal,"(390.0, 762.0)",0.4166666666666667,0.446,1,422.94,2,0.0,other
0,39,catch,"[(1160, 780)]",[],[1],[],horizontal,"(890.0, 262.0)",1.7,nan,1,427.717,3,0.0,same
0,40,invalid_same_bar,"[(1137, 798)]",[],[1],[0.55],vertical,"(890.0, 262.0)",1.0833333333333333,0.514,1,434.347,3,0.0,same
0,41,catch,"[(1171, 796)]",[],[1],[],vertical,"(390.0, 762.0)",1.7,nan,1,440.699,3,0.0,same
0,42,valid,"[(1156, 776)]",[],[1],[0.6166666666666667],horizontal,"(390.0, 762.0)",1.15,0.583,1,446.916,3,0.0,same
0,43,valid,"[(1160, 798)]",[],[1],[0.85],horizontal,"(390.0, 762.0)",1.1166666666666667,nan,0,453.068,0,0.0,same
0,44,valid,"[(1141, 814)]",[],[1],[0.6666666666666666],vertical,"(390.0, 262.0)",0.5166666666666666,0.626,1,457.798,1,0.0,same
0,45,valid,"[(1159, 788)]",[],[1],[0.6166666666666667],vertical,"(390.0, 762.0)",1.15,0.573,1,462.339,1,0.0,same
0,46,valid,"[(1158, 769)]",[],[1],[0.65],vertical,"(390.0, 262.0)",1.2166666666666666,0.609,1,467.57,1,0.0,same
0,47,valid,"[(1156, 797)]",[],[1],[0.6333333333333333],horizontal,"(890.0, 262.0)",0.9166666666666666,0.594,1,472.468,2,0.0,same
0,48,catch,"[(1171, 787)]",[],[1],[],vertical,"(890.0, 262.0)",1.7,nan,1,478.092,2,0.0,same
0,49,valid,"[(1134, 799)]",[],[1],[0.5833333333333334],vertical,"(890.0, 762.0)",1.2833333333333332,0.54,1,483.599,2,0.0,same
0,50,valid,"[(1115, 821)]",[],[1],[0.5],horizontal,"(390.0, 262.0)",0.9333333333333333,0.46,1,489.381,3,0.0,same
0,51,catch,"[(1160, 795)]",[],[1],[],horizontal,"(890.0, 762.0)",1.7,nan,1,498.499,3,0.0,same
0,52,invalid_adjacent_other_bar,"[(1159, 811)]",[],[1],[0.11666666666666667],horizontal,"(890.0, 762.0)",1.2333333333333334,0.085,0,504.782,0,0.0,other
0,53,valid,"[(1147, 782)]",[],[1],[0.48333333333333334],horizontal,"(890.0, 262.0)",0.8,0.444,1,509.566,1,0.0,same
0,54,invalid_same_bar,"[(1170, 804)]",[],[1],[0.7],horizontal,"(890.0, 762.0)",1.3166666666666667,0.662,1,514.44,1,0.0,same
0,55,valid,"[(1160, 796)]",[],[1],[0.5],horizontal,"(390.0, 262.0)",1.0,0.457,1,520.248,1,0.0,same
0,56,valid,"[(1151, 762)]",[],[1],[0.48333333333333334],vertical,"(890.0, 262.0)",0.6166666666666667,0.44,1,525.133,2,0.0,same
0,57,valid,"[(1159, 766)]",[],[1],"[0.85, 0.85]",horizontal,"(390.0, 262.0)",1.4833333333333334,"0.804,nan",0,530.399,0,0.0,same
0,58,valid,"[(1131, 808)]",[],[1],[0.55],vertical,"(390.0, 762.0)",1.45,0.507,1,535.527,1,0.0,same
0,59,catch,"[(1157, 793)]",[],[1],[],horizontal,"(890.0, 762.0)",1.7,nan,1,543.049,1,0.0,same
0,60,valid,"[(1153, 777)]",[],[1],[0.5],vertical,"(390.0, 262.0)",1.3833333333333333,0.46,1,548.215,1,0.0,same
0,61,invalid_same_bar,"[(1170, 792)]",[],[1],[0.5666666666666667],horizontal,"(390.0, 262.0)",0.6,0.525,1,553.182,2,0.0,same
0,62,valid,"[(1157, 771)]",[],[1],[0.7666666666666666],horizontal,"(890.0, 762.0)",0.8166666666666667,0.721,1,558.485,2,0.0,same
0,63,catch,"[(1171, 781)]",[],[1],[],vertical,"(390.0, 762.0)",1.7,nan,1,563.915,2,0.0,same
0,64,valid,"[(1161, 781)]",[],[1],[0.55],horizontal,"(890.0, 762.0)",1.2666666666666666,0.514,1,569.183,3,0.0,same
0,65,valid,"[(1158, 788)]",[],[1],[0.5],vertical,"(390.0, 262.0)",1.3833333333333333,0.458,1,574.989,3,0.0,same
0,66,valid,"[(1171, 789)]",[],[1],[0.55],horizontal,"(390.0, 762.0)",0.5166666666666666,0.509,1,580.582,3,0.0,same
0,67,invalid_adjacent_other_bar,"[(1169, 785)]",[],[1],[0.5333333333333333],vertical,"(890.0, 762.0)",1.2,0.497,1,586.099,3,0.0,other
0,68,catch,"[(1160, 779)]",[],[1],[],vertical,"(890.0, 762.0)",1.7,nan,1,591.898,3,0.0,same
0,69,catch,"[(1132, 801)]",[],[1],[],horizontal,"(890.0, 262.0)",1.7,nan,1,597.531,3,0.0,same
0,70,valid,"[(1160, 769)]",[],[1],[0.85],horizontal,"(890.0, 762.0)",1.0833333333333333,nan,0,604.116,0,0.0,same
0,71,valid,"[(1131, 774)]",[],[1],[0.5166666666666666],vertical,"(890.0, 762.0)",0.9666666666666667,0.478,1,608.966,1,0.0,same
0,72,invalid_same_bar,"[(1159, 777)]",[],[1],[0.55],vertical,"(890.0, 762.0)",1.05,0.522,1,614.086,1,0.0,same
0,73,valid,"[(1160, 788)]",[],[1],[0.5166666666666666],vertical,"(890.0, 762.0)",0.5666666666666667,0.475,1,618.781,1,0.0,same
0,74,catch,"[(1136, 778)]",[],[1],[],horizontal,"(390.0, 762.0)",1.7,nan,1,623.305,2,0.0,same
0,75,valid,"[(1160, 791)]",[],[1],[0.6166666666666667],vertical,"(390.0, 262.0)",1.0833333333333333,0.573,1,629.466,2,0.0,same
0,76,catch,"[(1159, 773)]",[],[1],[],vertical,"(890.0, 262.0)",,"('cti', 1.394),nan",0,634.79,0,0.02,same
0,77,catch,"[(1122, 791)]",[],[1],[],vertical,"(390.0, 262.0)",1.7,nan,1,639.548,1,0.02,same
0,78,invalid_same_bar,"[(1160, 774)]",[],[1],[0.5666666666666667],horizontal,"(390.0, 762.0)",0.43333333333333335,0.529,1,645.21,1,0.02,same
0,79,valid,"[(1161, 805)]",[],[1],[0.5],vertical,"(390.0, 762.0)",1.0666666666666667,0.466,1,649.561,1,0.02,same
0,80,valid,"[(1160, 777)]",[],[1],[0.5166666666666666],vertical,"(890.0, 762.0)",1.2166666666666666,0.476,1,654.682,2,0.02,same
0,81,invalid_adjacent_other_bar,"[(1160, 781)]",[],[1],[0.55],horizontal,"(890.0, 762.0)",0.9,0.515,1,660.347,2,0.02,other
0,82,valid,"[(1156, 793)]",[],[1],[0.55],vertical,"(890.0, 262.0)",0.6333333333333333,0.505,1,665.765,2,0.02,same
0,83,valid,"[(1160, 781)]",[],[1],[0.5333333333333333],vertical,"(890.0, 762.0)",0.43333333333333335,0.494,1,670.863,3,0.02,same
0,84,valid,"[(1171, 776)]",[],[1],[0.5],vertical,"(890.0, 762.0)",1.3666666666666667,0.46,1,675.982,3,0.02,same
0,85,valid,"[(1160, 790)]",[],[1],[0.6],vertical,"(890.0, 262.0)",1.05,0.557,1,681.973,3,0.02,same
0,86,catch,"[(1156, 783)]",[],[1],[],vertical,"(890.0, 762.0)",1.7,nan,1,688.04,3,0.02,same
0,87,valid,"[(1161, 778)]",[],[1],[0.5166666666666666],horizontal,"(890.0, 762.0)",0.36666666666666664,0.476,1,693.688,3,0.02,same
0,88,valid,"[(1165, 772)]",[],[1],[0.6166666666666667],vertical,"(390.0, 762.0)",0.48333333333333334,0.581,1,698.966,3,0.02,same
0,89,valid,"[(1157, 790)]",[],[1],[0.85],horizontal,"(390.0, 762.0)",0.7666666666666666,nan,0,704.603,0,0.02,same
0,90,valid,"[(1113, 782)]",[],[1],[0.5666666666666667],horizontal,"(890.0, 262.0)",0.65,0.534,1,709.332,1,0.02,same
0,91,valid,"[(1160, 793)]",[],[1],[0.5],horizontal,"(890.0, 262.0)",1.4333333333333333,0.459,1,713.815,1,0.02,same
0,92,valid,"[(1158, 783)]",[],[1],[0.85],vertical,"(890.0, 762.0)",0.8166666666666667,nan,0,718.956,0,0.02,same
0,93,catch,"[(1110, 818)]",[],[1],[],vertical,"(390.0, 762.0)",1.7,nan,1,723.444,1,0.02,same
0,94,valid,"[(1128, 797)]",[],[1],[0.5333333333333333],horizontal,"(890.0, 262.0)",1.1833333333333333,0.489,1,736.918,1,0.02,same
0,95,valid,"[(1162, 796)]",[],[1],[0.5833333333333334],horizontal,"(390.0, 262.0)",1.5,0.54,1,741.983,1,0.02,same
0,96,valid,"[(1140, 784)]",[],[1],[0.5833333333333334],vertical,"(890.0, 762.0)",0.35,0.538,1,747.159,2,0.02,same
0,97,catch,"[(1160, 796)]",[],[1],[],horizontal,"(390.0, 762.0)",1.7,nan,1,751.782,2,0.02,same
0,98,valid,"[(1160, 789)]",[],[1],[0.48333333333333334],vertical,"(390.0, 262.0)",0.3833333333333333,0.443,1,757.526,2,0.02,same
0,99,valid,"[(1157, 802)]",[],[1],[0.5333333333333333],vertical,"(890.0, 262.0)",0.9166666666666666,0.489,1,762.065,3,0.02,same
0,100,valid,"[(1152, 772)]",[],[1],[0.6166666666666667],horizontal,"(390.0, 262.0)",1.1166666666666667,0.576,1,768.076,3,0.02,same
0,101,valid,"[(1157, 780)]",[],[1],[0.5],vertical,"(890.0, 262.0)",1.4166666666666667,0.466,1,774.032,3,0.02,same
0,102,valid,"[(1092, 885)]",[],[1],[0.5],horizontal,"(890.0, 262.0)",0.7166666666666667,0.457,1,780.342,3,0.02,same
0,103,invalid_same_bar,"[(1148, 805)]",[],[1],[0.7166666666666667],horizontal,"(890.0, 262.0)",1.0833333333333333,0.685,1,1156.298,3,0.02,same
0,104,valid,"[(1146, 801)]",[],[1],[0.5166666666666666],horizontal,"(390.0, 762.0)",0.6666666666666666,0.474,1,1162.283,3,0.02,same
0,105,valid,"[(1165, 794)]",[],[1],[0.4666666666666667],vertical,"(890.0, 262.0)",1.0666666666666667,0.431,1,1167.642,3,0.02,same
0,106,catch,"[(1157, 783)]",[],[1],[],horizontal,"(890.0, 762.0)",1.7,nan,1,1173.597,3,0.02,same
0,107,valid,"[(1134, 786)]",[],[1],[0.6833333333333333],vertical,"(890.0, 762.0)",1.5,0.643,1,1179.432,3,0.02,same
0,108,invalid_same_bar,"[(1158, 788)]",[],[1],[0.48333333333333334],horizontal,"(390.0, 262.0)",0.4,0.45,1,1185.716,3,0.02,same
0,109,valid,"[(1160, 791)]",[],[1],[0.6666666666666666],horizontal,"(890.0, 762.0)",1.3,0.623,1,1190.658,3,0.02,same
0,110,catch,"[(1153, 783)]",[],[1],[],vertical,"(390.0, 762.0)",1.7,nan,1,1197.251,3,0.02,same
0,111,valid,"[(1156, 769)]",[],[1],[0.6],vertical,"(390.0, 262.0)",1.3,0.556,1,1203.071,3,0.02,same
0,112,invalid_adjacent_other_bar,"[(1154, 791)]",[],[1],[0.65],horizontal,"(390.0, 262.0)",0.6833333333333333,0.611,1,1209.289,3,0.02,other
0,113,valid,"[(1114, 850)]",[],[1],[0.85],horizontal,"(390.0, 262.0)",0.5833333333333334,nan,0,1215.016,0,0.02,same
0,114,invalid_adjacent_other_bar,"[(1131, 778)]",[],[1],[0.5333333333333333],vertical,"(890.0, 762.0)",1.2833333333333332,0.493,1,1220.683,1,0.02,other
0,115,catch,"[(1148, 800)]",[],[1],[],vertical,"(890.0, 262.0)",1.7,nan,1,1226.083,1,0.02,same
0,116,valid,"[(1142, 780)]",[],[1],[0.11666666666666667],vertical,"(390.0, 262.0)",1.45,0.083,0,1231.456,0,0.02,same
0,117,valid,"[(1131, 787)]",[],[1],[0.48333333333333334],horizontal,"(890.0, 262.0)",0.8,0.443,1,1236.234,1,0.02,same
0,118,valid,"[(1145, 781)]",[],[1],[0.5666666666666667],vertical,"(390.0, 762.0)",1.5,0.523,1,1240.666,1,0.02,same
0,119,invalid_adjacent_other_bar,"[(1170, 788)]",[],[1],[0.43333333333333335],vertical,"(890.0, 262.0)",1.4833333333333334,0.395,1,1246.272,1,0.02,other
0,120,valid,"[(1153, 788)]",[],[1],[0.48333333333333334],vertical,"(890.0, 262.0)",1.0,0.445,1,1251.841,2,0.02,same
0,121,invalid_same_bar,"[(1154, 801)]",[],[1],[0.48333333333333334],vertical,"(390.0, 262.0)",1.45,0.442,1,1257.288,2,0.02,same
0,122,catch,"[(1155, 783)]",[],[1],[],horizontal,"(890.0, 262.0)",1.7,nan,1,1262.767,2,0.02,same
0,123,valid,"[(1155, 775)]",[],[1],[0.45],horizontal,"(890.0, 262.0)",1.5166666666666666,0.411,1,1268.3,3,0.02,same
0,124,valid,"[(1161, 796)]",[],[1],[0.6166666666666667],vertical,"(390.0, 762.0)",0.95,0.576,1,1274.317,3,0.02,same
0,125,valid,"[(1115, 785)]",[],[1],[0.5166666666666666],vertical,"(390.0, 262.0)",0.8333333333333334,0.48,1,1280.407,3,0.02,same
0,126,valid,"[(1147, 787)]",[],[1],[0.5333333333333333],horizontal,"(390.0, 262.0)",0.7166666666666667,0.491,1,1286.067,3,0.0,same
0,127,valid,"[(1156, 786)]",[],[1],[0.5333333333333333],vertical,"(890.0, 762.0)",1.0,0.492,1,1291.622,3,0.0,same
0,128,valid,"[(1171, 781)]",[],[1],[0.6],horizontal,"(390.0, 262.0)",0.3833333333333333,0.555,1,1297.233,3,0.0,same
0,129,valid,"[(1139, 783)]",[],[1],[0.6333333333333333],horizontal,"(890.0, 262.0)",1.0,0.591,1,1302.633,3,0.0,same
0,130,invalid_adjacent_other_bar,"[(1142, 779)]",[],[1],[0.6166666666666667],vertical,"(890.0, 262.0)",1.25,0.58,1,1308.316,3,0.0,other
0,131,valid,"[(1158, 781)]",[],[1],[0.5833333333333334],horizontal,"(890.0, 762.0)",0.48333333333333334,0.54,1,1313.983,3,0.0,same
0,132,valid,"[(1170, 801)]",[],[1],[0.48333333333333334],vertical,"(890.0, 262.0)",1.45,0.444,1,1319.084,3,0.0,same
0,133,valid,"[(1148, 791)]",[],[1],[0.4666666666666667],horizontal,"(890.0, 262.0)",0.7833333333333333,0.428,1,1325.476,3,0.0,same
0,134,invalid_same_bar,"[(1157, 803)]",[],[1],[0.85],vertical,"(390.0, 762.0)",0.5666666666666667,nan,0,1330.554,0,0.0,same
0,135,catch,"[(1131, 782)]",[],[1],[],vertical,"(390.0, 262.0)",,"('cti', 1.355),nan",0,1335.268,0,0.02,same
0,136,valid,"[(1088, 796)]",[],[1],[0.85],horizontal,"(890.0, 262.0)",0.4166666666666667,nan,0,1339.568,0,0.02,same
0,137,valid,"[(1158, 775)]",[],[1],[0.45],horizontal,"(890.0, 262.0)",1.0666666666666667,0.417,1,1351.179,1,0.02,same
0,138,valid,"[(1158, 788)]",[],[1],[0.5166666666666666],horizontal,"(390.0, 762.0)",1.2333333333333334,0.475,1,1356.201,1,0.02,same
0,139,catch,"[(1131, 790)]",[],[1],[],vertical,"(890.0, 262.0)",1.7,nan,1,1361.267,1,0.02,same
0,140,valid,"[(1167, 777)]",[],[1],[0.5],vertical,"(890.0, 762.0)",0.43333333333333335,0.462,1,1366.335,2,0.02,same
0,141,valid,"[(1128, 770)]",[],[1],[0.48333333333333334],vertical,"(890.0, 762.0)",1.2333333333333334,0.446,1,1371.034,2,0.02,same
0,142,valid,"[(1170, 825)]",[],[1],[0.48333333333333334],horizontal,"(390.0, 762.0)",0.43333333333333335,0.443,1,1376.633,2,0.02,same
0,143,catch,"[(1134, 794)]",[],[1],[],horizontal,"(890.0, 262.0)",1.7,nan,1,1381.633,3,0.02,same
0,144,invalid_same_bar,"[(1150, 785)]",[],[1],[0.48333333333333334],vertical,"(390.0, 762.0)",0.9333333333333333,0.44,1,1387.517,3,0.02,same
0,145,valid,"[(1159, 792)]",[],[1],[0.45],horizontal,"(890.0, 262.0)",1.4666666666666666,0.413,1,1392.953,3,0.02,same
0,146,catch,"[(1128, 795)]",[],[1],[],horizontal,"(890.0, 262.0)",1.7,nan,1,1399.5,3,0.02,same
0,147,catch,"[(1159, 806)]",[],[1],[],horizontal,"(890.0, 262.0)",1.7,nan,1,1405.501,3,0.02,same
0,148,valid,"[(1157, 772)]",[],[1],[0.5],vertical,"(390.0, 262.0)",0.48333333333333334,0.466,1,1411.37,3,0.02,same
0,149,valid,"[(1160, 795)]",[],[1],[0.6],vertical,"(890.0, 262.0)",0.7166666666666667,0.562,1,1417.022,3,0.02,same
0,150,catch,"[(1155, 795)]",[],[1],[],horizontal,"(890.0, 262.0)",,"('fix', 0.351),nan",0,1422.891,0,0.04,same
0,151,catch,"[(1116, 836)]",[],[1],[],vertical,"(390.0, 262.0)",,"('cti', 1.63),nan",0,1424.768,0,0.06,same
0,152,valid,"[(1088, 792)]",[],[1],[0.6166666666666667],vertical,"(890.0, 262.0)",0.6833333333333333,0.575,1,2093.42,1,0.06,same
0,153,catch,"[(1151, 788)]",[],[1],[],horizontal,"(890.0, 262.0)",1.7,nan,1,2098.395,1,0.06,same
0,154,valid,"[(1098, 815)]",[],[1],[0.6333333333333333],horizontal,"(390.0, 762.0)",0.35,0.585,1,2103.519,1,0.06,same
0,155,valid,"[(1137, 777)]",[],[1],[],horizontal,"(890.0, 262.0)",,"('cti', 1.111)",0,2109.195,0,0.06,same
0,156,valid,"[(1160, 799)]",[],[1],[0.48333333333333334],horizontal,"(890.0, 262.0)",1.2166666666666666,0.447,1,2113.06,1,0.06,same
0,157,valid,"[(1164, 798)]",[],[1],[0.5],vertical,"(890.0, 262.0)",1.0666666666666667,0.458,1,2118.354,1,0.06,same
0,158,valid,"[(1155, 776)]",[],[1],[0.5166666666666666],vertical,"(890.0, 262.0)",0.7166666666666667,0.475,1,2122.953,1,0.06,same
0,159,valid,"[(1158, 786)]",[],[1],[0.85],vertical,"(890.0, 262.0)",1.1166666666666667,nan,0,2127.853,0,0.06,same
0,160,catch,"[(1088, 838)]",[],[1],[],vertical,"(390.0, 262.0)",,"('cti', 1.535),nan",0,2132.994,0,0.08,same
0,161,valid,"[(1097, 819)]",[],[1],[0.85],horizontal,"(890.0, 262.0)",0.5,nan,0,2138.807,0,0.08,same
0,162,catch,"[(1116, 838)]",[],[1],[],horizontal,"(890.0, 762.0)",1.7,nan,1,2143.287,1,0.08,same
0,163,valid,"[(1150, 793)]",[],[1],[0.65],vertical,"(390.0, 762.0)",0.3833333333333333,0.61,1,2190.401,1,0.08,same
0,164,valid,"[(1155, 781)]",[],[1],[0.5333333333333333],vertical,"(390.0, 762.0)",1.2333333333333334,0.492,1,2194.803,1,0.08,same
0,165,catch,"[(1161, 786)]",[],[1],[],horizontal,"(390.0, 762.0)",1.7,nan,1,2200.037,2,0.08,same
0,166,valid,"[(1163, 782)]",[],[1],[0.6],vertical,"(890.0, 762.0)",0.8333333333333334,0.566,1,2205.793,2,0.08,same
0,167,catch,"[(1156, 787)]",[],[1],[],vertical,"(390.0, 262.0)",1.7,nan,1,2211.503,2,0.08,same
0,168,valid,"[(1160, 777)]",[],[1],[0.6166666666666667],horizontal,"(890.0, 762.0)",1.4,0.573,1,2216.788,3,0.08,same
0,169,catch,"[(1171, 796)]",[],[1],[],vertical,"(890.0, 762.0)",1.7,nan,1,2222.754,3,0.08,same
0,170,valid,"[(1115, 836)]",[],[1],[0.65],horizontal,"(890.0, 762.0)",1.0166666666666666,0.603,1,2228.881,3,0.08,same
0,171,catch,"[(1168, 796)]",[],[1],[],horizontal,"(890.0, 762.0)",1.7,nan,1,2235.454,3,0.08,same
0,172,valid,"[(1150, 796)]",[],[1],[0.48333333333333334],vertical,"(890.0, 262.0)",0.75,0.443,1,2241.053,3,0.08,same
0,173,catch,"[(1116, 798)]",[],[1],[],vertical,"(890.0, 762.0)",1.7,nan,1,2246.221,3,0.08,same
0,174,valid,"[(1170, 792)]",[],[1],[0.55],vertical,"(390.0, 262.0)",0.4,0.511,1,2252.369,3,0.08,same
0,175,valid,"[(1160, 785)]",[],[1],[0.6333333333333333],horizontal,"(390.0, 262.0)",0.9166666666666666,0.597,1,2257.399,3,0.08,same
0,176,valid,"[(1129, 795)]",[],[1],[0.7],vertical,"(390.0, 762.0)",1.05,0.652,1,2263.453,3,0.08,same
0,177,valid,"[(1169, 791)]",[],[1],[0.48333333333333334],vertical,"(890.0, 262.0)",0.8166666666666667,0.441,1,2270.07,3,0.08,same
0,178,invalid_adjacent_other_bar,"[(1156, 789)]",[],[1],[0.5333333333333333],vertical,"(390.0, 762.0)",0.35,0.49,1,2275.65,3,0.08,other
0,179,catch,"[(1168, 803)]",[],[1],[],vertical,"(890.0, 262.0)",1.7,nan,1,2281.077,3,0.08,same
0,180,valid,"[(1156, 801)]",[],[1],[0.5],horizontal,"(390.0, 262.0)",0.48333333333333334,0.459,1,2286.897,3,0.08,same
0,181,valid,"[(1160, 806)]",[],[1],[0.45],vertical,"(890.0, 262.0)",0.36666666666666664,0.411,1,2291.886,3,0.08,same
0,182,catch,"[(1160, 784)]",[],[1],[],vertical,"(390.0, 762.0)",1.7,nan,1,2297.152,3,0.08,same
0,183,valid,"[(1165, 796)]",[],[1],[0.5333333333333333],vertical,"(390.0, 262.0)",1.5166666666666666,0.493,1,2302.787,3,0.08,same
0,184,valid,"[(1172, 805)]",[],[1],[0.6333333333333333],vertical,"(390.0, 262.0)",1.45,0.585,1,2308.735,3,0.08,same
0,185,valid,"[(1169, 792)]",[],[1],[0.5333333333333333],horizontal,"(390.0, 262.0)",1.2833333333333332,0.488,1,2315.253,3,0.06,same
0,186,catch,"[(1160, 793)]",[],[1],[],horizontal,"(890.0, 762.0)",1.7,nan,1,2321.354,3,0.06,same
0,187,catch,"[(1157, 803)]",[],[1],[],vertical,"(390.0, 262.0)",1.7,nan,1,2327.266,3,0.06,same
0,188,valid,"[(1155, 789)]",[],[1],[0.5166666666666666],horizontal,"(890.0, 262.0)",0.6,0.476,1,2332.927,3,0.06,same
0,189,valid,"[(1116, 814)]",[],[1],[0.6166666666666667],horizontal,"(890.0, 262.0)",1.25,0.575,1,2338.494,3,0.06,same
0,190,valid,"[(1157, 802)]",[],[1],[0.5166666666666666],vertical,"(390.0, 262.0)",0.8833333333333333,0.474,1,2344.73,3,0.06,same
0,191,valid,"[(1158, 804)]",[],[1],[0.48333333333333334],vertical,"(390.0, 262.0)",1.3333333333333333,0.454,1,2350.687,3,0.06,same
0,192,invalid_adjacent_other_bar,"[(1160, 803)]",[],[1],[0.23333333333333334],horizontal,"(890.0, 762.0)",1.5,0.198,0,2356.604,0,0.06,other
0,193,valid,"[(1156, 782)]",[],[1],[0.85],horizontal,"(890.0, 762.0)",0.4,nan,0,2361.489,0,0.06,same
0,194,valid,"[(1118, 797)]",[],[1],[0.5],vertical,"(890.0, 762.0)",1.25,0.458,1,2365.971,1,0.06,same
0,195,valid,"[(1157, 786)]",[],[1],[0.5666666666666667],vertical,"(390.0, 262.0)",0.55,0.524,1,2371.222,1,0.06,same
0,196,valid,"[(1172, 803)]",[],[1],[0.48333333333333334],vertical,"(890.0, 262.0)",1.1166666666666667,0.449,1,2375.766,1,0.06,same
0,197,valid,"[(1160, 783)]",[],[1],[0.6],vertical,"(890.0, 762.0)",0.75,0.556,1,2380.586,2,0.06,same
0,198,valid,"[(1131, 798)]",[],[1],[0.45],horizontal,"(890.0, 262.0)",1.0166666666666666,0.41,1,2385.309,2,0.06,same
0,199,valid,"[(1155, 793)]",[],[1],[0.5166666666666666],horizontal,"(390.0, 262.0)",0.65,0.473,1,2390.503,2,0.06,same
0,200,valid,"[(1160, 783)]",[],[1],[0.6666666666666666],vertical,"(890.0, 762.0)",1.05,0.622,1,2395.587,3,0.04,same
0,201,valid,"[(1171, 782)]",[],[1],[0.48333333333333334],vertical,"(390.0, 262.0)",0.9,0.445,1,2401.487,3,0.02,same
0,202,valid,"[(1159, 761)]",[],[1],[0.5],horizontal,"(390.0, 262.0)",0.45,0.461,1,2407.336,3,0.02,same
0,203,valid,"[(1157, 791)]",[],[1],[0.5333333333333333],vertical,"(390.0, 762.0)",1.4666666666666666,0.492,1,2412.605,3,0.02,same
0,204,catch,"[(1162, 782)]",[],[1],[],vertical,"(390.0, 762.0)",1.7,nan,1,2418.689,3,0.02,same
0,205,valid,"[(1160, 783)]",[],[1],[0.85],horizontal,"(390.0, 262.0)",1.5,nan,0,2425.024,0,0.02,same
0,206,catch,"[(1116, 773)]",[],[1],[],horizontal,"(890.0, 262.0)",,"('cti', 0.505),nan",0,2430.685,0,0.04,same
0,207,catch,"[(1122, 840)]",[],[1],[],vertical,"(390.0, 262.0)",1.7,nan,1,2434.07,1,0.04,same
0,208,catch,"[(1160, 787)]",[],[1],[],vertical,"(390.0, 262.0)",1.7,nan,1,3335.605,1,0.04,same
0,209,valid,"[(1171, 774)]",[],[1],[0.6666666666666666],vertical,"(390.0, 762.0)",0.8,0.627,1,3340.641,1,0.04,same
0,210,valid,"[(1155, 787)]",[],[1],[0.48333333333333334],vertical,"(390.0, 762.0)",0.6833333333333333,0.447,1,3345.456,2,0.02,same
0,211,catch,"[(1156, 780)]",[],[1],[],horizontal,"(890.0, 762.0)",,"('cti', 0.617),nan",0,3350.72,0,0.04,same
0,212,invalid_adjacent_other_bar,"[(1129, 808)]",[],[1],[0.6166666666666667],vertical,"(390.0, 762.0)",0.5833333333333334,0.569,1,3354.654,1,0.04,other
0,213,invalid_same_bar,"[(1158, 799)]",[],[1],[0.5666666666666667],vertical,"(890.0, 762.0)",1.2166666666666666,0.526,1,3359.456,1,0.04,same
0,214,valid,"[(1154, 761)]",[],[1],[0.5333333333333333],horizontal,"(390.0, 762.0)",0.9166666666666666,0.498,1,3364.304,1,0.04,same
0,215,valid,"[(1151, 782)]",[],[1],[],vertical,"(390.0, 762.0)",,"('cti', 0.555)",0,3369.024,0,0.04,same
0,216,valid,"[(1110, 805)]",[],[1],[0.5166666666666666],vertical,"(890.0, 762.0)",1.5333333333333332,0.48,1,3372.824,1,0.04,same
0,217,valid,"[(1129, 774)]",[],[1],[0.6166666666666667],vertical,"(390.0, 262.0)",0.4166666666666667,0.576,1,3378.494,1,0.04,same
0,218,valid,"[(1153, 792)]",[],[1],[0.85],horizontal,"(890.0, 262.0)",1.1666666666666667,nan,0,3383.124,0,0.04,same
0,219,valid,"[(1141, 780)]",[],[1],[0.48333333333333334],horizontal,"(890.0, 262.0)",0.95,0.445,1,3388.206,1,0.04,same
0,220,valid,"[(1172, 797)]",[],[1],[0.5166666666666666],vertical,"(890.0, 762.0)",1.3166666666666667,0.473,1,3393.206,1,0.04,same
0,221,valid,"[(1167, 787)]",[],[1],[0.5],vertical,"(890.0, 262.0)",1.5166666666666666,0.458,1,3398.323,1,0.04,same
0,222,invalid_same_bar,"[(1155, 770)]",[],[1],[0.5333333333333333],horizontal,"(390.0, 762.0)",0.8666666666666667,0.492,1,3403.763,2,0.04,same
0,223,valid,"[(1148, 778)]",[],[1],[0.6666666666666666],horizontal,"(390.0, 262.0)",0.8833333333333333,0.624,1,3408.989,2,0.04,same
0,224,invalid_same_bar,"[(1161, 773)]",[],[1],[0.5],vertical,"(390.0, 262.0)",0.85,0.457,1,3414.483,2,0.04,same
0,225,valid,"[(1152, 783)]",[],[1],[0.6333333333333333],horizontal,"(890.0, 262.0)",0.3833333333333333,0.588,1,3419.516,3,0.04,same
0,226,valid,"[(1156, 808)]",[],[1],[0.85],horizontal,"(390.0, 762.0)",0.9833333333333333,nan,0,3425.191,0,0.04,same
0,227,valid,"[(1128, 773)]",[],[1],[0.85],vertical,"(390.0, 762.0)",0.8833333333333333,nan,0,3430.018,0,0.04,same
0,228,valid,"[(1125, 801)]",[],[1],[0.48333333333333334],horizontal,"(390.0, 762.0)",0.8166666666666667,0.443,1,3434.623,1,0.04,same
0,229,valid,"[(1153, 798)]",[],[1],[0.5166666666666666],vertical,"(890.0, 762.0)",1.35,0.479,1,3439.706,1,0.04,same
0,230,valid,"[(1162, 812)]",[],[1],[0.6166666666666667],vertical,"(390.0, 262.0)",0.7833333333333333,0.572,1,3444.603,1,0.04,same
0,231,valid,"[(1170, 808)]",[],[1],[0.48333333333333334],horizontal,"(890.0, 262.0)",0.9666666666666667,0.441,1,3449.438,2,0.04,same
0,232,valid,"[(1166, 772)]",[],[1],[0.5833333333333334],vertical,"(890.0, 762.0)",1.2666666666666666,0.545,1,3454.489,2,0.04,same
0,233,valid,"[(1155, 771)]",[],[1],[0.5],horizontal,"(890.0, 762.0)",0.7833333333333333,0.458,1,3459.783,2,0.04,same
0,234,valid,"[(1156, 776)]",[],[1],[0.4666666666666667],horizontal,"(890.0, 762.0)",0.48333333333333334,0.433,1,3465.424,3,0.04,same
0,235,valid,"[(1174, 789)]",[],[1],[0.55],vertical,"(890.0, 262.0)",0.6333333333333333,0.511,1,3471.007,3,0.04,same
0,236,valid,"[(1166, 783)]",[],[1],[0.5],horizontal,"(390.0, 262.0)",0.45,0.463,1,3476.573,3,0.04,same
0,237,valid,"[(1154, 798)]",[],[1],[0.5],vertical,"(390.0, 762.0)",0.5666666666666667,0.456,1,3481.522,3,0.04,same
0,238,valid,"[(1154, 781)]",[],[1],[0.85],horizontal,"(390.0, 262.0)",1.1166666666666667,nan,0,3486.712,0,0.04,same
0,239,invalid_adjacent_other_bar,"[(1135, 786)]",[],[1],[0.5333333333333333],horizontal,"(890.0, 262.0)",0.8833333333333333,0.493,1,3491.474,1,0.04,other
0,240,invalid_same_bar,"[(1155, 775)]",[],[1],[0.85],vertical,"(890.0, 762.0)",0.45,nan,0,3496.124,0,0.04,same
0,241,invalid_same_bar,"[(1131, 777)]",[],[1],[0.85],vertical,"(390.0, 762.0)",0.3833333333333333,nan,0,3500.083,0,0.04,same
0,242,valid,"[(1121, 776)]",[],[1],[0.4666666666666667],horizontal,"(890.0, 762.0)",1.5,0.439,1,3504.603,1,0.04,same
0,243,valid,"[(1157, 795)]",[],[1],[0.5],vertical,"(390.0, 762.0)",0.45,0.456,1,3511.941,1,0.04,same
0,244,catch,"[(1152, 771)]",[],[1],[],horizontal,"(890.0, 762.0)",1.7,nan,1,3516.09,1,0.04,same
0,245,valid,"[(1185, 785)]",[],[1],[0.48333333333333334],vertical,"(390.0, 262.0)",1.1,0.446,1,3521.416,2,0.04,same
0,246,valid,"[(1141, 790)]",[],[1],[0.5833333333333334],vertical,"(890.0, 262.0)",0.45,0.539,1,3526.884,2,0.04,same
0,247,catch,"[(1156, 783)]",[],[1],[],vertical,"(890.0, 262.0)",1.7,nan,1,3531.984,2,0.04,same
0,248,valid,"[(1158, 801)]",[],[1],[0.45],horizontal,"(390.0, 262.0)",0.5,0.406,1,3537.307,3,0.04,same
0,249,catch,"[(1154, 773)]",[],[1],[],vertical,"(890.0, 762.0)",1.7,nan,1,3542.768,3,0.04,same
0,250,valid,"[(1157, 772)]",[],[1],[0.6],vertical,"(390.0, 762.0)",1.3833333333333333,0.56,1,3548.956,3,0.04,same
0,251,catch,"[(1150, 774)]",[],[1],[],horizontal,"(890.0, 262.0)",1.7,nan,1,3555.224,3,0.04,same
0,252,catch,"[(1155, 785)]",[],[1],[],horizontal,"(890.0, 262.0)",1.7,nan,1,3561.183,3,0.04,same
0,253,valid,"[(1146, 789)]",[],[1],[0.5],horizontal,"(390.0, 762.0)",1.2166666666666666,0.46,1,3567.007,3,0.04,same
0,254,catch,"[(1136, 774)]",[],[1],[],horizontal,"(390.0, 762.0)",1.7,nan,1,3573.482,3,0.04,same
0,255,valid,"[(1156, 760)]",[],[1],[0.55],horizontal,"(890.0, 262.0)",0.8166666666666667,0.508,1,3579.325,3,0.04,same
0,256,catch,"[(1155, 782)]",[],[1],[],horizontal,"(390.0, 762.0)",1.7,nan,1,3585.015,3,0.02,same
0,257,valid,"[(1160, 791)]",[],[1],[0.5166666666666666],vertical,"(890.0, 262.0)",0.9166666666666666,0.477,1,3590.679,3,0.02,same
0,258,invalid_same_bar,"[(1116, 818)]",[],[1],[0.8333333333333334],vertical,"(390.0, 262.0)",1.45,0.787,1,3596.89,3,0.02,same
0,259,catch,"[(1155, 776)]",[],[1],[],horizontal,"(890.0, 262.0)",1.7,nan,1,3604.25,3,0.02,same
0,260,valid,"[(1156, 778)]",[],[1],[0.3333333333333333],horizontal,"(890.0, 262.0)",1.4833333333333334,0.296,1,3610.386,3,0.02,same
0,261,valid,"[(1155, 774)]",[],[1],[0.85],vertical,"(390.0, 762.0)",0.5,nan,0,3616.816,0,0.0,same
0,262,catch,"[(1128, 799)]",[],[1],[],vertical,"(890.0, 762.0)",1.7,nan,1,3620.824,1,0.0,same
0,263,valid,"[(1160, 791)]",[],[1],[0.5],horizontal,"(890.0, 262.0)",1.2333333333333334,0.467,1,3626.347,1,0.0,same
0,264,catch,"[(1172, 778)]",[],[1],[],vertical,"(390.0, 762.0)",1.7,nan,1,3631.47,1,0.0,same
0,265,valid,"[(1131, 774)]",[],[1],[0.45],horizontal,"(890.0, 262.0)",0.9,0.411,1,3636.503,2,0.0,same
0,266,valid,"[(1154, 766)]",[],[1],[0.4166666666666667],vertical,"(390.0, 262.0)",0.6,0.376,1,3642.129,2,0.0,same
0,267,catch,"[(1155, 804)]",[],[1],[],horizontal,"(390.0, 262.0)",1.7,nan,1,3646.608,2,0.0,same
0,268,catch,"[(1155, 811)]",[],[1],[],vertical,"(890.0, 262.0)",1.7,nan,1,3652.214,3,0.0,same
0,269,catch,"[(1157, 778)]",[],[1],[],vertical,"(390.0, 762.0)",1.7,nan,1,3658.411,3,0.0,same
0,270,catch,"[(1154, 783)]",[],[1],[],horizontal,"(390.0, 262.0)",,"('cti', 1.633),nan",0,3664.691,0,0.02,same
0,271,valid,"[(1151, 801)]",[],[1],[0.5166666666666666],horizontal,"(890.0, 262.0)",0.4666666666666667,0.478,1,3669.724,1,0.02,same
0,272,catch,"[(1172, 775)]",[],[1],[],vertical,"(890.0, 262.0)",1.7,nan,1,3674.414,1,0.02,same
0,273,catch,"[(1152, 781)]",[],[1],[],vertical,"(390.0, 262.0)",,"('cti', 1.619),nan",0,3679.619,0,0.04,same
0,274,catch,"[(1155, 792)]",[],[1],[],vertical,"(890.0, 262.0)",1.7,nan,1,3684.021,1,0.04,same
0,275,valid,"[(1154, 773)]",[],[1],[0.5],vertical,"(890.0, 762.0)",0.7333333333333333,0.461,1,3689.323,1,0.04,same
0,276,valid,"[(1160, 769)]",[],[1],[0.85],horizontal,"(390.0, 762.0)",0.43333333333333335,nan,0,3693.841,0,0.04,same
0,277,valid,"[(1126, 763)]",[],[1],[0.85],horizontal,"(390.0, 762.0)",0.7,nan,0,3698.024,0,0.04,same
0,278,valid,"[(1130, 790)]",[],[1],[0.6666666666666666],vertical,"(890.0, 762.0)",0.43333333333333335,0.627,1,3702.441,1,0.04,same
0,279,catch,"[(1160, 771)]",[],[1],[],horizontal,"(890.0, 762.0)",1.7,nan,1,3707.307,1,0.04,same
0,280,catch,"[(1175, 783)]",[],[1],[],horizontal,"(890.0, 262.0)",1.7,nan,1,3712.207,1,0.04,same
0,281,valid,"[(1155, 791)]",[],[1],[0.5833333333333334],vertical,"(890.0, 762.0)",1.3333333333333333,0.545,1,3717.224,2,0.04,same
0,282,valid,"[(1162, 786)]",[],[1],[0.5833333333333334],vertical,"(890.0, 762.0)",1.4166666666666667,0.54,1,3723.144,2,0.04,same
0,283,valid,"[(1155, 802)]",[],[1],[0.6666666666666666],vertical,"(390.0, 262.0)",1.45,0.627,1,3728.992,2,0.04,same
0,284,catch,"[(1130, 796)]",[],[1],[],horizontal,"(890.0, 762.0)",1.7,nan,1,3735.483,3,0.04,same
0,285,valid,"[(1180, 790)]",[],[1],[0.1],vertical,"(390.0, 762.0)",1.0166666666666666,0.066,0,3741.374,0,0.04,same
0,286,valid,"[(1131, 776)]",[],[1],[0.5833333333333334],horizontal,"(890.0, 762.0)",0.45,0.538,1,3745.702,1,0.04,same
0,287,valid,"[(1175, 796)]",[],[1],[0.5166666666666666],horizontal,"(390.0, 262.0)",1.4333333333333333,0.483,1,3749.736,1,0.04,same
0,288,catch,"[(1155, 783)]",[],[1],[],vertical,"(390.0, 262.0)",1.7,nan,1,3754.947,1,0.04,same
0,289,catch,"[(1155, 766)]",[],[1],[],horizontal,"(390.0, 762.0)",1.7,nan,1,3760.249,2,0.04,same
0,290,valid,"[(1154, 777)]",[],[1],[0.65],horizontal,"(890.0, 262.0)",0.4666666666666667,0.607,1,3765.536,2,0.04,same
0,291,valid,"[(1157, 784)]",[],[1],[0.4666666666666667],horizontal,"(390.0, 762.0)",1.05,0.429,1,3770.823,2,0.04,same
0,292,valid,"[(1141, 761)]",[],[1],[0.5],horizontal,"(390.0, 262.0)",0.6,0.459,1,3776.52,3,0.04,same
0,293,catch,"[(1158, 776)]",[],[1],[],horizontal,"(890.0, 762.0)",1.7,nan,1,3781.625,3,0.04,same
0,294,catch,"[(1155, 786)]",[],[1],[],vertical,"(390.0, 762.0)",1.7,nan,1,3787.556,3,0.04,same
0,295,invalid_same_bar,"[(1171, 774)]",[],[1],[0.5666666666666667],vertical,"(890.0, 762.0)",0.8833333333333333,0.524,1,3793.874,3,0.04,same
0,296,valid,"[(1155, 785)]",[],[1],[0.5166666666666666],vertical,"(390.0, 262.0)",1.4166666666666667,0.476,1,3799.558,3,0.04,same
0,297,valid,"[(1155, 778)]",[],[1],[0.5166666666666666],vertical,"(890.0, 262.0)",1.3,0.477,1,3805.891,3,0.04,same
0,298,invalid_adjacent_other_bar,"[(1158, 781)]",[],[1],[0.55],vertical,"(390.0, 262.0)",1.5333333333333332,0.51,1,3812.085,3,0.04,other
0,299,valid,"[(1131, 789)]",[],[1],[0.5833333333333334],vertical,"(390.0, 762.0)",0.9333333333333333,0.542,1,3818.324,3,0.04,same
0,300,valid,"[(1145, 855)]",[],[1],[0.36666666666666664],vertical,"(390.0, 262.0)",0.5666666666666667,0.327,1,3824.508,3,0.04,same
0,301,catch,"[(1096, 860)]",[],[1],[],vertical,"(890.0, 262.0)",1.7,nan,1,4001.39,3,0.04,same
0,302,valid,"[(1146, 806)]",[],[1],[0.5666666666666667],vertical,"(890.0, 762.0)",0.4166666666666667,0.526,1,4311.353,3,0.04,same
0,303,valid,"[(1166, 799)]",[],[1],[0.48333333333333334],vertical,"(890.0, 262.0)",1.3,0.442,1,4316.443,3,0.04,same
0,304,catch,"[(1166, 785)]",[],[1],[],horizontal,"(390.0, 762.0)",1.7,nan,1,4322.516,3,0.04,same
0,305,catch,"[(1128, 779)]",[],[1],[],horizontal,"(890.0, 762.0)",1.7,nan,1,4328.393,3,0.04,same
0,306,catch,"[(1173, 795)]",[],[1],[],vertical,"(890.0, 762.0)",1.7,nan,1,4334.056,3,0.04,same
0,307,invalid_same_bar,"[(1159, 787)]",[],[1],[0.48333333333333334],horizontal,"(890.0, 262.0)",1.2,0.442,1,4339.499,3,0.04,same
0,308,catch,"[(1155, 787)]",[],[1],[],horizontal,"(390.0, 762.0)",1.7,nan,1,4345.442,3,0.04,same
0,309,catch,"[(1174, 794)]",[],[1],[],horizontal,"(390.0, 262.0)",1.7,nan,1,4351.426,3,0.04,same
0,310,valid,"[(1176, 813)]",[],[1],[0.5333333333333333],vertical,"(390.0, 762.0)",1.4,0.494,1,4357.617,3,0.04,same
0,311,invalid_same_bar,"[(1155, 796)]",[],[1],[0.6666666666666666],horizontal,"(390.0, 762.0)",1.1,0.618,1,4363.91,3,0.04,same
0,312,invalid_adjacent_other_bar,"[(1175, 797)]",[],[1],[0.5],horizontal,"(890.0, 762.0)",0.35,0.454,1,4369.894,3,0.04,other
0,313,valid,"[(1172, 774)]",[],[1],[0.5166666666666666],vertical,"(890.0, 762.0)",1.1833333333333333,0.471,1,4374.943,3,0.04,same
0,314,catch,"[(1170, 781)]",[],[1],[],vertical,"(890.0, 762.0)",1.7,nan,1,4380.777,3,0.04,same
0,315,valid,"[(1175, 773)]",[],[1],[0.5333333333333333],vertical,"(390.0, 262.0)",0.6166666666666667,0.496,1,4386.896,3,0.04,same
0,316,valid,"[(1175, 792)]",[],[1],[0.48333333333333334],vertical,"(390.0, 262.0)",0.3833333333333333,0.444,1,4392.639,3,0.04,same
0,317,invalid_same_bar,"[(1172, 772)]",[],[1],[0.55],horizontal,"(390.0, 762.0)",1.4166666666666667,0.507,1,4397.711,3,0.04,same
0,318,valid,"[(1164, 774)]",[],[1],[0.5],horizontal,"(890.0, 262.0)",1.1333333333333333,0.457,1,4403.839,3,0.04,same
0,319,valid,"[(1166, 777)]",[],[1],[0.48333333333333334],vertical,"(890.0, 762.0)",0.7666666666666666,0.442,1,4410.093,3,0.04,same
0,320,valid,"[(1173, 777)]",[],[1],[0.5333333333333333],horizontal,"(890.0, 762.0)",0.9333333333333333,0.487,1,4415.411,3,0.02,same
0,321,catch,"[(1151, 776)]",[],[1],[],vertical,"(890.0, 262.0)",1.7,nan,1,4421.149,3,0.02,same
0,322,catch,"[(1175, 772)]",[],[1],[],vertical,"(890.0, 762.0)",1.7,nan,1,4426.858,3,0.02,same
0,323,valid,"[(1157, 768)]",[],[1],[0.85],vertical,"(390.0, 262.0)",0.8666666666666667,nan,0,4432.975,0,0.0,same
0,324,catch,"[(1133, 780)]",[],[1],[],vertical,"(390.0, 262.0)",1.7,nan,1,4437.292,1,0.0,same
0,325,valid,"[(1180, 770)]",[],[1],[0.55],vertical,"(890.0, 762.0)",1.1833333333333333,0.506,1,4443.044,1,0.0,same
0,326,valid,"[(1162, 778)]",[],[1],[0.48333333333333334],horizontal,"(390.0, 762.0)",0.8,0.442,1,4448.01,1,0.0,same
0,327,valid,"[(1170, 776)]",[],[1],[0.5166666666666666],horizontal,"(390.0, 262.0)",1.3166666666666667,0.476,1,4452.938,2,0.0,same
0,328,valid,"[(1158, 766)]",[],[1],[0.6333333333333333],horizontal,"(890.0, 762.0)",0.35,0.587,1,4458.779,2,0.0,same
0,329,valid,"[(1175, 787)]",[],[1],[0.45],horizontal,"(390.0, 262.0)",1.4,0.408,1,4463.299,2,0.0,same
0,330,valid,"[(1170, 794)]",[],[1],[0.5],horizontal,"(890.0, 762.0)",0.75,0.457,1,4469.289,3,0.0,same
0,331,valid,"[(1170, 796)]",[],[1],[0.5166666666666666],vertical,"(890.0, 262.0)",0.55,0.473,1,4475.044,3,0.0,same
0,332,valid,"[(1175, 777)]",[],[1],[0.5],vertical,"(390.0, 262.0)",0.4166666666666667,0.455,1,4480.648,3,0.0,same
0,333,valid,"[(1170, 775)]",[],[1],[0.6],horizontal,"(890.0, 762.0)",1.0833333333333333,0.554,1,4485.81,3,0.0,same
0,334,catch,"[(1156, 766)]",[],[1],[],vertical,"(890.0, 262.0)",1.7,nan,1,4491.85,3,0.0,same
0,335,valid,"[(1176, 759)]",[],[1],[0.5],vertical,"(890.0, 762.0)",0.7166666666666667,0.47,1,4497.51,3,0.0,same
0,336,catch,"[(1138, 783)]",[],[1],[],vertical,"(390.0, 262.0)",,"('cti', 1.288),nan",0,4502.525,0,0.02,same
0,337,valid,"[(1131, 795)]",[],[1],[0.5833333333333334],horizontal,"(890.0, 262.0)",1.3,0.54,1,4507.311,1,0.02,same
0,338,invalid_adjacent_other_bar,"[(1158, 791)]",[],[1],[0.5166666666666666],horizontal,"(390.0, 262.0)",0.9333333333333333,0.476,1,4512.951,1,0.02,other
0,339,valid,"[(1126, 809)]",[],[1],[0.4666666666666667],horizontal,"(390.0, 262.0)",0.9833333333333333,0.421,1,4517.725,1,0.02,same
0,340,valid,"[(1164, 789)]",[],[1],[0.85],vertical,"(390.0, 262.0)",1.1333333333333333,nan,0,4539.02,0,0.02,same
0,341,valid,"[(1160, 777)]",[],[1],[0.5],horizontal,"(890.0, 762.0)",0.5166666666666666,0.455,1,4543.867,1,0.02,same
0,342,valid,"[(1134, 796)]",[],[1],[0.4666666666666667],vertical,"(390.0, 762.0)",1.5166666666666666,0.429,1,4548.678,1,0.02,same
0,343,valid,"[(1180, 781)]",[],[1],[0.55],vertical,"(890.0, 262.0)",1.3166666666666667,0.505,1,4554.073,1,0.02,same
0,344,invalid_same_bar,"[(1155, 777)]",[],[1],[0.5],vertical,"(890.0, 762.0)",1.2166666666666666,0.458,1,4559.388,2,0.02,same
0,345,valid,"[(1174, 801)]",[],[1],[0.5],horizontal,"(890.0, 262.0)",1.3166666666666667,0.457,1,4564.827,2,0.02,same
0,346,valid,"[(1171, 777)]",[],[1],[0.5166666666666666],vertical,"(890.0, 262.0)",1.2833333333333332,0.482,1,4570.343,2,0.02,same
0,347,valid,"[(1161, 784)]",[],[1],[0.48333333333333334],horizontal,"(390.0, 762.0)",1.1166666666666667,0.438,1,4575.625,3,0.02,same
0,348,valid,"[(1170, 767)]",[],[1],[0.85],vertical,"(890.0, 762.0)",1.2666666666666666,nan,0,4581.244,0,0.02,same
0,349,valid,"[(1127, 803)]","[(1118, 871)]",[1],[0.8],vertical,"(890.0, 262.0)",,"('bar', 0.81)",0,4586.276,0,0.02,same
0,350,valid,"[(1081, 804)]",[],[1],[0.5666666666666667],vertical,"(890.0, 262.0)",0.9166666666666666,0.522,1,4608.411,1,0.02,same
0,351,valid,"[(1171, 817)]",[],[1],[0.5833333333333334],horizontal,"(390.0, 762.0)",0.7833333333333333,0.543,1,4613.727,1,0.02,same
0,352,catch,"[(1177, 772)]",[],[1],[],horizontal,"(890.0, 762.0)",1.7,nan,1,4619.093,1,0.02,same
0,353,valid,"[(1176, 775)]",[],[1],[0.6],vertical,"(890.0, 262.0)",0.45,0.555,1,4624.71,2,0.02,same
0,354,catch,"[(1164, 778)]",[],[1],[],horizontal,"(390.0, 762.0)",1.7,nan,1,4630.157,2,0.02,same
0,355,invalid_adjacent_other_bar,"[(1175, 785)]",[],[1],[0.4666666666666667],horizontal,"(390.0, 262.0)",0.4166666666666667,0.422,1,4635.868,2,0.02,other
0,356,valid,"[(1160, 778)]",[],[1],[0.6166666666666667],vertical,"(390.0, 762.0)",1.1166666666666667,0.574,1,4640.302,3,0.02,same
0,357,valid,"[(1185, 784)]","[(1170, 839)]",[1],[0.4166666666666667],vertical,"(890.0, 262.0)",,"('bar', 0.426)",0,4646.876,0,0.02,same
0,358,catch,"[(1128, 808)]",[],[1],[],vertical,"(390.0, 262.0)",1.7,nan,1,4649.26,1,0.02,same
0,359,valid,"[(1175, 785)]",[],[1],[],vertical,"(390.0, 262.0)",,"('fix', 0.394)",0,4655.329,0,0.02,same
0,360,valid,"[(1145, 781)]",[],[1],[0.5166666666666666],vertical,"(890.0, 762.0)",1.5166666666666666,0.477,1,4657.502,1,0.02,same
0,361,invalid_adjacent_other_bar,"[(1157, 779)]",[],[1],[0.48333333333333334],vertical,"(890.0, 262.0)",0.5333333333333333,0.442,1,4662.77,1,0.02,other
0,362,valid,"[(1160, 776)]",[],[1],[0.5],horizontal,"(390.0, 762.0)",0.48333333333333334,0.463,1,4667.388,1,0.02,same
0,363,valid,"[(1158, 762)]",[],[1],[0.5666666666666667],horizontal,"(890.0, 762.0)",0.85,0.528,1,4672.15,2,0.02,same
0,364,valid,"[(1170, 792)]",[],[1],[0.85],vertical,"(390.0, 762.0)",0.9166666666666666,nan,0,4677.368,0,0.02,same
0,365,valid,"[(1131, 759)]",[],[1],[0.4666666666666667],horizontal,"(890.0, 262.0)",0.7666666666666666,0.433,1,4682.077,1,0.02,same
0,366,valid,"[(1171, 778)]",[],[1],[0.4666666666666667],vertical,"(390.0, 762.0)",0.7333333333333333,0.428,1,4686.963,1,0.02,same
0,367,valid,"[(1158, 755)]",[],[1],[0.4666666666666667],horizontal,"(390.0, 762.0)",0.75,0.422,1,4691.615,1,0.02,same
0,368,valid,"[(1159, 790)]",[],[1],[0.5833333333333334],horizontal,"(390.0, 262.0)",1.2833333333333332,0.544,1,4696.077,2,0.02,same
0,369,valid,"[(1160, 776)]",[],[1],[0.5166666666666666],horizontal,"(890.0, 262.0)",1.2,0.477,1,4702.001,2,0.02,same
0,370,catch,"[(1134, 829)]",[],[1],[],vertical,"(390.0, 262.0)",1.7,nan,1,4707.247,2,0.02,same
0,371,valid,"[(1169, 811)]",[],[1],[0.85],horizontal,"(890.0, 762.0)",0.8833333333333333,nan,0,4713.205,0,0.02,same
0,372,valid,"[(1111, 775)]",[],[1],[0.85],horizontal,"(890.0, 762.0)",0.75,nan,0,4718.335,0,0.02,same
0,373,invalid_adjacent_other_bar,"[(1158, 792)]",[],[1],[0.5166666666666666],horizontal,"(390.0, 262.0)",0.35,0.471,1,4722.627,1,0.02,other
0,374,valid,"[(1166, 779)]",[],[1],[0.5833333333333334],horizontal,"(390.0, 762.0)",1.5166666666666666,0.542,1,4727.81,1,0.02,same
0,375,valid,"[(1158, 786)]",[],[1],[0.5],vertical,"(890.0, 262.0)",1.3,0.458,1,4733.437,1,0.02,same
0,376,valid,"[(1172, 799)]",[],[1],[0.5166666666666666],horizontal,"(390.0, 262.0)",0.8833333333333333,0.478,1,4738.44,2,0.02,same
0,377,valid,"[(1136, 838)]",[],[1],[0.4666666666666667],horizontal,"(390.0, 762.0)",0.4166666666666667,0.422,1,4743.745,2,0.02,same
0,378,invalid_same_bar,"[(1159, 785)]",[],[1],[0.5],vertical,"(390.0, 762.0)",1.4666666666666666,0.461,1,4748.628,2,0.02,same
0,379,valid,"[(1160, 769)]",[],[1],[0.5],vertical,"(390.0, 262.0)",1.4166666666666667,0.463,1,4754.424,3,0.02,same
0,380,catch,"[(1176, 765)]",[],[1],[],vertical,"(390.0, 762.0)",1.7,nan,1,4760.679,3,0.02,same
0,381,valid,"[(1161, 790)]",[],[1],[0.5833333333333334],horizontal,"(890.0, 762.0)",0.36666666666666664,0.555,1,4766.978,3,0.02,same
0,382,catch,"[(1160, 786)]",[],[1],[],vertical,"(890.0, 262.0)",1.7,nan,1,4772.595,3,0.02,same
0,383,catch,"[(1162, 786)]",[],[1],[],horizontal,"(390.0, 762.0)",1.7,nan,1,4778.31,3,0.02,same
0,384,valid,"[(1159, 772)]",[],[1],[0.5166666666666666],horizontal,"(890.0, 762.0)",0.8333333333333334,0.477,1,4783.957,3,0.02,same
0,385,valid,"[(1162, 786)]",[],[1],[0.6],vertical,"(890.0, 762.0)",0.9666666666666667,0.551,1,4789.727,3,0.02,same
0,386,valid,"[(1155, 779)]",[],[1],[0.48333333333333334],vertical,"(890.0, 262.0)",0.5666666666666667,0.444,1,4795.466,3,0.0,same
0,387,valid,"[(1166, 771)]",[],[1],[0.85],horizontal,"(890.0, 262.0)",0.55,nan,0,4800.812,0,0.0,same
0,388,catch,"[(1132, 776)]",[],[1],[],horizontal,"(390.0, 762.0)",1.7,nan,1,4805.378,1,0.0,same
0,389,valid,"[(1157, 799)]",[],[1],[0.5333333333333333],horizontal,"(390.0, 262.0)",1.0,0.491,1,4810.961,1,0.0,same
0,390,catch,"[(1160, 767)]",[],[1],[],vertical,"(390.0, 762.0)",1.7,nan,1,4816.294,1,0.0,same
0,391,valid,"[(1175, 798)]",[],[1],[0.5166666666666666],vertical,"(890.0, 762.0)",1.4833333333333334,0.474,1,4821.91,2,0.0,same
0,392,valid,"[(1158, 766)]",[],[1],[0.48333333333333334],horizontal,"(390.0, 762.0)",1.5166666666666666,0.453,1,4827.712,2,0.0,same
0,393,valid,"[(1159, 789)]",[],[1],[0.48333333333333334],vertical,"(390.0, 762.0)",0.6833333333333333,0.444,1,4833.422,2,0.0,same
0,394,valid,"[(1130, 813)]",[],[1],[0.21666666666666667],vertical,"(890.0, 262.0)",1.5166666666666666,0.18,0,4838.941,0,0.0,same
0,395,valid,"[(1124, 778)]",[],[1],[0.48333333333333334],horizontal,"(890.0, 262.0)",1.5,0.441,1,4844.278,1,0.0,same
0,396,catch,"[(1175, 777)]",[],[1],[],horizontal,"(390.0, 762.0)",1.7,nan,1,4849.752,1,0.0,same
0,397,valid,"[(1157, 767)]",[],[1],[0.7],vertical,"(390.0, 262.0)",0.8,0.654,1,4854.512,1,0.0,same
0,398,valid,"[(1128, 857)]",[],[1],[0.5166666666666666],vertical,"(890.0, 762.0)",0.6,0.477,1,4859.427,2,0.0,same
0,399,catch,"[(1162, 796)]",[],[1],[],vertical,"(390.0, 262.0)",1.7,nan,1,4864.562,2,0.0,same
0,400,valid,"[(1157, 772)]",[],[1],[0.6833333333333333],vertical,"(890.0, 762.0)",0.6666666666666666,0.643,1,4870.278,2,0.0,same
0,401,valid,"[(1126, 792)]",[],[1],[0.4666666666666667],vertical,"(390.0, 262.0)",1.4166666666666667,0.426,1,4875.553,3,0.0,same
0,402,valid,"[(1141, 796)]",[],[1],[0.55],vertical,"(390.0, 262.0)",0.4,0.509,1,4882.093,3,0.0,same
0,403,catch,"[(1177, 798)]",[],[1],[],vertical,"(890.0, 262.0)",1.7,nan,1,4887.11,3,0.0,same
0,404,valid,"[(1165, 780)]",[],[1],[0.5666666666666667],vertical,"(390.0, 762.0)",0.9833333333333333,0.523,1,4892.729,3,0.0,same
0,405,valid,"[(1175, 776)]",[],[1],[0.6333333333333333],vertical,"(890.0, 762.0)",1.0666666666666667,0.601,1,4898.487,3,0.0,same
0,406,valid,"[(1158, 762)]",[],[1],[0.85],horizontal,"(390.0, 762.0)",1.25,nan,0,4904.344,0,0.0,same
0,407,valid,"[(1126, 779)]",[],[1],[0.6],horizontal,"(890.0, 762.0)",1.0666666666666667,0.561,1,4908.995,1,0.0,same
0,408,invalid_same_bar,"[(1159, 769)]",[],[1],[0.5166666666666666],horizontal,"(890.0, 262.0)",1.3,0.475,1,4914.307,1,0.0,same
0,409,catch,"[(1136, 764)]",[],[1],[],horizontal,"(890.0, 262.0)",1.7,nan,1,4919.689,1,0.0,same
0,410,valid,"[(1151, 777)]",[],[1],[0.55],horizontal,"(390.0, 262.0)",0.7,0.509,1,4924.915,2,0.0,same
0,411,valid,"[(1160, 821)]",[],[1],[0.6],horizontal,"(390.0, 262.0)",0.5333333333333333,0.564,1,4929.821,2,0.0,same
0,412,valid,"[(1172, 799)]",[],[1],[0.5166666666666666],horizontal,"(890.0, 262.0)",0.5666666666666667,0.479,1,4934.622,2,0.0,same
0,413,catch,"[(1163, 786)]",[],[1],[],vertical,"(890.0, 762.0)",1.7,nan,1,4939.597,3,0.0,same
0,414,invalid_adjacent_other_bar,"[(1142, 792)]",[],[1],[0.4666666666666667],horizontal,"(390.0, 262.0)",0.9666666666666667,0.428,1,4946.043,3,0.0,other
0,415,valid,"[(1160, 788)]",[],[1],[0.5166666666666666],horizontal,"(890.0, 762.0)",1.0833333333333333,0.484,1,4951.794,3,0.0,same
0,416,invalid_same_bar,"[(1159, 807)]",[],[1],[0.5666666666666667],vertical,"(890.0, 262.0)",1.0,0.528,1,4957.555,3,0.0,same
0,417,catch,"[(1165, 792)]",[],[1],[],vertical,"(390.0, 262.0)",1.7,nan,1,4963.712,3,0.0,same
0,418,valid,"[(1175, 777)]",[],[1],[0.55],horizontal,"(890.0, 762.0)",1.3666666666666667,0.512,1,4969.689,3,0.0,same
0,419,valid,"[(1121, 812)]",[],[1],[0.48333333333333334],vertical,"(390.0, 762.0)",0.7666666666666666,0.445,1,4975.743,3,0.0,same
0,420,valid,"[(1166, 790)]",[],[1],[0.5833333333333334],horizontal,"(890.0, 262.0)",0.7666666666666666,0.542,1,4982.02,3,0.0,same
0,421,valid,"[(1160, 794)]",[],[1],[0.85],horizontal,"(390.0, 262.0)",0.6833333333333333,nan,0,4987.545,0,0.0,same
0,422,valid,"[(1073, 799)]",[],[1],[0.5],vertical,"(390.0, 762.0)",1.2166666666666666,0.458,1,4992.143,1,0.0,same
0,423,valid,"[(1159, 786)]",[],[1],[0.45],horizontal,"(890.0, 762.0)",1.5166666666666666,0.409,1,4997.361,1,0.0,same
0,424,valid,"[(1157, 772)]",[],[1],[0.45],horizontal,"(890.0, 262.0)",0.7,0.414,1,5003.308,1,0.0,same
0,425,catch,"[(1166, 786)]",[],[1],[],vertical,"(890.0, 762.0)",,"('cti', 1.036),nan",0,5008.167,0,0.02,same
0,426,valid,"[(1160, 790)]",[],[1],[0.6],horizontal,"(890.0, 262.0)",0.65,0.553,1,5012.561,1,0.02,same
0,427,valid,"[(1154, 812)]",[],[1],[0.5166666666666666],vertical,"(390.0, 262.0)",1.2666666666666666,0.479,1,5017.074,1,0.02,same
0,428,catch,"[(1158, 794)]",[],[1],[],horizontal,"(390.0, 762.0)",,"('fix', 0.314),nan",0,5022.414,0,0.04,same
0,429,valid,"[(1128, 803)]",[],[1],[],horizontal,"(390.0, 262.0)",,"('fix', 0.195)",0,5415.964,0,0.04,same
0,430,catch,"[(1012, 782)]",[],[1],[],horizontal,"(390.0, 762.0)",,"('fix', 0.199),nan",0,5432.513,0,0.06,same
0,431,valid,"[(993, 751), (1091, 763)]",[],"[0, 1]",[],vertical,"(390.0, 762.0)",,"('fix', 0.198)",0,5435.066,0,0.06,same
0,432,valid,"[(1092, 777)]",[],[1],[],horizontal,"(390.0, 262.0)",,"('fix', 0.149)",0,5438.092,0,0.06,same
0,433,catch,"[(1110, 922)]",[],[1],[],vertical,"(390.0, 262.0)",,"('fix', 0.068),nan",0,5442.396,0,0.08,same
0,434,catch,"[(998, 756), (1086, 917)]",[],"[0, 1]",[],horizontal,"(890.0, 762.0)",,"('fix', 0.016),nan",0,5483.289,0,0.1,same
0,435,valid,"[(993, 753), (1057, 743), (1104, 846)]",[],"[0, 0, 1]",[],vertical,"(890.0, 262.0)",,"('fix', 0.181)",0,5581.528,0,0.1,same
0,436,valid,"[(1150, 814)]",[],[1],[],vertical,"(390.0, 262.0)",,"('fix', 0.15)",0,5601.697,0,0.1,same
0,437,valid,"[(1105, 768)]","[(1064, 788)]",[1],[0.06666666666666667],vertical,"(890.0, 262.0)",,"('bar', 0.083)",0,5603.813,0,0.1,same
0,438,valid,"[(993, 782), (992, 761), (1071, 758)]",[],"[0, 0, 1]",[],horizontal,"(890.0, 762.0)",,"('fix', 0.183)",0,10014.25,0,0.1,same
0,439,valid,"[(1103, 777)]",[],[1],[],horizontal,"(390.0, 762.0)",,"('fix', 0.303)",0,10017.97,0,0.1,same
0,440,invalid_same_bar,"[(1017, 905)]",[],[1],[],vertical,"(890.0, 762.0)",,"('fix', 0.198)",0,10027.738,0,0.1,same
0,441,invalid_adjacent_other_bar,"[(1084, 832)]",[],[1],[],horizontal,"(390.0, 262.0)",,"('fix', 0.31)",0,10029.611,0,0.1,other
0,442,invalid_same_bar,"[(1092, 808)]",[],[1],[],horizontal,"(890.0, 762.0)",,"('fix', 0.202)",0,10032.109,0,0.1,same
0,443,valid,"[(1079, 910)]",[],[1],[],horizontal,"(890.0, 262.0)",,"('fix', 0.214)",0,10034.295,0,0.1,same
0,444,valid,"[(1038, 870)]",[],[1],[],vertical,"(390.0, 262.0)",,"('fix', 0.624)",0,10037.243,0,0.1,same
0,445,invalid_same_bar,"[(1013, 739), (1106, 829)]",[],"[0, 1]",[],vertical,"(890.0, 262.0)",,"('fix', 0.116)",0,10040.126,0,0.1,same
0,446,valid,"[(1030, 811)]",[],[1],[],vertical,"(890.0, 762.0)",,"('fix', 0.1)",0,10043.918,0,0.1,same
0,447,valid,"[(1166, 802)]",[],[1],[],horizontal,"(890.0, 762.0)",,"('fix', 0.21)",0,10046.993,0,0.1,same
0,448,valid,"[(1121, 826)]",[],[1],[],vertical,"(890.0, 262.0)",,"('fix', 0.069)",0,10327.201,0,0.1,same
0,449,valid,"[(1049, 771)]",[],[1],[],horizontal,"(390.0, 262.0)",,"('fix', 0.212)",0,10512.425,0,0.1,same
0,450,catch,"[(1083, 829)]",[],[1],[],vertical,"(890.0, 762.0)",,"('fix', 0.211),nan",0,10515.401,0,0.12,same
0,451,valid,"[(1002, 749), (1104, 843)]",[],"[0, 1]",[0.85],horizontal,"(890.0, 762.0)",0.5166666666666666,nan,0,10517.498,0,0.12,same
0,452,valid,"[(1079, 815)]",[],[1],[],vertical,"(390.0, 262.0)",,"('fix', 0.131)",0,10523.647,0,0.12,same
0,453,valid,"[(1090, 877)]","[(1066, 881)]",[1],[0.9],horizontal,"(890.0, 762.0)",,"('bar', 0.904)",0,10527.38,0,0.12,same
0,454,valid,"[(1079, 851)]",[],[1],[],horizontal,"(890.0, 762.0)",,"('fix', 0.213)",0,10530.956,0,0.12,same
0,455,valid,"[(1027, 955), (1172, 806)]",[],"[0, 1]",[],horizontal,"(890.0, 262.0)",,"('fix', 0.199)",0,10532.966,0,0.12,same
0,456,valid,"[(1102, 779)]",[],[1],[],vertical,"(390.0, 762.0)",,"('fix', 0.196)",0,10536.874,0,0.12,same
0,457,valid,"[(1081, 842), (1091, 855)]",[],"[1, 1]",[0.85],vertical,"(890.0, 762.0)",0.4666666666666667,nan,0,10544.916,0,0.12,same
0,458,valid,"[(1090, 837)]",[],[1],[],vertical,"(390.0, 762.0)",,"('fix', 0.195)",0,10587.661,0,0.12,same
0,459,valid,"[(1011, 821)]",[],[1],[],vertical,"(890.0, 762.0)",,"('fix', 0.066)",0,10589.793,0,0.12,same
0,460,catch,"[(1159, 777)]",[],[1],[],vertical,"(390.0, 762.0)",,"('fix', 0.197),nan",0,10591.406,0,0.14,same
0,461,valid,"[(1084, 891)]",[],[1],[],horizontal,"(390.0, 762.0)",,"('fix', 0.084)",0,10594.246,0,0.14,same
0,462,valid,"[(1121, 931)]",[],[1],[],horizontal,"(390.0, 762.0)",,"('fix', 0.346)",0,10595.934,0,0.14,same
0,463,invalid_adjacent_other_bar,"[(989, 768), (1081, 797)]",[],"[0, 1]",[],horizontal,"(890.0, 762.0)",,"('fix', 0.211)",0,10619.784,0,0.14,other
0,464,catch,"[(1060, 880)]",[],[1],[],vertical,"(890.0, 762.0)",,"('fix', 0.034),nan",0,10624.054,0,0.16,same
0,465,valid,"[(1152, 894)]",[],[1],[],vertical,"(890.0, 262.0)",,"('fix', 0.364)",0,10625.61,0,0.16,same
0,466,catch,"[(1026, 868)]",[],[1],[],horizontal,"(390.0, 762.0)",,"('fix', 0.329),nan",0,10628.615,0,0.18,same
0,467,valid,"[(1018, 851)]",[],[1],[],vertical,"(890.0, 762.0)",,"('fix', 0.132)",0,10633.346,0,0.18,same
0,468,valid,"[(1075, 825)]",[],[1],[0.85],vertical,"(890.0, 262.0)",0.7333333333333333,nan,0,10757.528,0,0.18,same
0,469,valid,"[(1083, 847)]",[],[1],[0.85],horizontal,"(890.0, 262.0)",1.4333333333333333,nan,0,11289.877,0,0.18,same
0,470,valid,"[(1106, 823)]",[],[1],[0.5666666666666667],horizontal,"(890.0, 262.0)",1.3666666666666667,0.526,1,11297.498,1,0.18,same
0,471,valid,"[(1136, 787)]",[],[1],[0.6166666666666667],horizontal,"(890.0, 262.0)",1.0666666666666667,0.579,1,11302.965,1,0.18,same
0,472,valid,"[(1120, 803)]",[],[1],[0.85],vertical,"(890.0, 762.0)",0.9833333333333333,nan,0,11308.612,0,0.18,same
0,473,valid,"[(1131, 793)]",[],[1],[0.7666666666666666],vertical,"(390.0, 762.0)",0.45,0.726,1,11313.614,1,0.18,same
0,474,catch,"[(1160, 793)]",[],[1],[],horizontal,"(390.0, 262.0)",1.7,nan,1,11318.281,1,0.18,same
0,475,valid,"[(1180, 796)]",[],[1],[0.85],horizontal,"(890.0, 262.0)",1.2333333333333334,nan,0,11323.231,0,0.16,same
0,476,catch,"[(1126, 783)]",[],[1],[],vertical,"(390.0, 762.0)",1.7,nan,1,11328.215,1,0.16,same
0,477,valid,"[(1166, 762)]",[],[1],[0.5166666666666666],vertical,"(390.0, 262.0)",0.8333333333333334,0.476,1,11333.581,1,0.16,same
0,478,valid,"[(1163, 778)]",[],[1],[0.5],vertical,"(890.0, 262.0)",0.36666666666666664,0.461,1,11338.498,1,0.14,same
0,479,invalid_same_bar,"[(1167, 772)]",[],[1],[0.6],horizontal,"(890.0, 762.0)",0.4666666666666667,0.558,1,11343.002,2,0.14,same
0,480,catch,"[(1184, 790)]",[],[1],[],horizontal,"(890.0, 762.0)",1.7,nan,1,11348.552,2,0.12,same
0,481,catch,"[(1112, 819)]",[],[1],[],horizontal,"(890.0, 762.0)",1.7,nan,1,11354.379,2,0.12,same
0,482,valid,"[(1170, 796)]",[],[1],[0.5666666666666667],vertical,"(890.0, 762.0)",1.05,0.524,1,11360.41,3,0.12,same
0,483,valid,"[(1169, 772)]",[],[1],[0.7166666666666667],vertical,"(890.0, 762.0)",0.4666666666666667,0.669,1,11366.315,3,0.1,same
0,484,valid,"[(1162, 769)]",[],[1],[0.6166666666666667],vertical,"(390.0, 762.0)",0.5666666666666667,0.574,1,11371.856,3,0.08,same
0,485,valid,"[(1165, 778)]",[],[1],[0.48333333333333334],vertical,"(890.0, 262.0)",1.1333333333333333,0.442,1,11377.615,3,0.08,same
0,486,catch,"[(1170, 794)]",[],[1],[],horizontal,"(890.0, 762.0)",1.7,nan,1,11383.407,3,0.08,same
0,487,valid,"[(1180, 779)]",[],[1],[0.5166666666666666],horizontal,"(390.0, 762.0)",1.3666666666666667,0.469,1,11389.493,3,0.08,same
0,488,invalid_same_bar,"[(1169, 769)]",[],[1],[0.5833333333333334],vertical,"(390.0, 262.0)",1.1166666666666667,0.547,1,11396.064,3,0.08,same
0,489,valid,"[(1183, 769)]",[],[1],[0.85],horizontal,"(890.0, 762.0)",0.85,nan,0,11402.089,0,0.08,same
0,490,valid,"[(1131, 791)]",[],[1],[0.55],vertical,"(890.0, 262.0)",1.35,0.509,1,11407.025,1,0.08,same
0,491,valid,"[(1169, 786)]",[],[1],[0.5666666666666667],vertical,"(390.0, 262.0)",1.2833333333333332,0.523,1,11412.022,1,0.08,same
0,492,valid,"[(1164, 769)]",[],[1],[0.48333333333333334],horizontal,"(890.0, 262.0)",0.6166666666666667,0.441,1,11417.229,1,0.08,same
0,493,valid,"[(1170, 786)]",[],[1],[0.48333333333333334],horizontal,"(390.0, 262.0)",1.0666666666666667,0.442,1,11421.944,2,0.08,same
0,494,valid,"[(1167, 766)]",[],[1],[0.65],horizontal,"(390.0, 762.0)",0.48333333333333334,0.612,1,11427.161,2,0.08,same
0,495,valid,"[(1163, 795)]",[],[1],[0.5333333333333333],horizontal,"(390.0, 262.0)",1.25,0.492,1,11432.179,2,0.08,same
0,496,valid,"[(1186, 786)]",[],[1],[0.5833333333333334],vertical,"(890.0, 762.0)",0.4,0.546,1,11437.881,3,0.08,same
0,497,valid,"[(1162, 757)]",[],[1],[0.5],horizontal,"(890.0, 762.0)",0.9,0.462,1,11443.189,3,0.08,same
0,498,valid,"[(1170, 765)]",[],[1],[0.55],vertical,"(890.0, 262.0)",1.2666666666666666,0.504,1,11448.68,3,0.08,same
0,499,valid,"[(1165, 772)]",[],[1],[0.85],vertical,"(390.0, 762.0)",0.6166666666666667,nan,0,11454.584,0,0.08,same
0,500,invalid_adjacent_other_bar,"[(1116, 786)]",[],[1],[0.6666666666666666],vertical,"(890.0, 262.0)",1.0666666666666667,0.622,1,11458.732,1,0.06,other
0,501,catch,"[(1185, 775)]",[],[1],[],horizontal,"(390.0, 762.0)",1.7,nan,1,11463.703,1,0.06,same
0,502,valid,"[(1163, 770)]",[],[1],[0.5166666666666666],horizontal,"(390.0, 262.0)",1.2833333333333332,0.47,1,11469.013,1,0.06,same
0,503,catch,"[(1165, 772)]",[],[1],[],horizontal,"(390.0, 262.0)",1.7,nan,1,11474.144,2,0.06,same
0,504,valid,"[(1161, 770)]",[],[1],[0.5666666666666667],vertical,"(390.0, 262.0)",1.1333333333333333,0.53,1,11479.569,2,0.06,same
0,505,valid,"[(1161, 782)]",[],[1],[0.48333333333333334],vertical,"(390.0, 762.0)",1.3666666666666667,0.44,1,11485.292,2,0.06,same
0,506,valid,"[(1200, 801)]",[],[1],[0.6166666666666667],vertical,"(390.0, 262.0)",0.8833333333333333,0.575,1,11491.329,3,0.06,same
0,507,catch,"[(1175, 764)]",[],[1],[],vertical,"(390.0, 262.0)",1.7,nan,1,11496.651,3,0.06,same
0,508,valid,"[(1200, 786)]",[],[1],[],vertical,"(890.0, 762.0)",,"('fix', 0.297)",0,11502.547,0,0.06,same
0,509,valid,"[(1112, 804)]",[],[1],[0.5166666666666666],vertical,"(890.0, 262.0)",0.9333333333333333,0.475,1,11504.384,1,0.06,same
0,510,valid,"[(1155, 776)]",[],[1],[0.6],vertical,"(890.0, 762.0)",0.43333333333333335,0.554,1,11509.403,1,0.04,same
0,511,valid,"[(1159, 786)]",[],[1],[0.5333333333333333],vertical,"(890.0, 262.0)",0.4166666666666667,0.493,1,11514.231,1,0.04,same
0,512,valid,"[(1160, 781)]",[],[1],[0.6],vertical,"(390.0, 262.0)",0.43333333333333335,0.558,1,11518.755,2,0.04,same
0,513,valid,"[(1170, 791)]",[],[1],[0.6],horizontal,"(890.0, 262.0)",0.48333333333333334,0.553,1,11523.905,2,0.04,same
0,514,catch,"[(1112, 807)]",[],[1],[],vertical,"(890.0, 262.0)",,"('cti', 1.675),nan",0,11528.914,0,0.04,same
0,515,valid,"[(1114, 817)]",[],[1],[0.45],horizontal,"(890.0, 762.0)",1.45,0.41,1,11555.326,1,0.04,same
0,516,invalid_adjacent_other_bar,"[(1174, 771)]",[],[1],[0.55],horizontal,"(390.0, 762.0)",1.3833333333333333,0.51,1,11561.079,1,0.02,other
0,517,valid,"[(1159, 805)]",[],[1],[0.6166666666666667],horizontal,"(390.0, 262.0)",0.5333333333333333,0.571,1,11567.014,1,0.02,same
0,518,valid,"[(1167, 793)]",[],[1],[0.6333333333333333],horizontal,"(890.0, 262.0)",0.9166666666666666,0.599,1,11571.279,2,0.02,same
0,519,valid,"[(1155, 787)]",[],[1],[0.65],horizontal,"(390.0, 762.0)",0.8166666666666667,0.611,1,11576.989,2,0.02,same
0,520,valid,"[(1158, 806)]",[],[1],[0.5333333333333333],vertical,"(390.0, 762.0)",0.5333333333333333,0.493,1,11582.593,2,0.02,same
0,521,valid,"[(1165, 796)]",[],[1],[0.85],vertical,"(390.0, 762.0)",1.1333333333333333,nan,0,11587.549,0,0.02,same
0,522,catch,"[(1150, 790)]",[],[1],[],vertical,"(390.0, 762.0)",1.7,nan,1,11592.452,1,0.02,same
0,523,valid,"[(1166, 790)]",[],[1],[0.85],horizontal,"(890.0, 762.0)",1.0166666666666666,nan,0,11597.556,0,0.02,same
0,524,valid,"[(1126, 791)]",[],[1],[0.5833333333333334],vertical,"(390.0, 762.0)",0.9333333333333333,0.544,1,11602.398,1,0.02,same
0,525,valid,"[(1156, 791)]",[],[1],[0.5166666666666666],vertical,"(890.0, 762.0)",1.1,0.475,1,11608.164,1,0.02,same
0,526,valid,"[(1155, 756)]",[],[1],[0.5333333333333333],vertical,"(890.0, 262.0)",1.45,0.493,1,11613.339,1,0.02,same
0,527,valid,"[(1160, 778)]",[],[1],[0.6],vertical,"(890.0, 262.0)",0.7666666666666666,0.559,1,11618.444,2,0.02,same
0,528,valid,"[(1175, 787)]",[],[1],[0.5333333333333333],vertical,"(390.0, 762.0)",1.25,0.491,1,11623.53,2,0.02,same
0,529,valid,"[(1155, 785)]",[],[1],[0.5666666666666667],vertical,"(390.0, 262.0)",1.1666666666666667,0.529,1,11629.309,2,0.02,same
0,530,valid,"[(1156, 785)]",[],[1],[0.85],vertical,"(390.0, 262.0)",0.9166666666666666,nan,0,11635.146,0,0.02,same
0,531,catch,"[(1132, 769)]",[],[1],[],horizontal,"(890.0, 762.0)",1.7,nan,1,11639.864,1,0.02,same
0,532,catch,"[(1180, 791)]",[],[1],[],horizontal,"(390.0, 762.0)",1.7,nan,1,11645.182,1,0.02,same
0,533,valid,"[(1123, 854)]",[],[1],[],horizontal,"(890.0, 262.0)",,"('cti', 0.115)",0,11650.065,0,0.02,same
0,534,valid,"[(1121, 834)]",[],[1],[0.45],horizontal,"(890.0, 262.0)",0.36666666666666664,0.409,1,11653.156,1,0.02,same
0,535,invalid_same_bar,"[(1172, 791)]",[],[1],[0.5166666666666666],vertical,"(890.0, 262.0)",1.2833333333333332,0.474,1,11679.498,1,0.02,same
0,536,catch,"[(1156, 764)]",[],[1],[],horizontal,"(890.0, 762.0)",1.7,nan,1,11685.253,1,0.02,same
0,537,valid,"[(1155, 790)]",[],[1],[0.6],horizontal,"(890.0, 262.0)",0.6166666666666667,0.559,1,11690.681,2,0.02,same
0,538,valid,"[(1186, 777)]",[],[1],[0.85],horizontal,"(890.0, 762.0)",0.3833333333333333,nan,0,11696.156,0,0.02,same
0,539,valid,"[(1115, 775)]",[],[1],[0.85],horizontal,"(890.0, 262.0)",0.35,nan,0,11700.273,0,0.02,same
0,540,valid,"[(1132, 768)]",[],[1],[0.5833333333333334],vertical,"(390.0, 262.0)",0.9166666666666666,0.538,1,11704.249,1,0.02,same
0,541,valid,"[(1169, 773)]",[],[1],[0.85],horizontal,"(890.0, 762.0)",1.1333333333333333,nan,0,11709.565,0,0.02,same
0,542,valid,"[(1155, 786)]",[],[1],[0.85],vertical,"(390.0, 762.0)",0.9,nan,0,11714.702,0,0.02,same
0,543,catch,"[(1118, 811)]",[],[1],[],horizontal,"(390.0, 762.0)",1.7,nan,1,11719.709,1,0.02,same
0,544,valid,"[(1152, 766)]",[],[1],[0.5833333333333334],vertical,"(890.0, 762.0)",1.4166666666666667,0.537,1,11725.38,1,0.02,same
0,545,catch,"[(1154, 772)]",[],[1],[],horizontal,"(390.0, 262.0)",1.7,nan,1,11730.617,1,0.02,same
0,546,invalid_adjacent_other_bar,"[(1178, 762)]",[],[1],[0.5166666666666666],vertical,"(890.0, 262.0)",0.7166666666666667,0.477,1,11735.649,2,0.02,other
0,547,valid,"[(1178, 786)]",[],[1],[0.5],horizontal,"(390.0, 762.0)",0.9166666666666666,0.463,1,11740.682,2,0.02,same
0,548,valid,"[(1180, 776)]",[],[1],[0.5833333333333334],vertical,"(390.0, 262.0)",0.35,0.542,1,11745.459,2,0.02,same
0,549,invalid_adjacent_other_bar,"[(1155, 770)]",[],[1],[0.85],horizontal,"(890.0, 262.0)",0.48333333333333334,nan,0,11750.525,0,0.02,other
0,550,catch,"[(1118, 755)]",[],[1],[],horizontal,"(890.0, 262.0)",1.7,nan,1,11755.109,1,0.02,same
0,551,valid,"[(1157, 762)]",[],[1],[0.55],horizontal,"(390.0, 262.0)",1.1,0.507,1,11760.331,1,0.02,same
0,552,valid,"[(1169, 762)]",[],[1],[0.6666666666666666],vertical,"(890.0, 262.0)",0.7,0.627,1,11765.296,1,0.02,same
0,553,catch,"[(1154, 788)]",[],[1],[],horizontal,"(890.0, 262.0)",1.7,nan,1,11769.765,2,0.02,same
0,554,valid,"[(1172, 782)]",[],[1],[0.5166666666666666],horizontal,"(890.0, 762.0)",0.45,0.477,1,11775.666,2,0.02,same
0,555,valid,"[(1183, 791)]",[],[1],[0.48333333333333334],vertical,"(890.0, 762.0)",1.5333333333333332,0.444,1,11780.498,2,0.02,same
0,556,valid,"[(1171, 772)]",[],[1],[0.5333333333333333],horizontal,"(390.0, 762.0)",1.3666666666666667,0.496,1,11786.198,3,0.02,same
0,557,valid,"[(1166, 766)]",[],[1],[0.5166666666666666],horizontal,"(390.0, 762.0)",1.3333333333333333,0.475,1,11792.448,3,0.02,same
0,558,valid,"[(1159, 772)]",[],[1],[0.5666666666666667],vertical,"(390.0, 262.0)",1.3666666666666667,0.522,1,11798.427,3,0.02,same
0,559,catch,"[(1174, 763)]",[],[1],[],horizontal,"(890.0, 262.0)",1.7,nan,1,11804.5,3,0.02,same
0,560,catch,"[(1155, 779)]",[],[1],[],vertical,"(890.0, 262.0)",1.7,nan,1,11810.133,3,0.02,same
0,561,valid,"[(1176, 767)]",[],[1],[0.5],horizontal,"(390.0, 762.0)",1.5166666666666666,0.466,1,11815.716,3,0.02,same
0,562,catch,"[(1174, 776)]",[],[1],[],horizontal,"(890.0, 762.0)",1.7,nan,1,11821.999,3,0.02,same
0,563,valid,"[(1155, 786)]",[],[1],[0.5333333333333333],vertical,"(390.0, 762.0)",1.5166666666666666,0.491,1,11827.899,3,0.02,same
0,564,valid,"[(1150, 791)]",[],[1],[0.48333333333333334],horizontal,"(890.0, 262.0)",0.7666666666666666,0.442,1,11834.048,3,0.0,same
0,565,valid,"[(1169, 767)]",[],[1],[0.6666666666666666],vertical,"(390.0, 762.0)",1.1166666666666667,0.626,1,11839.428,3,0.0,same
0,566,valid,"[(1155, 766)]",[],[1],[0.5666666666666667],horizontal,"(390.0, 762.0)",0.9333333333333333,0.523,1,11845.382,3,0.0,same
0,567,catch,"[(1159, 767)]",[],[1],[],vertical,"(390.0, 762.0)",1.7,nan,1,11850.932,3,0.0,same
0,568,valid,"[(1141, 811)]",[],[1],[0.55],vertical,"(890.0, 262.0)",1.4333333333333333,0.508,1,11857.024,3,0.0,same
0,569,invalid_adjacent_other_bar,"[(1153, 763)]",[],[1],[0.6],vertical,"(890.0, 762.0)",0.36666666666666664,0.554,1,11863.298,3,0.0,other
0,570,valid,"[(1160, 785)]",[],[1],[0.6],vertical,"(390.0, 262.0)",1.15,0.558,1,11868.848,3,0.0,same
0,571,valid,"[(1168, 757)]",[],[1],[0.5333333333333333],vertical,"(390.0, 262.0)",0.7666666666666666,0.489,1,11874.805,3,0.0,same
0,572,catch,"[(1163, 786)]",[],[1],[],vertical,"(390.0, 762.0)",1.7,nan,1,11880.565,3,0.0,same
0,573,valid,"[(1171, 787)]",[],[1],[0.5166666666666666],vertical,"(890.0, 262.0)",1.2333333333333334,0.477,1,11886.265,3,0.0,same
0,574,valid,"[(1175, 782)]",[],[1],[0.5],vertical,"(390.0, 262.0)",0.4,0.462,1,11892.619,3,0.0,same
0,575,catch,"[(1162, 752), (1121, 786)]",[],"[0, 1]",[],vertical,"(390.0, 762.0)",1.7,nan,1,11897.459,3,0.0,same
0,576,valid,"[(1169, 783)]",[],[1],[0.7666666666666666],horizontal,"(890.0, 762.0)",0.36666666666666664,0.72,1,11905.081,3,0.0,same
0,577,valid,"[(1170, 786)]",[],[1],[0.5166666666666666],horizontal,"(890.0, 262.0)",1.35,0.473,1,11910.932,3,0.0,same
0,578,valid,"[(1157, 761)]",[],[1],[0.6],horizontal,"(890.0, 262.0)",0.48333333333333334,0.558,1,11917.016,3,0.0,same
0,579,catch,"[(1160, 782)]",[],[1],[],vertical,"(390.0, 762.0)",1.7,nan,1,11922.38,3,0.0,same
0,580,valid,"[(1155, 783)]",[],[1],[0.85],vertical,"(390.0, 262.0)",0.5666666666666667,nan,0,11928.039,0,0.0,same
0,581,valid,"[(1131, 791)]",[],[1],[0.48333333333333334],vertical,"(390.0, 762.0)",0.7333333333333333,0.442,1,11932.715,1,0.0,same
0,582,catch,"[(1154, 762)]",[],[1],[],horizontal,"(390.0, 762.0)",1.7,nan,1,11937.715,1,0.0,same
0,583,valid,"[(1160, 761)]",[],[1],[0.5],vertical,"(390.0, 762.0)",0.7166666666666667,0.459,1,11942.715,1,0.0,same
0,584,invalid_same_bar,"[(1161, 795)]",[],[1],[0.5],vertical,"(390.0, 762.0)",0.9333333333333333,0.459,1,11946.886,2,0.0,same
0,585,catch,"[(1159, 752), (1121, 796)]",[],"[0, 1]",[],horizontal,"(390.0, 262.0)",1.7,nan,1,11952.116,2,0.0,same
0,586,invalid_adjacent_other_bar,"[(1156, 781)]",[],[1],[0.5333333333333333],vertical,"(390.0, 762.0)",0.75,0.494,1,11958.769,2,0.0,other
0,587,catch,"[(1175, 788)]",[],[1],[],horizontal,"(890.0, 762.0)",,"('cti', 0.539),nan",0,11964.212,0,0.02,same
0,588,catch,"[(1160, 786)]",[],[1],[],horizontal,"(390.0, 262.0)",1.7,nan,1,11968.422,1,0.02,same
0,589,catch,"[(1160, 796)]",[],[1],[],vertical,"(390.0, 762.0)",1.7,nan,1,11973.883,1,0.02,same
0,590,valid,"[(1160, 761)]",[],[1],[0.5166666666666666],vertical,"(890.0, 762.0)",0.7166666666666667,0.479,1,11979.022,1,0.02,same
0,591,valid,"[(1159, 764)]",[],[1],[0.6333333333333333],horizontal,"(390.0, 262.0)",1.3,0.593,1,11983.992,2,0.02,same
0,592,invalid_same_bar,"[(1160, 796)]",[],[1],[0.5166666666666666],vertical,"(890.0, 762.0)",0.6,0.478,1,11989.699,2,0.02,same
0,593,invalid_same_bar,"[(1165, 766)]",[],[1],[0.5833333333333334],horizontal,"(390.0, 762.0)",0.8,0.541,1,11994.781,2,0.02,same
0,594,catch,"[(1156, 798)]",[],[1],[],vertical,"(890.0, 762.0)",1.7,nan,1,12000.038,3,0.02,same
0,595,valid,"[(1160, 761)]",[],[1],[0.5166666666666666],horizontal,"(890.0, 262.0)",0.43333333333333335,0.475,1,12006.116,3,0.02,same
0,596,invalid_same_bar,"[(1160, 768)]",[],[1],[0.85],vertical,"(890.0, 262.0)",0.7333333333333333,nan,0,12011.137,0,0.02,same
0,597,valid,"[(1116, 802)]",[],[1],[0.48333333333333334],vertical,"(890.0, 762.0)",0.35,0.446,1,12015.691,1,0.02,same
0,598,catch,"[(1160, 765)]",[],[1],[],horizontal,"(890.0, 262.0)",1.7,nan,1,12019.85,1,0.02,same
0,599,valid,"[(1159, 773)]",[],[1],[0.4666666666666667],vertical,"(890.0, 262.0)",0.7,0.425,1,12025.161,1,0.02,same
0,600,valid,"[(1135, 796)]",[],[1],[0.5166666666666666],horizontal,"(890.0, 762.0)",0.43333333333333335,0.478,1,12029.901,2,0.02,same
0,601,catch,"[(1155, 786)]",[],[1],[],horizontal,"(890.0, 762.0)",1.7,nan,1,12034.882,2,0.02,same
0,602,catch,"[(1156, 772)]",[],[1],[],horizontal,"(390.0, 762.0)",1.7,nan,1,12040.165,2,0.02,same
0,603,valid,"[(1178, 798)]",[],[1],[0.4666666666666667],vertical,"(890.0, 262.0)",1.3666666666666667,0.427,1,12045.774,3,0.02,same
0,604,catch,"[(1200, 779)]",[],[1],[],horizontal,"(890.0, 262.0)",1.7,nan,1,12052.45,3,0.02,same
0,605,valid,"[(1168, 798)]",[],[1],[0.6333333333333333],horizontal,"(890.0, 762.0)",0.45,0.591,1,12058.441,3,0.02,same
0,606,catch,"[(1162, 789)]",[],[1],[],vertical,"(890.0, 262.0)",1.7,nan,1,12063.351,3,0.02,same
0,607,valid,"[(1131, 766)]",[],[1],[0.5666666666666667],vertical,"(890.0, 762.0)",0.4666666666666667,0.526,1,12069.032,3,0.02,same
0,608,valid,"[(1160, 780)]",[],[1],[0.5],horizontal,"(390.0, 262.0)",0.48333333333333334,0.459,1,12074.399,3,0.02,same
0,609,valid,"[(1158, 775)]",[],[1],[0.5166666666666666],vertical,"(390.0, 762.0)",1.1,0.478,1,12079.467,3,0.02,same
0,610,valid,"[(1161, 770)]",[],[1],[0.48333333333333334],vertical,"(390.0, 262.0)",0.65,0.444,1,12085.016,3,0.02,same
0,611,valid,"[(1155, 788)]",[],[1],[0.45],horizontal,"(890.0, 762.0)",1.3,0.408,1,12090.594,3,0.02,same
0,612,valid,"[(1166, 778)]",[],[1],[0.6],horizontal,"(390.0, 262.0)",0.8666666666666667,0.561,1,12096.95,3,0.02,same
0,613,catch,"[(1151, 776)]",[],[1],[],vertical,"(890.0, 262.0)",1.7,nan,1,12102.881,3,0.02,same
0,614,valid,"[(1141, 766)]",[],[1],[0.55],horizontal,"(390.0, 762.0)",1.5,0.51,1,12109.006,3,0.02,same
0,615,invalid_same_bar,"[(1170, 765)]",[],[1],[0.4666666666666667],horizontal,"(890.0, 262.0)",1.4833333333333334,0.431,1,12115.066,3,0.02,same
0,616,valid,"[(1169, 769)]",[],[1],[0.6],vertical,"(890.0, 262.0)",0.9333333333333333,0.561,1,12121.016,3,0.02,same
0,617,catch,"[(1173, 778)]",[],[1],[],horizontal,"(890.0, 762.0)",1.7,nan,1,12126.584,3,0.02,same
0,618,valid,"[(1172, 766)]",[],[1],[0.5333333333333333],horizontal,"(390.0, 762.0)",0.5166666666666666,0.493,1,12132.703,3,0.02,same
0,619,catch,"[(1200, 766)]",[],[1],[],vertical,"(890.0, 762.0)",1.7,nan,1,12138.204,3,0.02,same
0,620,catch,"[(1155, 778)]",[],[1],[0.03333333333333333],horizontal,"(390.0, 262.0)",1.7,"0.019,nan",0,12144.0,0,0.04,same
0,621,valid,"[(1136, 776)]",[],[1],[0.5833333333333334],horizontal,"(390.0, 262.0)",0.5166666666666666,0.544,1,12148.716,1,0.04,same
0,622,valid,"[(1134, 789)]",[],[1],[0.5],horizontal,"(890.0, 762.0)",0.6166666666666667,0.458,1,12153.646,1,0.04,same
0,623,invalid_adjacent_other_bar,"[(1155, 774)]",[],[1],[0.5333333333333333],vertical,"(390.0, 762.0)",1.35,0.496,1,12158.077,1,0.04,other
0,624,valid,"[(1151, 782)]",[],[1],[0.5833333333333334],vertical,"(390.0, 762.0)",0.35,0.545,1,12163.562,2,0.04,same
0,625,invalid_adjacent_other_bar,"[(1150, 775)]",[],[1],[0.85],horizontal,"(890.0, 762.0)",0.4,nan,0,12168.195,0,0.04,other
0,626,valid,"[(1123, 796)]",[],[1],[0.6],vertical,"(390.0, 262.0)",1.3333333333333333,0.557,1,12172.149,1,0.04,same
0,627,catch,"[(1183, 786)]",[],[1],[],horizontal,"(390.0, 262.0)",1.7,nan,1,12177.833,1,0.04,same
0,628,catch,"[(1158, 770)]",[],[1],[],horizontal,"(890.0, 262.0)",1.7,nan,1,12182.705,1,0.04,same
0,629,valid,"[(1157, 786)]",[],[1],[0.5],vertical,"(890.0, 762.0)",0.6833333333333333,0.463,1,12187.757,2,0.04,same
0,630,invalid_same_bar,"[(1179, 806)]",[],[1],[0.6333333333333333],vertical,"(890.0, 762.0)",0.8166666666666667,0.593,1,12192.668,2,0.04,same
0,631,valid,"[(1174, 794)]",[],[1],[0.5166666666666666],vertical,"(390.0, 762.0)",1.3166666666666667,0.477,1,12198.634,2,0.04,same
0,632,valid,"[(1163, 795)]",[],[1],[0.5333333333333333],vertical,"(390.0, 262.0)",0.7666666666666666,0.492,1,12204.901,3,0.04,same
0,633,valid,"[(1180, 769)]",[],[1],[0.85],vertical,"(390.0, 262.0)",1.4666666666666666,nan,0,12211.085,0,0.04,same
0,634,invalid_adjacent_other_bar,"[(1129, 799)]",[],[1],[0.85],horizontal,"(390.0, 262.0)",0.5166666666666666,nan,0,12216.101,0,0.04,other
0,635,catch,"[(1111, 781)]",[],[1],[],vertical,"(390.0, 262.0)",1.7,nan,1,12220.165,1,0.04,same
0,636,valid,"[(1161, 776)]",[],[1],[0.5166666666666666],horizontal,"(890.0, 762.0)",0.7666666666666666,0.475,1,12225.398,1,0.04,same
0,637,valid,"[(1167, 801)]",[],[1],[0.6333333333333333],vertical,"(890.0, 762.0)",1.3,0.599,1,12229.684,1,0.02,same
0,638,catch,"[(1152, 767)]",[],[1],[],horizontal,"(390.0, 762.0)",1.7,nan,1,12234.724,2,0.02,same
0,639,valid,"[(1162, 798)]",[],[1],[0.55],vertical,"(890.0, 762.0)",1.05,0.51,1,12240.292,2,0.02,same
0,640,catch,"[(1170, 765)]",[],[1],[],vertical,"(890.0, 762.0)",1.7,nan,1,12245.817,2,0.02,same
0,641,catch,"[(1160, 790)]",[],[1],[],horizontal,"(890.0, 262.0)",1.7,nan,1,12251.534,3,0.02,same
0,642,valid,"[(1167, 771)]",[],[1],[0.65],vertical,"(890.0, 762.0)",1.2166666666666666,0.605,1,12257.933,3,0.02,same
0,643,valid,"[(1161, 800)]",[],[1],[0.5333333333333333],vertical,"(890.0, 762.0)",0.48333333333333334,0.502,1,12263.975,3,0.02,same
0,644,valid,"[(1183, 772)]",[],[1],[0.5166666666666666],vertical,"(890.0, 262.0)",1.5166666666666666,0.476,1,12269.266,3,0.02,same
0,645,valid,"[(1171, 772)]",[],[1],[0.5333333333333333],horizontal,"(890.0, 262.0)",1.3666666666666667,0.502,1,12275.441,3,0.02,same
0,646,valid,"[(1175, 766)]",[],[1],[0.5],horizontal,"(390.0, 762.0)",0.7166666666666667,0.466,1,12281.461,3,0.02,same
0,647,valid,"[(1089, 848)]",[],[1],[0.6333333333333333],vertical,"(390.0, 262.0)",1.45,0.591,1,12286.817,3,0.02,same
0,648,valid,"[(1131, 801)]",[],[1],[0.5166666666666666],vertical,"(390.0, 762.0)",1.1333333333333333,0.485,1,12400.259,3,0.02,same
0,649,catch,"[(1158, 795)]",[],[1],[],vertical,"(890.0, 262.0)",1.7,nan,1,12406.412,3,0.02,same
0,650,valid,"[(1155, 804)]",[],[1],[0.5166666666666666],horizontal,"(890.0, 762.0)",0.6,0.475,1,12412.728,3,0.02,same
0,651,catch,"[(1157, 802)]",[],[1],[],vertical,"(390.0, 262.0)",1.7,nan,1,12418.55,3,0.02,same
0,652,catch,"[(1176, 804)]",[],[1],[],vertical,"(390.0, 762.0)",1.7,nan,1,12424.35,3,0.02,same
0,653,catch,"[(1175, 776)]",[],[1],[],horizontal,"(390.0, 762.0)",1.7,nan,1,12430.339,3,0.02,same
0,654,catch,"[(1159, 776)]",[],[1],[],horizontal,"(890.0, 762.0)",1.7,nan,1,12436.453,3,0.02,same
0,655,invalid_adjacent_other_bar,"[(1164, 790)]",[],[1],[0.5],horizontal,"(890.0, 262.0)",0.8333333333333334,0.459,1,12442.285,3,0.02,other
0,656,invalid_same_bar,"[(1159, 783)]",[],[1],[0.85],vertical,"(890.0, 762.0)",0.36666666666666664,nan,0,12448.034,0,0.02,same
0,657,valid,"[(1131, 798)]",[],[1],[0.5166666666666666],horizontal,"(890.0, 762.0)",0.5166666666666666,0.475,1,12452.527,1,0.02,same
0,658,invalid_same_bar,"[(1158, 779)]",[],[1],[0.55],horizontal,"(390.0, 762.0)",0.5833333333333334,0.506,1,12457.484,1,0.02,same
0,659,invalid_adjacent_other_bar,"[(1165, 795)]",[],[1],[0.85],horizontal,"(390.0, 262.0)",0.7,nan,0,12461.85,0,0.02,other
0,660,catch,"[(1159, 795)]",[],[1],[],vertical,"(390.0, 762.0)",1.7,nan,1,12466.701,1,0.02,same
0,661,invalid_same_bar,"[(1154, 772)]",[],[1],[0.85],vertical,"(390.0, 762.0)",0.9666666666666667,nan,0,12471.835,0,0.02,same
0,662,catch,"[(1126, 811)]",[],[1],[],horizontal,"(390.0, 262.0)",1.7,nan,1,12476.554,1,0.02,same
0,663,invalid_same_bar,"[(1155, 783)]",[],[1],[0.6666666666666666],vertical,"(390.0, 762.0)",0.9166666666666666,0.623,1,12481.868,1,0.02,same
0,664,catch,"[(1155, 758)]",[],[1],[],vertical,"(390.0, 762.0)",1.7,nan,1,12486.756,1,0.02,same
0,665,valid,"[(1158, 807)]",[],[1],[0.5666666666666667],vertical,"(390.0, 762.0)",1.45,0.53,1,12492.301,2,0.02,same
0,666,valid,"[(1167, 791)]",[],[1],[0.5166666666666666],vertical,"(890.0, 262.0)",1.1166666666666667,0.482,1,12498.351,2,0.02,same
0,667,valid,"[(1141, 795)]",[],[1],[0.6333333333333333],vertical,"(390.0, 262.0)",0.43333333333333335,0.588,1,12503.852,2,0.02,same
0,668,valid,"[(1155, 806)]",[],[1],[0.5833333333333334],vertical,"(890.0, 262.0)",0.43333333333333335,0.549,1,12509.018,3,0.02,same
0,669,invalid_same_bar,"[(1166, 778)]",[],[1],[0.55],horizontal,"(390.0, 262.0)",0.55,0.508,1,12514.566,3,0.02,same
0,670,valid,"[(1160, 771)]",[],[1],[0.48333333333333334],horizontal,"(890.0, 262.0)",0.8,0.443,1,12519.85,3,0.0,same
0,671,catch,"[(1131, 795)]",[],[1],[],vertical,"(890.0, 762.0)",1.7,"('cti', 1.7),nan",0,12525.484,0,0.02,same
0,672,catch,"[(1156, 799)]",[],[1],[],horizontal,"(890.0, 762.0)",1.7,nan,1,12530.618,1,0.02,same
0,673,valid,"[(1165, 781)]",[],[1],[0.5166666666666666],vertical,"(890.0, 762.0)",0.8666666666666667,0.476,1,12535.867,1,0.02,same
0,674,valid,"[(1155, 796)]",[],[1],[0.5666666666666667],vertical,"(890.0, 262.0)",1.1666666666666667,0.524,1,12540.582,1,0.02,same
0,675,valid,"[(1159, 801)]",[],[1],[0.48333333333333334],vertical,"(890.0, 262.0)",1.4,0.447,1,12545.784,2,0.02,same
0,676,valid,"[(1156, 797)]",[],[1],[0.55],vertical,"(390.0, 762.0)",1.3833333333333333,0.509,1,12551.731,2,0.02,same
0,677,valid,"[(1160, 772)]",[],[1],[0.6833333333333333],horizontal,"(390.0, 262.0)",1.4666666666666666,0.635,1,12557.634,2,0.02,same
0,678,valid,"[(1169, 773)]",[],[1],"[0.85, 0.85]",horizontal,"(890.0, 762.0)",0.9833333333333333,"0.801,nan",0,12563.456,0,0.02,same
0,679,valid,"[(1146, 778)]",[],[1],[0.65],vertical,"(890.0, 762.0)",0.3833333333333333,0.607,1,12568.552,1,0.02,same
0,680,catch,"[(1157, 769)]",[],[1],[],horizontal,"(890.0, 262.0)",1.7,nan,1,12572.985,1,0.02,same
0,681,valid,"[(1161, 786)]",[],[1],[0.7],vertical,"(890.0, 762.0)",1.1166666666666667,0.668,1,12577.983,1,0.02,same
0,682,catch,"[(1162, 786)]",[],[1],[],vertical,"(390.0, 762.0)",1.7,nan,1,12582.961,2,0.02,same
0,683,valid,"[(1159, 771)]",[],[1],[0.5166666666666666],horizontal,"(890.0, 262.0)",1.5166666666666666,0.476,1,12588.228,2,0.02,same
0,684,valid,"[(1160, 787)]",[],[1],[0.5],vertical,"(890.0, 762.0)",1.35,0.46,1,12594.228,2,0.02,same
0,685,invalid_adjacent_other_bar,"[(1166, 791)]",[],[1],[0.5],horizontal,"(890.0, 262.0)",0.8833333333333333,0.459,1,12599.717,3,0.02,other
0,686,valid,"[(1175, 796)]",[],[1],[0.6],vertical,"(390.0, 762.0)",0.9833333333333333,0.558,1,12605.484,3,0.02,same
0,687,catch,"[(1176, 766)]",[],[1],[],vertical,"(890.0, 762.0)",1.7,nan,1,12611.051,3,0.02,same
0,688,catch,"[(1169, 772)]",[],[1],[],vertical,"(890.0, 762.0)",1.7,nan,1,12616.992,3,0.02,same
0,689,valid,"[(1131, 798)]",[],[1],[0.5666666666666667],vertical,"(390.0, 262.0)",1.4833333333333334,0.52,1,12623.301,3,0.02,same
0,690,valid,"[(1165, 766)]",[],[1],[0.5833333333333334],vertical,"(390.0, 262.0)",1.1,0.536,1,12630.202,3,0.02,same
0,691,valid,"[(1151, 784)]",[],[1],[0.5],horizontal,"(890.0, 262.0)",0.85,0.457,1,12636.409,3,0.02,same
0,692,valid,"[(1165, 786)]",[],[1],[0.48333333333333334],horizontal,"(890.0, 762.0)",1.35,0.442,1,12641.951,3,0.02,same
0,693,valid,"[(1165, 766)]",[],[1],[0.6333333333333333],vertical,"(390.0, 262.0)",1.0833333333333333,0.588,1,12648.364,3,0.02,same
0,694,valid,"[(1158, 767)]",[],[1],[0.5],horizontal,"(390.0, 262.0)",0.7,0.454,1,12654.567,3,0.02,same
0,695,invalid_same_bar,"[(1157, 766)]",[],[1],[0.7166666666666667],horizontal,"(390.0, 262.0)",0.4,0.673,1,12660.021,3,0.02,same
0,696,valid,"[(1156, 772)]",[],[1],[0.48333333333333334],horizontal,"(890.0, 262.0)",0.9333333333333333,0.446,1,12665.508,3,0.02,same
0,697,valid,"[(1167, 802)]",[],[1],[0.5333333333333333],vertical,"(890.0, 262.0)",0.8333333333333334,0.49,1,12671.551,3,0.02,same
0,698,valid,"[(1146, 770)]",[],[1],[0.85],horizontal,"(390.0, 762.0)",0.85,nan,0,12677.417,0,0.02,same
0,699,catch,"[(1125, 795)]",[],[1],[],vertical,"(890.0, 762.0)",1.7,nan,1,12682.052,1,0.02,same
0,700,invalid_same_bar,"[(1150, 801)]",[],[1],[0.6],vertical,"(890.0, 762.0)",1.3833333333333333,0.554,1,12687.434,1,0.02,same
0,701,catch,"[(1157, 785)]",[],[1],[],horizontal,"(890.0, 262.0)",1.7,nan,1,12692.969,1,0.02,same
0,702,catch,"[(1173, 753), (1119, 800)]",[],"[0, 1]",[],horizontal,"(390.0, 262.0)",1.7,nan,1,12698.135,2,0.02,same
0,703,valid,"[(1158, 772)]",[],[1],[0.55],horizontal,"(390.0, 262.0)",0.5833333333333334,0.508,1,12705.001,2,0.02,same
0,704,valid,"[(1141, 758)]",[],[1],[0.55],vertical,"(390.0, 262.0)",0.48333333333333334,0.507,1,12710.084,2,0.02,same
0,705,valid,"[(1161, 764)]",[],[1],[0.75],vertical,"(390.0, 262.0)",0.5333333333333333,0.704,1,12714.683,3,0.02,same
0,706,catch,"[(1157, 762)]",[],[1],[],horizontal,"(890.0, 262.0)",1.7,nan,1,12720.369,3,0.02,same
0,707,valid,"[(1158, 758)]",[],[1],[0.6833333333333333],vertical,"(890.0, 262.0)",1.1833333333333333,0.641,1,12725.985,3,0.02,same
0,708,valid,"[(1156, 769)]",[],[1],[0.5166666666666666],horizontal,"(390.0, 262.0)",1.5,0.476,1,12732.152,3,0.02,same
0,709,valid,"[(1157, 764)]",[],[1],[0.5166666666666666],vertical,"(390.0, 762.0)",0.9333333333333333,0.474,1,12738.692,3,0.02,same
0,710,catch,"[(1156, 801)]",[],[1],[],horizontal,"(890.0, 262.0)",1.7,nan,1,12744.191,3,0.02,same
0,711,catch,"[(1155, 776)]",[],[1],[],horizontal,"(390.0, 262.0)",1.7,nan,1,12750.061,3,0.02,same
0,712,valid,"[(1156, 767)]",[],[1],[0.3333333333333333],vertical,"(390.0, 762.0)",1.3333333333333333,0.293,1,12756.256,3,0.02,same
0,713,valid,"[(1150, 770)]",[],[1],[0.65],vertical,"(890.0, 262.0)",0.5,0.609,1,12762.168,3,0.02,same
0,714,valid,"[(1155, 766)]",[],[1],[0.55],vertical,"(890.0, 262.0)",0.6,0.505,1,12767.668,3,0.02,same
0,715,valid,"[(1155, 760)]",[],[1],[0.5666666666666667],horizontal,"(890.0, 262.0)",1.1166666666666667,0.524,1,12772.935,3,0.02,same
0,716,valid,"[(1155, 786)]",[],[1],[0.48333333333333334],vertical,"(890.0, 762.0)",0.9,0.442,1,12778.87,3,0.02,same
0,717,catch,"[(1155, 777)]",[],[1],[],horizontal,"(390.0, 262.0)",1.7,nan,1,12784.468,3,0.02,same
0,718,catch,"[(1126, 791)]",[],[1],[],horizontal,"(890.0, 262.0)",1.7,nan,1,12790.601,3,0.02,same
0,719,valid,"[(1163, 769)]",[],[1],[0.5333333333333333],horizontal,"(390.0, 762.0)",1.1666666666666667,0.49,1,12796.286,3,0.02,same
0,720,valid,"[(1140, 771)]",[],[1],[0.6166666666666667],vertical,"(390.0, 762.0)",0.6666666666666666,0.569,1,12802.052,3,0.02,same
0,721,invalid_adjacent_other_bar,"[(1135, 771)]",[],[1],[0.6],vertical,"(890.0, 262.0)",1.0833333333333333,0.566,1,12807.359,3,0.0,other
0,722,catch,"[(1156, 772)]",[],[1],[],horizontal,"(390.0, 262.0)",1.7,nan,1,12813.519,3,0.0,same
0,723,invalid_adjacent_other_bar,"[(1120, 769)]",[],[1],[0.7833333333333333],horizontal,"(390.0, 262.0)",0.9,0.741,1,12819.39,3,0.0,other
0,724,valid,"[(1155, 789)]",[],[1],[0.26666666666666666],horizontal,"(890.0, 762.0)",1.5,0.231,1,12825.429,3,0.0,same
0,725,valid,"[(1155, 763)]",[],[1],[0.5833333333333334],horizontal,"(390.0, 262.0)",1.1833333333333333,0.542,1,12831.651,3,0.0,same
0,726,invalid_adjacent_other_bar,"[(1162, 776)]",[],[1],[0.48333333333333334],vertical,"(890.0, 262.0)",0.4666666666666667,0.441,1,12837.323,3,0.0,other
0,727,catch,"[(1160, 765)]",[],[1],[],vertical,"(890.0, 762.0)",1.7,nan,1,12842.453,3,0.0,same
0,728,valid,"[(1155, 762)]",[],[1],[0.55],horizontal,"(890.0, 262.0)",1.2333333333333334,0.518,1,12848.791,3,0.0,same
0,729,valid,"[(1148, 798)]",[],[1],[0.6333333333333333],vertical,"(890.0, 262.0)",0.43333333333333335,0.589,1,12854.501,3,0.0,same
0,730,valid,"[(1161, 780)]",[],[1],[0.5],horizontal,"(890.0, 262.0)",0.5833333333333334,0.455,1,12860.094,3,0.0,same
0,731,catch,"[(1126, 766)]",[],[1],[],vertical,"(390.0, 762.0)",1.7,nan,1,12865.569,3,0.0,same
0,732,valid,"[(1155, 775)]",[],[1],[0.5333333333333333],vertical,"(390.0, 262.0)",0.5,0.489,1,12872.062,3,0.0,same
0,733,valid,"[(1151, 770)]",[],[1],[0.7333333333333333],horizontal,"(890.0, 762.0)",1.25,0.686,1,12877.562,3,0.0,same
0,734,valid,"[(1156, 762)]",[],[1],[0.5],vertical,"(390.0, 262.0)",0.8333333333333334,0.455,1,12884.035,3,0.0,same
0,735,invalid_same_bar,"[(1159, 770)]",[],[1],[0.5833333333333334],vertical,"(890.0, 262.0)",1.35,0.542,1,12889.601,3,0.0,same
0,736,valid,"[(1155, 770)]",[],[1],[0.85],horizontal,"(390.0, 262.0)",0.6333333333333333,nan,0,12895.634,0,0.0,same
0,737,valid,"[(1126, 776)]",[],[1],[0.7333333333333333],vertical,"(890.0, 262.0)",1.25,0.687,1,12900.156,1,0.0,same
0,738,valid,"[(1160, 779)]",[],[1],[0.5833333333333334],vertical,"(390.0, 262.0)",1.3333333333333333,0.542,1,12905.452,1,0.0,same
0,739,valid,"[(1128, 813)]",[],[1],[0.45],horizontal,"(390.0, 762.0)",0.75,0.413,1,12910.718,1,0.0,same
0,740,valid,"[(1157, 754)]",[],[1],[0.6166666666666667],vertical,"(890.0, 762.0)",0.6,0.573,1,12915.735,2,0.0,same
0,741,invalid_adjacent_other_bar,"[(1156, 775)]",[],[1],[0.5],horizontal,"(890.0, 262.0)",1.1333333333333333,0.462,1,12920.595,2,0.0,other
0,742,valid,"[(1162, 802)]",[],[1],[0.65],vertical,"(390.0, 762.0)",0.95,0.612,1,12925.885,2,0.0,same
0,743,valid,"[(1155, 796)]",[],[1],[0.6333333333333333],vertical,"(390.0, 262.0)",1.05,0.591,1,12931.445,3,0.0,same
0,744,catch,"[(1155, 796)]",[],[1],[],vertical,"(390.0, 262.0)",1.7,nan,1,12937.759,3,0.0,same
0,745,valid,"[(1157, 801)]",[],[1],[0.6333333333333333],vertical,"(390.0, 262.0)",0.6833333333333333,0.597,1,12944.085,3,0.0,same
0,746,catch,"[(1155, 785)]",[],[1],[],vertical,"(890.0, 262.0)",1.7,nan,1,12950.026,3,0.0,same
0,747,valid,"[(1149, 769)]",[],[1],[0.48333333333333334],horizontal,"(890.0, 262.0)",1.2666666666666666,0.446,1,12955.722,3,0.0,same
0,748,catch,"[(1161, 768)]",[],[1],[],vertical,"(890.0, 262.0)",1.7,nan,1,12961.598,3,0.0,same
0,749,valid,"[(1158, 791)]",[],[1],[0.55],vertical,"(890.0, 762.0)",1.4833333333333334,0.507,1,12967.584,3,0.0,same
0,750,catch,"[(1136, 772)]",[],[1],[],horizontal,"(390.0, 262.0)",1.7,nan,1,12973.695,3,0.0,same
0,751,valid,"[(1158, 800)]",[],[1],[0.5666666666666667],vertical,"(890.0, 762.0)",0.7,0.523,1,12979.686,3,0.0,same
0,752,catch,"[(1170, 773)]",[],[1],[],vertical,"(390.0, 262.0)",1.7,nan,1,12985.518,3,0.0,same
0,753,catch,"[(1162, 765)]",[],[1],[],horizontal,"(890.0, 762.0)",1.7,nan,1,12991.102,3,0.0,same
0,754,valid,"[(1150, 766)]",[],[1],[0.5666666666666667],horizontal,"(390.0, 762.0)",0.5333333333333333,0.526,1,12996.935,3,0.0,same
0,755,valid,"[(1177, 801)]",[],[1],[0.5166666666666666],horizontal,"(390.0, 262.0)",1.0166666666666666,0.474,1,13002.436,3,0.0,same
0,756,valid,"[(1166, 792)]",[],[1],[0.5166666666666666],horizontal,"(390.0, 762.0)",0.6833333333333333,0.475,1,13008.433,3,0.0,same
0,757,valid,"[(1129, 801)]",[],[1],[0.6833333333333333],vertical,"(890.0, 262.0)",0.7833333333333333,0.639,1,13013.652,3,0.0,same
0,758,valid,"[(1156, 763)]",[],[1],[0.5666666666666667],horizontal,"(390.0, 762.0)",1.0833333333333333,0.525,1,13019.102,3,0.0,same
0,759,valid,"[(1162, 777)]",[],[1],[0.6166666666666667],vertical,"(390.0, 762.0)",0.4666666666666667,0.577,1,13024.903,3,0.0,same
0,760,valid,"[(1150, 766)]",[],[1],[0.6],horizontal,"(390.0, 262.0)",0.45,0.56,1,13030.269,3,0.0,same
0,761,valid,"[(1156, 766)]",[],[1],[0.65],vertical,"(390.0, 762.0)",0.48333333333333334,0.608,1,13035.806,3,0.0,same
0,762,catch,"[(1156, 769)]",[],[1],[],horizontal,"(390.0, 262.0)",1.7,nan,1,13040.935,3,0.0,same
0,763,valid,"[(1155, 776)]",[],[1],[0.5],horizontal,"(390.0, 262.0)",0.75,0.467,1,13046.848,3,0.0,same
0,764,catch,"[(1156, 775)]",[],[1],[],vertical,"(890.0, 762.0)",1.7,nan,1,13052.266,3,0.0,same
0,765,valid,"[(1158, 782)]",[],[1],[0.85],horizontal,"(890.0, 762.0)",0.35,nan,0,13058.503,0,0.0,same
0,766,valid,"[(1121, 804)]",[],[1],[0.5166666666666666],vertical,"(890.0, 762.0)",1.0,0.482,1,13062.228,1,0.0,same
0,767,catch,"[(1121, 879)]",[],[1],[],vertical,"(890.0, 762.0)",1.7,nan,1,13067.553,1,0.0,same
0,768,valid,"[(1126, 821)]",[],[1],[0.85],horizontal,"(890.0, 262.0)",1.1333333333333333,nan,0,13249.144,0,0.0,same
0,769,valid,"[(1012, 811)]",[],[1],[0.55],horizontal,"(390.0, 262.0)",0.43333333333333335,0.512,1,13254.087,1,0.0,same
0,770,valid,"[(1151, 791)]",[],[1],[0.6666666666666666],horizontal,"(390.0, 762.0)",0.5833333333333334,0.622,1,13259.522,1,0.0,same
0,771,catch,"[(1176, 797)]",[],[1],[],horizontal,"(390.0, 262.0)",1.7,nan,1,13264.503,1,0.0,same
0,772,valid,"[(1166, 777)]",[],[1],[0.85],horizontal,"(890.0, 762.0)",1.2166666666666666,nan,0,13269.52,0,0.0,same
0,773,valid,"[(1154, 783)]",[],[1],[0.85],horizontal,"(390.0, 262.0)",0.45,nan,0,13274.61,0,0.0,same
0,774,valid,"[(1116, 764)]",[],[1],[0.4166666666666667],vertical,"(890.0, 262.0)",0.4166666666666667,0.379,1,13279.269,1,0.0,same
0,775,catch,"[(1123, 777)]",[],[1],[],vertical,"(390.0, 762.0)",1.7,nan,1,13283.38,1,0.0,same
0,776,catch,"[(1157, 811)]",[],[1],[],horizontal,"(890.0, 262.0)",1.7,nan,1,13288.304,1,0.0,same
0,777,valid,"[(1156, 749), (1121, 792)]",[],"[0, 1]",[0.4166666666666667],horizontal,"(390.0, 262.0)",0.9333333333333333,0.378,1,13293.602,2,0.0,same
0,778,valid,"[(1180, 761)]",[],[1],[0.5666666666666667],horizontal,"(890.0, 262.0)",0.9,0.525,1,13300.396,2,0.0,same
0,779,valid,"[(1156, 790)]",[],[1],[0.5],vertical,"(390.0, 262.0)",0.9666666666666667,0.458,1,13305.768,2,0.0,same
0,780,valid,"[(1165, 782)]",[],[1],[0.5833333333333334],vertical,"(390.0, 762.0)",1.0333333333333332,0.541,1,13311.068,3,0.0,same
0,781,valid,"[(1205, 762)]",[],[1],[0.6166666666666667],horizontal,"(890.0, 262.0)",0.48333333333333334,0.573,1,13317.314,3,0.0,same
0,782,valid,"[(1155, 806)]",[],[1],[0.55],vertical,"(390.0, 262.0)",1.1666666666666667,0.514,1,13322.593,3,0.0,same
0,783,valid,"[(1163, 775)]",[],[1],[0.5333333333333333],horizontal,"(390.0, 762.0)",0.9666666666666667,0.496,1,13328.869,3,0.0,same
0,784,catch,"[(1128, 766)]",[],[1],[],horizontal,"(890.0, 262.0)",1.7,nan,1,13334.803,3,0.0,same
0,785,valid,"[(1158, 773)]",[],[1],[0.48333333333333334],vertical,"(890.0, 262.0)",0.8,0.443,1,13340.569,3,0.0,same
0,786,valid,"[(1158, 780)]",[],[1],[0.55],vertical,"(890.0, 262.0)",0.6333333333333333,0.506,1,13346.492,3,0.0,same
0,787,valid,"[(1155, 787)]",[],[1],[0.5],horizontal,"(390.0, 262.0)",1.0166666666666666,0.463,1,13351.603,3,0.0,same
0,788,valid,"[(1156, 777)]",[],[1],[0.85],vertical,"(390.0, 762.0)",0.35,nan,0,13357.343,0,0.0,same
0,789,valid,"[(1146, 774)]",[],[1],[0.5333333333333333],horizontal,"(390.0, 262.0)",0.95,0.491,1,13361.599,1,0.0,same
0,790,catch,"[(1159, 783)]",[],[1],[],horizontal,"(890.0, 262.0)",1.7,nan,1,13366.948,1,0.0,same
0,791,catch,"[(1155, 767)]",[],[1],[],vertical,"(890.0, 262.0)",1.7,nan,1,13372.097,1,0.0,same
0,792,valid,"[(1155, 791)]",[],[1],[0.5666666666666667],vertical,"(890.0, 762.0)",0.55,0.527,1,13377.591,2,0.0,same
0,793,catch,"[(1146, 768)]",[],[1],[],horizontal,"(890.0, 262.0)",1.7,nan,1,13382.371,2,0.0,same
0,794,valid,"[(1156, 781)]",[],[1],[0.85],horizontal,"(390.0, 762.0)",1.2333333333333334,nan,0,13388.253,0,0.0,same
0,795,valid,"[(1127, 778)]",[],[1],[0.5166666666666666],vertical,"(390.0, 762.0)",1.4333333333333333,0.48,1,13392.912,1,0.0,same
0,796,valid,"[(1161, 806)]",[],[1],[0.5166666666666666],vertical,"(890.0, 262.0)",1.0333333333333332,0.48,1,13398.202,1,0.0,same
0,797,catch,"[(1139, 759)]",[],[1],[],vertical,"(890.0, 262.0)",1.7,nan,1,13403.42,1,0.0,same
0,798,catch,"[(1158, 787)]",[],[1],[],horizontal,"(890.0, 262.0)",1.7,nan,1,13408.672,2,0.0,same
0,799,catch,"[(1160, 796)]",[],[1],[],horizontal,"(390.0, 762.0)",1.7,nan,1,13414.385,2,0.0,same
0,800,catch,"[(1160, 800)]",[],[1],[],vertical,"(890.0, 262.0)",1.7,nan,1,13419.527,2,0.0,same
0,801,catch,"[(1158, 781)]",[],[1],[],vertical,"(390.0, 762.0)",1.7,nan,1,13424.971,3,0.0,same
0,802,valid,"[(1188, 796)]",[],[1],[0.48333333333333334],vertical,"(890.0, 262.0)",0.6666666666666666,0.44,1,13431.502,3,0.0,same
0,803,invalid_same_bar,"[(1156, 801)]",[],[1],[0.25],horizontal,"(890.0, 262.0)",1.15,0.213,1,13436.604,3,0.0,same
0,804,valid,"[(1158, 792)]",[],[1],[0.5166666666666666],vertical,"(890.0, 762.0)",0.4666666666666667,0.479,1,13442.336,3,0.0,same
0,805,valid,"[(1158, 774)]",[],[1],[0.5333333333333333],vertical,"(390.0, 262.0)",1.4166666666666667,0.492,1,13447.67,3,0.0,same
0,806,valid,"[(1131, 776)]",[],[1],[0.43333333333333335],vertical,"(390.0, 262.0)",1.5333333333333332,0.395,1,13454.012,3,0.0,same
0,807,valid,"[(1151, 776)]",[],[1],[0.5333333333333333],vertical,"(390.0, 262.0)",0.4,0.49,1,13460.151,3,0.0,same
0,808,valid,"[(1151, 773)]",[],[1],[0.6],horizontal,"(390.0, 262.0)",1.25,0.558,1,13465.67,3,0.0,same
0,809,valid,"[(1163, 803)]",[],[1],[0.6],horizontal,"(890.0, 762.0)",0.5,0.559,1,13471.854,3,0.0,same
0,810,catch,"[(1155, 761)]",[],[1],[],vertical,"(890.0, 262.0)",,"('cti', 1.36),nan",0,13477.066,0,0.02,same
0,811,valid,"[(1111, 806)]",[],[1],[0.55],horizontal,"(390.0, 762.0)",0.7333333333333333,0.511,1,13481.615,1,0.02,same
0,812,valid,"[(1153, 801)]",[],[1],[0.5666666666666667],vertical,"(390.0, 262.0)",0.6166666666666667,0.528,1,13486.77,1,0.02,same
0,813,valid,"[(1156, 774)]",[],[1],[0.5166666666666666],horizontal,"(890.0, 262.0)",0.48333333333333334,0.477,1,13491.723,1,0.02,same
0,814,valid,"[(1122, 828)]",[],[1],[0.2833333333333333],horizontal,"(390.0, 262.0)",0.9333333333333333,0.246,1,13496.233,2,0.02,same
0,815,invalid_same_bar,"[(1179, 774)]",[],[1],[0.5833333333333334],vertical,"(390.0, 762.0)",1.3166666666666667,0.542,1,13501.555,2,0.02,same
0,816,catch,"[(1149, 777)]",[],[1],[],horizontal,"(890.0, 762.0)",1.7,nan,1,13507.454,2,0.02,same
0,817,invalid_adjacent_other_bar,"[(1156, 803)]",[],[1],[0.6],horizontal,"(890.0, 762.0)",0.6333333333333333,0.563,1,13513.055,3,0.02,other
0,818,valid,"[(1132, 757)]",[],[1],[0.7166666666666667],horizontal,"(890.0, 262.0)",0.5,0.673,1,13518.617,3,0.02,same
0,819,valid,"[(1171, 778)]",[],[1],[0.75],vertical,"(890.0, 262.0)",0.35,0.709,1,13524.279,3,0.02,same
0,820,invalid_same_bar,"[(1140, 816)]",[],[1],[0.5833333333333334],horizontal,"(890.0, 762.0)",1.05,0.541,1,13529.64,3,0.02,same
0,821,valid,"[(1152, 766)]",[],[1],[0.5166666666666666],horizontal,"(890.0, 262.0)",0.6,0.479,1,13536.247,3,0.02,same
0,822,valid,"[(1151, 778)]",[],[1],[0.6166666666666667],vertical,"(390.0, 762.0)",0.4166666666666667,0.574,1,13541.944,3,0.02,same
0,823,valid,"[(1161, 779)]",[],[1],[0.5],vertical,"(890.0, 762.0)",1.45,0.46,1,13547.46,3,0.02,same
0,824,valid,"[(1151, 765)]",[],[1],[0.4666666666666667],vertical,"(390.0, 262.0)",1.5333333333333332,0.426,1,13554.053,3,0.02,same
0,825,valid,"[(1155, 766)]",[],[1],[0.43333333333333335],horizontal,"(390.0, 262.0)",1.4833333333333334,0.391,1,13560.477,3,0.02,same
0,826,catch,"[(1176, 776)]",[],[1],[],vertical,"(890.0, 762.0)",1.7,nan,1,13566.399,3,0.02,same
0,827,catch,"[(1150, 779)]",[],[1],[],vertical,"(890.0, 762.0)",,"('cti', 1.674),nan",0,13572.591,0,0.04,same
0,828,catch,"[(1132, 786)]",[],[1],[],vertical,"(390.0, 262.0)",1.7,nan,1,13577.204,1,0.04,same
0,829,valid,"[(1159, 780)]",[],[1],[0.5166666666666666],horizontal,"(890.0, 262.0)",1.45,0.479,1,13582.804,1,0.04,same
0,830,valid,"[(1158, 760)]",[],[1],[0.5333333333333333],horizontal,"(890.0, 762.0)",0.7,0.497,1,13588.443,1,0.04,same
0,831,invalid_same_bar,"[(1160, 771)]",[],[1],[0.5833333333333334],horizontal,"(390.0, 262.0)",0.6833333333333333,0.544,1,13593.04,2,0.04,same
0,832,valid,"[(1165, 780)]",[],[1],[0.5],vertical,"(890.0, 762.0)",1.1166666666666667,0.461,1,13598.503,2,0.04,same
0,833,catch,"[(1150, 772)]",[],[1],[],horizontal,"(390.0, 262.0)",1.7,nan,1,13603.806,2,0.04,same
0,834,valid,"[(1167, 753), (1121, 813)]",[],"[0, 1]",[0.4166666666666667],vertical,"(390.0, 262.0)",1.2,0.384,1,13609.711,3,0.04,same
0,835,valid,"[(1154, 777)]",[],[1],[0.55],horizontal,"(890.0, 262.0)",1.2333333333333334,0.506,1,13618.42,3,0.04,same
0,836,catch,"[(1151, 766)]",[],[1],[],vertical,"(890.0, 262.0)",1.7,nan,1,13624.265,3,0.04,same
0,837,valid,"[(1142, 772)]",[],[1],[0.5166666666666666],vertical,"(890.0, 262.0)",1.2833333333333332,0.479,1,13630.438,3,0.04,same
0,838,valid,"[(1157, 773)]",[],[1],[0.3833333333333333],horizontal,"(890.0, 262.0)",1.25,0.348,1,13636.506,3,0.04,same
0,839,valid,"[(1151, 771)]",[],[1],[0.65],vertical,"(890.0, 262.0)",0.5166666666666666,0.609,1,13641.887,3,0.04,same
0,840,valid,"[(1156, 763)]",[],[1],[0.7666666666666666],horizontal,"(890.0, 762.0)",0.75,0.725,1,13647.505,3,0.04,same
0,841,valid,"[(1163, 775)]",[],[1],[0.06666666666666667],horizontal,"(390.0, 762.0)",1.0166666666666666,0.036,0,13653.607,0,0.04,same
0,842,catch,"[(1160, 782)]",[],[1],[],horizontal,"(890.0, 262.0)",1.7,nan,1,13657.42,1,0.04,same
0,843,valid,"[(1160, 777)]",[],[1],[0.55],horizontal,"(390.0, 262.0)",1.3,0.517,1,13662.807,1,0.04,same
0,844,invalid_adjacent_other_bar,"[(1164, 749), (1085, 806)]",[],"[0, 1]",[0.5],horizontal,"(890.0, 762.0)",1.35,0.463,1,13667.985,1,0.04,other
0,845,valid,"[(1154, 806)]",[],[1],[0.5166666666666666],vertical,"(390.0, 262.0)",1.5,0.477,1,13675.974,2,0.04,same
0,846,valid,"[(1154, 753), (1121, 824)]",[],"[0, 1]",[0.5166666666666666],vertical,"(890.0, 262.0)",1.1666666666666667,0.484,1,13681.987,2,0.04,same
0,847,valid,"[(1162, 781)]",[],[1],[0.48333333333333334],vertical,"(890.0, 262.0)",1.3,0.451,1,13688.152,2,0.04,same
0,848,valid,"[(1139, 772)]",[],[1],[0.4666666666666667],horizontal,"(890.0, 262.0)",1.4166666666666667,0.427,1,13693.919,3,0.04,same
0,849,valid,"[(1160, 766)]",[],[1],[0.5333333333333333],vertical,"(890.0, 762.0)",1.05,0.494,1,13700.178,3,0.04,same
0,850,valid,"[(1141, 772)]",[],[1],[0.5333333333333333],vertical,"(390.0, 762.0)",1.45,0.494,1,13705.922,3,0.04,same
0,851,valid,"[(1161, 797)]",[],[1],[0.6166666666666667],vertical,"(390.0, 762.0)",1.0666666666666667,0.577,1,13712.321,3,0.04,same
0,852,catch,"[(1169, 771)]",[],[1],[],horizontal,"(890.0, 262.0)",1.7,nan,1,13718.521,3,0.04,same
0,853,catch,"[(1156, 795)]",[],[1],[],horizontal,"(390.0, 762.0)",,"('cti', 1.103),nan",0,13724.419,0,0.06,same
0,854,invalid_adjacent_other_bar,"[(1152, 765)]",[],[1],[0.85],horizontal,"(890.0, 262.0)",0.8166666666666667,nan,0,13728.64,0,0.06,other
0,855,invalid_adjacent_other_bar,"[(1143, 799)]",[],[1],[0.4666666666666667],vertical,"(890.0, 262.0)",0.6,0.427,1,13733.067,1,0.06,other
0,856,valid,"[(1124, 806)]",[],[1],[0.5166666666666666],horizontal,"(390.0, 762.0)",0.6666666666666666,0.474,1,13737.933,1,0.06,same
0,857,valid,"[(1156, 773)]",[],[1],[0.4],vertical,"(890.0, 262.0)",1.0833333333333333,0.356,1,13743.261,1,0.06,same
0,858,invalid_same_bar,"[(1154, 778)]",[],[1],[0.55],vertical,"(890.0, 262.0)",1.35,0.509,1,13748.555,2,0.06,same
0,859,valid,"[(1166, 759)]",[],[1],[0.65],horizontal,"(890.0, 262.0)",1.3,0.611,1,13754.546,2,0.06,same
