block,trial,trial_type,taps_start_loc_during_fix,taps_end_loc_during_fix,taps_on_lever_during_fix,taps_on_lever_s_during_fix,bar_orientation,target_xy,cti,rt,acc,time,pulses,fa_rate_recent100,actual_invalid_type
0,1,valid,"[(1091, 873)]",[],[1],[0.3833333333333333],horizontal,"(890.0, 262.0)",0.9833333333333333,0.356,1,0.447,1,0.0,same
0,2,valid,"[(1081, 847)]",[],[1],[0.55],horizontal,"(890.0, 762.0)",1.2333333333333334,0.509,1,15.888,1,0.0,same
0,3,valid,"[(1123, 792)]",[],[1],[0.6333333333333333],vertical,"(390.0, 762.0)",0.45,0.591,1,223.003,1,0.0,same
0,4,valid,"[(1141, 804)]",[],[1],[0.55],vertical,"(390.0, 262.0)",0.9666666666666667,0.513,1,227.657,2,0.0,same
0,5,valid,"[(1154, 800)]",[],[1],[0.6],vertical,"(390.0, 762.0)",0.55,0.561,1,232.786,2,0.0,same
0,6,valid,"[(1154, 804)]",[],[1],[0.65],vertical,"(890.0, 762.0)",0.5,0.608,1,237.906,2,0.0,same
0,7,catch,"[(1160, 812)]",[],[1],[],horizontal,"(390.0, 262.0)",1.7,nan,1,243.057,2,0.0,same
0,8,valid,"[(1136, 786)]",[],[1],[0.4666666666666667],vertical,"(890.0, 262.0)",1.3833333333333333,0.424,1,248.591,3,0.0,same
0,9,valid,"[(1154, 784)]",[],[1],[0.5666666666666667],horizontal,"(890.0, 262.0)",1.15,0.528,1,255.319,3,0.0,same
0,10,valid,"[(1166, 788)]",[],[1],[0.5],vertical,"(890.0, 762.0)",1.0,0.464,1,261.279,3,0.0,same
0,11,valid,"[(1159, 795)]",[],[1],[0.5],horizontal,"(890.0, 762.0)",0.75,0.455,1,267.208,3,0.0,same
0,12,valid,"[(1150, 776)]",[],[1],[0.85],vertical,"(890.0, 762.0)",1.15,nan,0,272.786,0,0.0,same
0,13,valid,"[(1131, 779)]",[],[1],[0.85],vertical,"(390.0, 262.0)",1.5,nan,0,277.941,0,0.0,same
0,14,catch,"[(1111, 800)]",[],[1],[],vertical,"(890.0, 762.0)",1.7,nan,1,283.355,1,0.0,same
0,15,catch,"[(1158, 792)]",[],[1],[],horizontal,"(390.0, 762.0)",1.7,nan,1,292.373,1,0.0,same
0,16,valid,"[(1166, 808)]",[],[1],[0.55],horizontal,"(390.0, 262.0)",1.3,0.511,1,297.984,1,0.0,same
0,17,valid,"[(1170, 797)]",[],[1],[0.6],vertical,"(890.0, 762.0)",1.3833333333333333,0.557,1,303.841,2,0.0,same
0,18,valid,"[(1136, 765)]",[],[1],[0.5333333333333333],horizontal,"(890.0, 762.0)",1.1333333333333333,0.49,1,309.539,2,0.0,same
0,19,catch,"[(1162, 800)]",[],[1],[],vertical,"(390.0, 262.0)",1.7,nan,1,315.256,2,0.0,same
0,20,valid,"[(1156, 784)]",[],[1],[0.48333333333333334],vertical,"(390.0, 762.0)",0.6833333333333333,0.445,1,321.184,2,0.0,same
0,21,valid,"[(1132, 800)]",[],[1],[0.85],vertical,"(390.0, 762.0)",0.85,nan,0,326.424,0,0.0,same
0,22,catch,"[(1131, 807)]",[],[1],[],horizontal,"(890.0, 762.0)",1.7,nan,1,331.291,1,0.0,same
0,23,valid,"[(1114, 796)]","[(1074, 828)]",[1],[0.55],horizontal,"(390.0, 262.0)",,"('bar', 0.564)",0,336.607,0,0.0,same
0,24,valid,"[(1105, 797)]",[],[1],[0.5833333333333334],horizontal,"(890.0, 262.0)",0.6166666666666667,0.535,1,339.273,1,0.0,same
0,25,catch,"[(1157, 815)]",[],[1],[],vertical,"(390.0, 262.0)",1.7,nan,1,756.242,1,0.0,same
0,26,valid,"[(1170, 791)]",[],[1],[0.48333333333333334],vertical,"(390.0, 762.0)",1.15,0.439,1,762.756,1,0.0,same
0,27,valid,"[(1158, 792)]",[],[1],[0.85],horizontal,"(390.0, 262.0)",0.7,nan,0,768.341,0,0.0,same
0,28,valid,"[(1131, 781)]",[],[1],[0.85],horizontal,"(890.0, 262.0)",0.45,nan,0,772.943,0,0.0,same
0,29,invalid_same_bar,"[(1106, 834)]",[],[1],[0.5166666666666666],horizontal,"(390.0, 762.0)",1.0333333333333332,0.474,1,777.608,1,0.0,same
0,30,valid,"[(1161, 791)]",[],[1],[0.85],horizontal,"(390.0, 262.0)",1.3833333333333333,nan,0,1139.292,0,0.0,same
0,31,catch,"[(1135, 804)]",[],[1],[],vertical,"(390.0, 762.0)",1.7,nan,1,1144.441,1,0.0,same
0,32,catch,"[(1140, 810)]",[],[1],[],vertical,"(890.0, 762.0)",1.7,nan,1,1149.617,1,0.0,same
0,33,valid,"[(1160, 799)]",[],[1],[0.5333333333333333],vertical,"(890.0, 262.0)",1.3666666666666667,0.498,1,1155.86,1,0.0,same
0,34,valid,"[(1159, 791)]",[],[1],[0.5666666666666667],horizontal,"(890.0, 262.0)",1.3833333333333333,0.53,1,1161.537,2,0.0,same
0,35,valid,"[(1157, 783)]",[],[1],[0.85],horizontal,"(890.0, 762.0)",0.7833333333333333,nan,0,1167.117,0,0.0,same
0,36,valid,"[(1123, 773)]",[],[1],[0.6833333333333333],horizontal,"(890.0, 762.0)",0.9833333333333333,0.638,1,1171.576,1,0.0,same
0,37,valid,"[(1165, 790)]",[],[1],[0.5],vertical,"(890.0, 762.0)",1.15,0.46,1,1176.933,1,0.0,same
0,38,invalid_adjacent_other_bar,"[(1155, 785)]",[],[1],[0.5],vertical,"(890.0, 762.0)",0.85,0.461,1,1182.041,1,0.0,other
0,39,valid,"[(1153, 766)]",[],[1],[0.55],vertical,"(890.0, 762.0)",0.6333333333333333,0.512,1,1187.027,2,0.0,same
0,40,valid,"[(1137, 792)]",[],[1],[0.6],vertical,"(390.0, 762.0)",1.1333333333333333,0.561,1,1192.137,2,0.0,same
0,41,valid,"[(1144, 808)]",[],[1],[0.85],horizontal,"(390.0, 762.0)",1.45,nan,0,1197.86,0,0.0,same
0,42,valid,"[(1129, 787)]",[],[1],[0.6],horizontal,"(390.0, 262.0)",1.1666666666666667,0.558,1,1203.076,1,0.0,same
0,43,catch,"[(1155, 806)]",[],[1],[],horizontal,"(890.0, 762.0)",1.7,nan,1,1208.077,1,0.0,same
0,44,invalid_same_bar,"[(1141, 793)]",[],[1],[0.6833333333333333],horizontal,"(390.0, 762.0)",0.3833333333333333,0.64,1,1213.776,1,0.0,same
0,45,valid,"[(1169, 810)]",[],[1],[0.85],horizontal,"(890.0, 762.0)",0.3833333333333333,nan,0,1218.459,0,0.0,same
0,46,catch,"[(1136, 768)]",[],[1],[],horizontal,"(390.0, 262.0)",1.7,nan,1,1222.682,1,0.0,same
0,47,valid,"[(1155, 786)]",[],[1],[0.85],horizontal,"(890.0, 762.0)",1.1333333333333333,nan,0,1227.777,0,0.0,same
0,48,valid,"[(1141, 802)]",[],[1],[0.85],horizontal,"(390.0, 762.0)",0.5833333333333334,nan,0,1232.966,0,0.0,same
0,49,valid,"[(1113, 791)]",[],[1],[0.5],horizontal,"(890.0, 262.0)",0.6166666666666667,0.455,1,1237.109,1,0.0,same
0,50,valid,"[(1160, 787)]",[],[1],[0.48333333333333334],vertical,"(390.0, 262.0)",0.35,0.444,1,1242.148,1,0.0,same
0,51,valid,"[(1136, 807)]",[],[1],[0.5666666666666667],horizontal,"(890.0, 762.0)",1.1333333333333333,0.528,1,1246.127,1,0.0,same
0,52,invalid_adjacent_other_bar,"[(1108, 841)]",[],[1],[0.48333333333333334],horizontal,"(890.0, 262.0)",1.2,0.438,1,1251.517,2,0.0,other
0,53,valid,"[(1160, 803)]",[],[1],[0.5333333333333333],vertical,"(390.0, 262.0)",1.3166666666666667,0.49,1,1258.026,2,0.0,same
0,54,valid,"[(1135, 791)]",[],[1],[0.5333333333333333],vertical,"(890.0, 262.0)",1.35,0.495,1,1263.939,2,0.0,same
0,55,valid,"[(1159, 794)]",[],[1],[0.85],horizontal,"(390.0, 762.0)",0.48333333333333334,nan,0,1270.342,0,0.0,same
0,56,valid,"[(1082, 832)]",[],[1],[0.85],horizontal,"(890.0, 262.0)",0.95,nan,0,1274.882,0,0.0,same
0,57,invalid_same_bar,"[(1138, 799)]",[],[1],[0.4666666666666667],horizontal,"(890.0, 262.0)",1.1,0.434,1,1280.243,1,0.0,same
0,58,catch,"[(1157, 775)]",[],[1],[],vertical,"(390.0, 262.0)",1.7,nan,1,1285.483,1,0.0,same
0,59,valid,"[(1113, 818)]",[],[1],[0.5166666666666666],vertical,"(390.0, 762.0)",1.5333333333333332,0.479,1,1290.058,1,0.0,same
0,60,catch,"[(1157, 808)]",[],[1],[],horizontal,"(890.0, 762.0)",1.7,nan,1,1295.743,2,0.0,same
0,61,valid,"[(1158, 800)]",[],[1],[0.55],horizontal,"(390.0, 762.0)",1.3666666666666667,0.507,1,1301.413,2,0.0,same
0,62,valid,"[(1158, 782)]",[],[1],[0.6],horizontal,"(390.0, 262.0)",0.6,0.559,1,1307.126,2,0.0,same
0,63,catch,"[(1155, 791)]",[],[1],[],horizontal,"(890.0, 262.0)",1.7,nan,1,1311.789,2,0.0,same
0,64,catch,"[(1160, 781)]",[],[1],[],vertical,"(890.0, 762.0)",1.7,nan,1,1317.226,3,0.0,same
0,65,valid,"[(1155, 779)]",[],[1],[0.5833333333333334],vertical,"(390.0, 262.0)",0.5666666666666667,0.543,1,1323.002,3,0.0,same
0,66,valid,"[(1160, 787)]",[],[1],[0.65],horizontal,"(890.0, 762.0)",0.6833333333333333,0.61,1,1328.069,3,0.0,same
0,67,invalid_adjacent_other_bar,"[(1088, 839)]",[],[1],[0.6833333333333333],vertical,"(890.0, 762.0)",1.1,0.638,1,1333.9,3,0.0,other
0,68,valid,"[(1164, 793)]",[],[1],[0.6166666666666667],vertical,"(890.0, 262.0)",1.3666666666666667,0.58,1,1340.102,3,0.0,same
0,69,valid,"[(1158, 810)]",[],[1],[0.5333333333333333],horizontal,"(890.0, 762.0)",0.4666666666666667,0.494,1,1346.067,3,0.0,same
0,70,valid,"[(1170, 807)]",[],[1],[0.5333333333333333],horizontal,"(390.0, 762.0)",0.9666666666666667,0.494,1,1351.344,3,0.0,same
0,71,catch,"[(1146, 778)]",[],[1],[],vertical,"(390.0, 762.0)",1.7,nan,1,1357.37,3,0.0,same
0,72,valid,"[(1159, 777)]",[],[1],[0.6666666666666666],horizontal,"(390.0, 262.0)",0.8833333333333333,0.621,1,1363.442,3,0.0,same
0,73,catch,"[(1159, 782)]",[],[1],[],vertical,"(890.0, 762.0)",1.7,nan,1,1369.483,3,0.0,same
0,74,valid,"[(1142, 778)]",[],[1],[0.7333333333333333],horizontal,"(390.0, 262.0)",1.0166666666666666,0.691,1,1375.373,3,0.0,same
0,75,valid,"[(1154, 797)]",[],[1],[0.55],vertical,"(890.0, 262.0)",0.6666666666666666,0.512,1,1381.233,3,0.0,same
0,76,valid,"[(1160, 803)]",[],[1],[0.45],vertical,"(890.0, 262.0)",1.5333333333333332,0.413,1,1386.794,3,0.0,same
0,77,valid,"[(1160, 804)]",[],[1],[0.48333333333333334],horizontal,"(890.0, 262.0)",1.2833333333333332,0.443,1,1393.445,3,0.0,same
0,78,valid,"[(1160, 799)]",[],[1],[0.5166666666666666],horizontal,"(890.0, 762.0)",0.55,0.476,1,1399.644,3,0.0,same
0,79,valid,"[(1132, 805)]",[],[1],[0.5166666666666666],horizontal,"(890.0, 762.0)",0.9166666666666666,0.476,1,1404.578,3,0.0,same
0,80,valid,"[(1165, 822)]",[],[1],[0.85],vertical,"(890.0, 262.0)",0.9166666666666666,nan,0,1410.546,0,0.0,same
0,81,valid,"[(1142, 805)]",[],[1],[0.6166666666666667],vertical,"(390.0, 762.0)",0.3833333333333333,0.578,1,1415.527,1,0.0,same
0,82,valid,"[(1167, 777)]",[],[1],[0.5333333333333333],horizontal,"(890.0, 262.0)",1.3333333333333333,0.495,1,1422.749,1,0.0,same
0,83,catch,"[(1165, 810)]",[],[1],[],vertical,"(390.0, 762.0)",1.7,nan,1,1427.894,1,0.0,same
0,84,invalid_same_bar,"[(1088, 839)]",[],[1],[0.65],horizontal,"(390.0, 762.0)",0.5833333333333334,0.603,1,1433.361,2,0.0,same
0,85,valid,"[(1146, 802)]",[],[1],[0.5833333333333334],vertical,"(890.0, 262.0)",1.3166666666666667,0.54,1,1438.683,2,0.0,same
0,86,catch,"[(1132, 779)]",[],[1],[],horizontal,"(890.0, 762.0)",1.7,nan,1,1444.352,2,0.0,same
0,87,valid,"[(1142, 813)]",[],[1],[0.75],horizontal,"(890.0, 762.0)",0.45,0.706,1,1449.935,2,0.0,same
0,88,valid,"[(1121, 835)]",[],[1],[0.6],vertical,"(890.0, 762.0)",1.4333333333333333,0.565,1,1454.794,3,0.0,same
0,89,catch,"[(1153, 807)]",[],[1],[],horizontal,"(890.0, 762.0)",1.7,nan,1,1864.764,3,0.0,same
0,90,catch,"[(1157, 811)]",[],[1],[],vertical,"(890.0, 262.0)",,"('cti', 1.28),nan",0,1870.856,0,0.02,same
0,91,catch,"[(1136, 815)]",[],[1],[],horizontal,"(390.0, 262.0)",1.7,nan,1,1874.728,1,0.02,same
0,92,catch,"[(1162, 800)]",[],[1],[],horizontal,"(390.0, 262.0)",1.7,nan,1,1880.103,1,0.02,same
0,93,valid,"[(1155, 794)]",[],[1],[0.8333333333333334],horizontal,"(390.0, 262.0)",1.0833333333333333,0.782,1,1885.263,1,0.02,same
0,94,valid,"[(1159, 806)]",[],[1],[0.5166666666666666],horizontal,"(890.0, 262.0)",0.9833333333333333,0.481,1,1890.903,2,0.02,same
0,95,valid,"[(1152, 791)]",[],[1],[0.85],horizontal,"(390.0, 762.0)",1.45,nan,0,1896.329,0,0.02,same
0,96,invalid_adjacent_other_bar,"[(1141, 777)]",[],[1],[0.6666666666666666],vertical,"(890.0, 762.0)",0.6,0.626,1,1901.481,1,0.02,other
0,97,catch,"[(1086, 849)]",[],[1],[],horizontal,"(390.0, 262.0)",1.7,nan,1,1906.501,1,0.02,same
0,98,valid,"[(1137, 783)]",[],[1],[0.5666666666666667],horizontal,"(890.0, 762.0)",1.5166666666666666,0.527,1,1911.962,1,0.02,same
0,99,catch,"[(1146, 810)]",[],[1],[],horizontal,"(390.0, 762.0)",1.7,nan,1,1917.564,2,0.02,same
0,100,invalid_same_bar,"[(1152, 803)]",[],[1],[0.5333333333333333],vertical,"(890.0, 262.0)",0.36666666666666664,0.501,1,1923.179,2,0.02,same
0,101,valid,"[(1148, 806)]",[],[1],[0.85],vertical,"(390.0, 262.0)",1.35,nan,0,1927.704,0,0.02,same
0,102,valid,"[(1129, 789)]",[],[1],[0.7833333333333333],horizontal,"(890.0, 262.0)",1.1333333333333333,0.742,1,1933.363,1,0.02,same
0,103,catch,"[(1160, 797)]",[],[1],[],vertical,"(390.0, 262.0)",1.7,nan,1,1938.646,1,0.02,same
0,104,valid,"[(1155, 766)]",[],[1],[0.55],vertical,"(890.0, 762.0)",1.5333333333333332,0.511,1,1944.063,1,0.02,same
0,105,valid,"[(1149, 819)]",[],[1],[0.5],horizontal,"(890.0, 762.0)",0.5666666666666667,0.458,1,1949.446,2,0.02,same
0,106,valid,"[(1156, 781)]",[],[1],[0.5166666666666666],vertical,"(890.0, 262.0)",0.95,0.476,1,1954.646,2,0.02,same
0,107,invalid_adjacent_other_bar,"[(1154, 790)]",[],[1],[0.85],horizontal,"(390.0, 262.0)",0.9666666666666667,nan,0,1959.963,0,0.02,other
0,108,valid,"[(1132, 805)]",[],[1],[0.5],vertical,"(390.0, 262.0)",0.5833333333333334,0.467,1,1964.913,1,0.02,same
0,109,valid,"[(1166, 794)]",[],[1],[0.4666666666666667],horizontal,"(890.0, 262.0)",0.9166666666666666,0.428,1,1969.883,1,0.02,same
0,110,valid,"[(1155, 783)]",[],[1],[0.5166666666666666],vertical,"(890.0, 262.0)",1.2833333333333332,0.469,1,1974.761,1,0.02,same
0,111,catch,"[(1155, 792)]",[],[1],[],horizontal,"(390.0, 762.0)",1.7,nan,1,1980.48,2,0.02,same
0,112,valid,"[(1154, 776)]",[],[1],[0.55],vertical,"(390.0, 262.0)",0.5166666666666666,0.506,1,1986.23,2,0.02,same
0,113,valid,"[(1155, 775)]",[],[1],[0.5833333333333334],horizontal,"(390.0, 262.0)",0.85,0.542,1,1991.396,2,0.02,same
0,114,catch,"[(1156, 803)]",[],[1],[],horizontal,"(390.0, 262.0)",1.7,nan,1,1996.63,2,0.02,same
0,115,valid,"[(1153, 769)]",[],[1],[0.7166666666666667],vertical,"(890.0, 762.0)",0.6333333333333333,0.67,1,2002.396,3,0.02,same
0,116,valid,"[(1160, 800)]",[],[1],[0.5166666666666666],vertical,"(890.0, 262.0)",0.48333333333333334,0.479,1,2008.196,3,0.02,same
0,117,valid,"[(1146, 777)]",[],[1],[0.5333333333333333],vertical,"(390.0, 262.0)",0.5833333333333334,0.486,1,2013.278,3,0.02,same
0,118,valid,"[(1167, 803)]",[],[1],[0.48333333333333334],vertical,"(890.0, 262.0)",0.5,0.443,1,2018.913,3,0.02,same
0,119,valid,"[(1167, 789)]",[],[1],[0.48333333333333334],vertical,"(890.0, 762.0)",1.0833333333333333,0.444,1,2024.046,3,0.02,same
0,120,valid,"[(1154, 783)]",[],[1],[0.85],vertical,"(890.0, 262.0)",0.6833333333333333,nan,0,2029.946,0,0.02,same
0,121,valid,"[(1116, 776)]",[],[1],[0.48333333333333334],vertical,"(390.0, 762.0)",0.5166666666666666,0.438,1,2034.463,1,0.02,same
0,122,valid,"[(1153, 811)]",[],[1],[0.4666666666666667],horizontal,"(890.0, 762.0)",1.4,0.425,1,2038.679,1,0.02,same
0,123,valid,"[(1156, 787)]",[],[1],[0.48333333333333334],horizontal,"(890.0, 762.0)",0.75,0.445,1,2044.021,1,0.02,same
0,124,invalid_adjacent_other_bar,"[(1151, 800)]",[],[1],[0.85],vertical,"(390.0, 262.0)",0.48333333333333334,nan,0,2049.13,0,0.02,other
0,125,valid,"[(1126, 778)]",[],[1],[0.85],horizontal,"(390.0, 762.0)",1.3,nan,0,2053.596,0,0.02,same
0,126,valid,"[(1150, 803)]",[],[1],[0.5],vertical,"(890.0, 262.0)",0.8666666666666667,0.457,1,2058.846,1,0.02,same
0,127,valid,"[(1155, 777)]",[],[1],[0.45],horizontal,"(390.0, 262.0)",1.5166666666666666,0.414,1,2063.561,1,0.02,same
0,128,valid,"[(1153, 773)]",[],[1],[0.5666666666666667],horizontal,"(890.0, 262.0)",0.5,0.528,1,2069.031,1,0.02,same
0,129,valid,"[(1153, 788)]",[],[1],[0.85],vertical,"(390.0, 262.0)",1.1666666666666667,nan,0,2073.896,0,0.02,same
0,130,valid,"[(1154, 802)]",[],[1],[0.5166666666666666],horizontal,"(390.0, 762.0)",0.5333333333333333,0.481,1,2079.399,1,0.02,same
0,131,valid,"[(1161, 792)]",[],[1],[0.48333333333333334],horizontal,"(890.0, 262.0)",0.9333333333333333,0.441,1,2083.829,1,0.02,same
0,132,invalid_adjacent_other_bar,"[(1150, 837)]",[],[1],[0.5],horizontal,"(390.0, 262.0)",1.2333333333333334,0.455,1,2088.732,1,0.02,other
0,133,valid,"[(1152, 792)]",[],[1],[0.55],vertical,"(390.0, 762.0)",1.35,0.503,1,2094.349,2,0.02,same
0,134,valid,"[(1155, 786)]",[],[1],[0.5166666666666666],horizontal,"(890.0, 762.0)",1.45,0.476,1,2100.542,2,0.02,same
0,135,invalid_same_bar,"[(1144, 795)]",[],[1],[0.85],vertical,"(890.0, 762.0)",1.15,nan,0,2106.371,0,0.02,same
0,136,catch,"[(1131, 790)]",[],[1],[],horizontal,"(890.0, 762.0)",1.7,nan,1,2111.387,1,0.02,same
0,137,valid,"[(1157, 767)]",[],[1],[0.48333333333333334],vertical,"(890.0, 262.0)",0.8333333333333334,0.442,1,2116.703,1,0.02,same
0,138,valid,"[(1157, 780)]",[],[1],[0.85],vertical,"(390.0, 262.0)",0.5166666666666666,nan,0,2121.58,0,0.02,same
0,139,catch,"[(1155, 792)]",[],[1],[],vertical,"(390.0, 762.0)",1.7,nan,1,2125.955,1,0.02,same
0,140,catch,"[(1157, 774)]",[],[1],[],vertical,"(890.0, 762.0)",1.7,nan,1,2131.527,1,0.0,same
0,141,valid,"[(1155, 793)]",[],[1],[0.5333333333333333],vertical,"(390.0, 762.0)",0.5666666666666667,0.492,1,2136.855,1,0.0,same
0,142,catch,"[(1151, 803)]",[],[1],[],horizontal,"(890.0, 762.0)",1.7,nan,1,2141.062,2,0.0,same
0,143,invalid_adjacent_other_bar,"[(1097, 827)]",[],[1],[0.36666666666666664],horizontal,"(390.0, 262.0)",1.4166666666666667,0.328,1,2146.887,2,0.0,other
0,144,valid,"[(1157, 793)]",[],[1],[0.4166666666666667],vertical,"(390.0, 762.0)",1.4333333333333333,0.38,1,2152.899,2,0.0,same
0,145,catch,"[(1131, 807)]",[],[1],[],horizontal,"(390.0, 262.0)",1.7,nan,1,2159.096,2,0.0,same
0,146,invalid_adjacent_other_bar,"[(1157, 787)]",[],[1],[0.55],horizontal,"(890.0, 762.0)",1.4,0.505,1,2164.696,3,0.0,other
0,147,valid,"[(1155, 774)]",[],[1],[0.5833333333333334],vertical,"(890.0, 262.0)",1.45,0.542,1,2171.506,3,0.0,same
0,148,valid,"[(1164, 773)]",[],[1],[0.85],vertical,"(390.0, 762.0)",0.5666666666666667,nan,0,2177.401,0,0.0,same
0,149,valid,"[(1110, 773)]",[],[1],[0.85],horizontal,"(390.0, 262.0)",0.48333333333333334,nan,0,2182.13,0,0.0,same
0,150,catch,"[(1134, 781)]",[],[1],[],horizontal,"(890.0, 762.0)",1.7,nan,1,2186.489,1,0.0,same
0,151,valid,"[(1136, 788)]",[],[1],[0.6166666666666667],horizontal,"(890.0, 762.0)",0.5166666666666666,0.573,1,2191.405,1,0.0,same
0,152,valid,"[(1139, 803)]",[],[1],[0.85],vertical,"(390.0, 262.0)",0.5833333333333334,nan,0,2196.253,0,0.0,same
0,153,catch,"[(1131, 781)]",[],[1],[],horizontal,"(390.0, 262.0)",1.7,nan,1,2200.48,1,0.0,same
0,154,valid,"[(1167, 791)]",[],[1],[0.5833333333333334],horizontal,"(390.0, 262.0)",0.7166666666666667,0.54,1,2205.515,1,0.0,same
0,155,valid,"[(1155, 803)]",[],[1],[0.5666666666666667],horizontal,"(890.0, 262.0)",1.0166666666666666,0.521,1,2209.928,1,0.0,same
0,156,valid,"[(1131, 808)]",[],[1],[0.65],horizontal,"(890.0, 262.0)",1.2666666666666666,0.603,1,2214.93,2,0.0,same
0,157,valid,"[(1150, 773)]",[],[1],[0.5833333333333334],vertical,"(390.0, 762.0)",1.4166666666666667,0.545,1,2221.113,2,0.0,same
0,158,catch,"[(1112, 806)]",[],[1],[],vertical,"(390.0, 762.0)",1.7,nan,1,2226.83,2,0.0,same
0,159,valid,"[(1157, 806)]",[],[1],[0.5333333333333333],vertical,"(890.0, 262.0)",0.9,0.498,1,2232.556,2,0.0,same
0,160,valid,"[(1157, 788)]",[],[1],[],horizontal,"(390.0, 262.0)",,"('cti', 1.435)",0,2237.955,0,0.0,same
0,161,valid,"[(1131, 786)]",[],[1],[0.31666666666666665],horizontal,"(890.0, 762.0)",1.55,0.284,1,2242.64,1,0.0,same
0,162,valid,"[(1155, 800)]",[],[1],[0.7333333333333333],vertical,"(390.0, 762.0)",0.9833333333333333,0.687,1,2248.586,1,0.0,same
0,163,valid,"[(1131, 786)]",[],[1],[0.6666666666666666],vertical,"(890.0, 762.0)",1.4666666666666666,0.624,1,2253.913,1,0.0,same
0,164,valid,"[(1157, 795)]",[],[1],[0.5333333333333333],horizontal,"(890.0, 762.0)",0.8833333333333333,0.502,1,2259.419,2,0.0,same
0,165,valid,"[(1160, 796)]",[],[1],[0.5],vertical,"(390.0, 262.0)",0.6,0.452,1,2264.668,2,0.0,same
0,166,valid,"[(1145, 799)]",[],[1],[0.5166666666666666],vertical,"(890.0, 762.0)",0.8166666666666667,0.48,1,2270.079,2,0.0,same
0,167,valid,"[(1191, 794)]",[],[1],[0.6],horizontal,"(390.0, 262.0)",0.5833333333333334,0.555,1,2275.346,2,0.0,same
0,168,valid,"[(1160, 793)]",[],[1],[0.6166666666666667],vertical,"(890.0, 262.0)",0.5666666666666667,0.578,1,2280.546,3,0.0,same
0,169,catch,"[(1169, 783)]",[],[1],[],horizontal,"(890.0, 262.0)",1.7,nan,1,2286.342,3,0.0,same
0,170,valid,"[(1153, 793)]",[],[1],[0.4666666666666667],horizontal,"(890.0, 262.0)",0.4,0.427,1,2292.246,3,0.0,same
0,171,valid,"[(1161, 785)]",[],[1],[0.7333333333333333],vertical,"(390.0, 262.0)",1.1666666666666667,0.689,1,2297.493,3,0.0,same
0,172,valid,"[(1152, 798)]",[],[1],[0.5166666666666666],horizontal,"(390.0, 762.0)",0.6833333333333333,0.474,1,2303.682,3,0.0,same
0,173,valid,"[(1160, 798)]",[],[1],[0.5666666666666667],horizontal,"(890.0, 262.0)",0.8,0.525,1,2309.519,3,0.0,same
0,174,valid,"[(1157, 771)]",[],[1],[0.6333333333333333],horizontal,"(390.0, 262.0)",1.5333333333333332,0.591,1,2315.691,3,0.0,same
0,175,valid,"[(1136, 786)]",[],[1],[0.48333333333333334],vertical,"(890.0, 262.0)",0.9,0.439,1,2322.353,3,0.0,same
0,176,valid,"[(1160, 797)]",[],[1],[0.6],horizontal,"(390.0, 262.0)",0.9833333333333333,0.557,1,2328.133,3,0.0,same
0,177,valid,"[(1154, 779)]",[],[1],[0.6],vertical,"(890.0, 762.0)",0.95,0.557,1,2334.13,3,0.0,same
0,178,catch,"[(1158, 794)]",[],[1],[],horizontal,"(390.0, 262.0)",1.7,nan,1,2339.58,3,0.0,same
0,179,catch,"[(1156, 781)]",[],[1],[],vertical,"(390.0, 762.0)",1.7,nan,1,2345.746,3,0.0,same
0,180,valid,"[(1158, 779)]",[],[1],[0.6166666666666667],vertical,"(890.0, 262.0)",0.8666666666666667,0.575,1,2351.78,3,0.0,same
0,181,invalid_adjacent_other_bar,"[(1156, 776)]",[],[1],[0.65],vertical,"(390.0, 262.0)",1.4,0.611,1,2357.664,3,0.0,other
0,182,valid,"[(1159, 775)]",[],[1],[0.85],vertical,"(390.0, 262.0)",0.55,nan,0,2363.713,0,0.0,same
0,183,valid,"[(1124, 769)]",[],[1],[0.7],horizontal,"(890.0, 262.0)",1.4333333333333333,0.658,1,2368.344,1,0.0,same
0,184,valid,"[(1106, 824)]",[],[1],[0.4666666666666667],vertical,"(890.0, 762.0)",0.8,0.433,1,2373.818,1,0.0,same
0,185,valid,"[(1110, 823)]",[],[1],[0.55],vertical,"(890.0, 762.0)",0.9333333333333333,0.51,1,2528.528,1,0.0,same
0,186,invalid_same_bar,"[(1175, 807)]",[],[1],[0.85],horizontal,"(890.0, 262.0)",0.5666666666666667,nan,0,2923.515,0,0.0,same
0,187,valid,"[(1159, 789)]",[],[1],[0.6666666666666666],vertical,"(390.0, 262.0)",0.85,0.621,1,2927.998,1,0.0,same
0,188,invalid_same_bar,"[(1129, 798)]",[],[1],[0.6166666666666667],vertical,"(890.0, 262.0)",1.5166666666666666,0.567,1,2933.486,1,0.0,same
0,189,invalid_same_bar,"[(1174, 782)]",[],[1],[0.85],vertical,"(890.0, 762.0)",0.6333333333333333,nan,0,2939.649,0,0.0,same
0,190,invalid_adjacent_other_bar,"[(1131, 781)]",[],[1],[0.5],vertical,"(890.0, 262.0)",0.7,0.462,1,2943.882,1,0.0,other
0,191,invalid_adjacent_other_bar,"[(1161, 778)]",[],[1],[0.6333333333333333],horizontal,"(890.0, 262.0)",0.4,0.591,1,2948.883,1,0.0,other
0,192,valid,"[(1121, 813)]",[],[1],[0.5166666666666666],vertical,"(390.0, 762.0)",0.6,0.475,1,2953.35,1,0.0,same
0,193,invalid_adjacent_other_bar,"[(1169, 798)]",[],[1],[0.5666666666666667],vertical,"(890.0, 262.0)",1.2166666666666666,0.528,1,2958.215,2,0.0,other
0,194,catch,"[(1163, 797)]",[],[1],[],vertical,"(390.0, 762.0)",1.7,nan,1,2964.393,2,0.0,same
0,195,valid,"[(1165, 794)]",[],[1],[0.8333333333333334],vertical,"(390.0, 762.0)",0.7666666666666666,0.787,1,2970.052,2,0.0,same
0,196,valid,"[(1170, 781)]",[],[1],[0.6166666666666667],horizontal,"(390.0, 762.0)",0.4,0.57,1,2975.632,2,0.0,same
0,197,invalid_same_bar,"[(1157, 829)]",[],[1],[0.5333333333333333],horizontal,"(890.0, 262.0)",1.3666666666666667,0.493,1,2980.299,3,0.0,same
0,198,invalid_same_bar,"[(1160, 775)]",[],[1],[0.5166666666666666],horizontal,"(890.0, 762.0)",1.3166666666666667,0.475,1,2986.59,3,0.0,same
0,199,catch,"[(1161, 765)]",[],[1],[],horizontal,"(390.0, 262.0)",1.7,nan,1,2992.721,3,0.0,same
0,200,catch,"[(1159, 788)]",[],[1],[],horizontal,"(390.0, 262.0)",1.7,nan,1,2999.016,3,0.0,same
0,201,invalid_adjacent_other_bar,"[(1173, 779)]",[],[1],[0.5166666666666666],vertical,"(890.0, 262.0)",0.8,0.479,1,3004.781,3,0.0,other
0,202,valid,"[(1161, 784)]",[],[1],[0.5166666666666666],horizontal,"(390.0, 262.0)",0.8,0.475,1,3010.72,3,0.0,same
0,203,invalid_same_bar,"[(1160, 761)]",[],[1],[0.6333333333333333],horizontal,"(890.0, 262.0)",0.6666666666666666,0.587,1,3016.322,3,0.0,same
0,204,valid,"[(1172, 780)]",[],[1],[0.5166666666666666],horizontal,"(390.0, 762.0)",0.7333333333333333,0.479,1,3021.868,3,0.0,same
0,205,valid,"[(1160, 774)]",[],[1],[0.4666666666666667],vertical,"(390.0, 262.0)",1.35,0.424,1,3027.048,3,0.0,same
0,206,catch,"[(1163, 772)]",[],[1],[],horizontal,"(890.0, 262.0)",1.7,nan,1,3033.438,3,0.0,same
0,207,valid,"[(1160, 786)]",[],[1],[0.6],vertical,"(890.0, 762.0)",0.55,0.56,1,3039.538,3,0.0,same
0,208,invalid_adjacent_other_bar,"[(1158, 781)]",[],[1],[0.5833333333333334],vertical,"(390.0, 762.0)",0.4666666666666667,0.539,1,3045.083,3,0.0,other
0,209,valid,"[(1158, 769)]",[],[1],[0.5333333333333333],horizontal,"(390.0, 762.0)",0.55,0.491,1,3050.515,3,0.0,same
0,210,catch,"[(1158, 798)]",[],[1],[],vertical,"(390.0, 262.0)",1.7,nan,1,3055.482,3,0.0,same
0,211,catch,"[(1159, 761)]",[],[1],[],vertical,"(390.0, 762.0)",1.7,nan,1,3061.478,3,0.0,same
0,212,valid,"[(1159, 773)]",[],[1],[0.48333333333333334],vertical,"(390.0, 762.0)",0.6833333333333333,0.445,1,3067.471,3,0.0,same
0,213,valid,"[(1166, 781)]",[],[1],[0.85],horizontal,"(390.0, 262.0)",1.45,nan,0,3072.839,0,0.0,same
0,214,valid,"[(1136, 783)]",[],[1],[0.7],vertical,"(890.0, 262.0)",0.3833333333333333,0.655,1,3078.247,1,0.0,same
0,215,valid,"[(1180, 791)]",[],[1],[0.85],vertical,"(890.0, 762.0)",0.95,nan,0,3083.277,0,0.0,same
0,216,valid,"[(1156, 773)]",[],[1],[0.4666666666666667],vertical,"(390.0, 262.0)",0.8833333333333333,0.427,1,3088.016,1,0.0,same
0,217,valid,"[(1176, 786)]",[],[1],[0.48333333333333334],vertical,"(890.0, 262.0)",0.4,0.442,1,3093.084,1,0.0,same
0,218,catch,"[(1131, 765)]",[],[1],[],horizontal,"(390.0, 262.0)",1.7,nan,1,3097.983,1,0.0,same
0,219,valid,"[(1175, 803)]",[],[1],[0.45],vertical,"(390.0, 762.0)",0.65,0.418,1,3103.61,2,0.0,same
0,220,valid,"[(1163, 803)]",[],[1],[0.85],horizontal,"(390.0, 262.0)",1.3333333333333333,nan,0,3108.767,0,0.0,same
0,221,invalid_same_bar,"[(1131, 778)]",[],[1],[0.48333333333333334],horizontal,"(390.0, 262.0)",0.85,0.447,1,3114.233,1,0.0,same
0,222,valid,"[(1131, 783)]",[],[1],[0.5],vertical,"(390.0, 262.0)",0.5666666666666667,0.459,1,3118.893,1,0.0,same
0,223,invalid_adjacent_other_bar,"[(1159, 806)]",[],[1],[0.5166666666666666],vertical,"(890.0, 762.0)",1.3333333333333333,0.478,1,3123.882,1,0.0,other
0,224,catch,"[(1163, 793)]",[],[1],[],vertical,"(390.0, 262.0)",1.7,nan,1,3129.349,2,0.0,same
0,225,valid,"[(1166, 773)]",[],[1],[0.5333333333333333],vertical,"(390.0, 762.0)",0.9666666666666667,0.498,1,3135.083,2,0.0,same
0,226,valid,"[(1161, 762)]",[],[1],[0.55],horizontal,"(390.0, 762.0)",1.1,0.508,1,3140.433,2,0.0,same
0,227,valid,"[(1154, 777)]",[],[1],[0.48333333333333334],vertical,"(890.0, 262.0)",0.9666666666666667,0.441,1,3145.982,2,0.0,same
0,228,valid,"[(1131, 789)]",[],[1],[0.6166666666666667],vertical,"(890.0, 262.0)",0.7166666666666667,0.578,1,3151.832,3,0.0,same
0,229,valid,"[(1165, 758)]",[],[1],[0.5833333333333334],vertical,"(390.0, 762.0)",1.4166666666666667,0.542,1,3157.649,3,0.0,same
0,230,catch,"[(1160, 767)]",[],[1],[],horizontal,"(890.0, 762.0)",1.7,nan,1,3163.922,3,0.0,same
0,231,valid,"[(1171, 766)]",[],[1],[0.6666666666666666],horizontal,"(390.0, 262.0)",0.8833333333333333,0.621,1,3169.716,3,0.0,same
0,232,catch,"[(1131, 784)]",[],[1],[],horizontal,"(890.0, 262.0)",1.7,"('cti', 1.685),nan",0,3175.748,0,0.02,same
0,233,valid,"[(1142, 781)]",[],[1],[0.6166666666666667],horizontal,"(890.0, 762.0)",1.35,0.572,1,3180.933,1,0.02,same
0,234,valid,"[(1131, 790)]",[],[1],[0.13333333333333333],horizontal,"(890.0, 762.0)",1.4,0.1,0,3186.066,0,0.02,same
0,235,valid,"[(1138, 782)]",[],[1],[0.6333333333333333],vertical,"(390.0, 262.0)",0.6166666666666667,0.587,1,3190.85,1,0.02,same
0,236,catch,"[(1162, 786)]",[],[1],[],horizontal,"(890.0, 762.0)",1.7,nan,1,3195.85,1,0.02,same
0,237,valid,"[(1138, 786)]",[],[1],[0.5],vertical,"(890.0, 762.0)",0.5,0.455,1,3201.266,1,0.02,same
0,238,valid,"[(1162, 791)]",[],[1],[0.5333333333333333],horizontal,"(390.0, 762.0)",0.9833333333333333,0.492,1,3205.882,2,0.02,same
0,239,invalid_adjacent_other_bar,"[(1165, 767)]",[],[1],[0.85],vertical,"(390.0, 262.0)",0.95,nan,0,3211.733,0,0.02,other
0,240,catch,"[(1161, 774)]",[],[1],[],horizontal,"(390.0, 262.0)",1.7,nan,1,3216.4,1,0.02,same
0,241,valid,"[(1171, 789)]",[],[1],[0.85],vertical,"(890.0, 762.0)",1.4166666666666667,nan,0,3221.316,0,0.02,same
0,242,catch,"[(1115, 759)]",[],[1],[],vertical,"(390.0, 262.0)",1.7,nan,1,3226.733,1,0.02,same
0,243,invalid_adjacent_other_bar,"[(1168, 779)]",[],[1],[0.85],horizontal,"(890.0, 262.0)",1.5166666666666666,nan,0,3231.932,0,0.02,other
0,244,catch,"[(1131, 786)]",[],[1],[],vertical,"(890.0, 762.0)",1.7,nan,1,3236.95,1,0.02,same
0,245,catch,"[(1173, 787)]",[],[1],[],vertical,"(890.0, 762.0)",1.7,nan,1,3242.233,1,0.02,same
0,246,catch,"[(1162, 763)]",[],[1],[],vertical,"(890.0, 762.0)",1.7,nan,1,3247.566,1,0.02,same
0,247,valid,"[(1165, 771)]",[],[1],[0.48333333333333334],vertical,"(890.0, 262.0)",0.48333333333333334,0.444,1,3252.733,2,0.02,same
0,248,valid,"[(1161, 776)]",[],[1],[0.5333333333333333],horizontal,"(890.0, 762.0)",1.45,0.49,1,3257.233,2,0.02,same
0,249,valid,"[(1160, 787)]",[],[1],[0.5166666666666666],vertical,"(890.0, 262.0)",1.4666666666666666,0.476,1,3263.133,2,0.02,same
0,250,valid,"[(1158, 788)]",[],[1],[0.6],horizontal,"(890.0, 262.0)",0.5,0.558,1,3269.099,2,0.02,same
0,251,valid,"[(1160, 793)]",[],[1],[0.5],vertical,"(890.0, 762.0)",0.55,0.459,1,3274.365,3,0.02,same
0,252,valid,"[(1163, 781)]",[],[1],[0.5833333333333334],vertical,"(390.0, 262.0)",0.6833333333333333,0.549,1,3279.549,3,0.02,same
0,253,valid,"[(1170, 772)]",[],[1],[0.5666666666666667],horizontal,"(890.0, 262.0)",0.7166666666666667,0.522,1,3285.348,3,0.02,same
0,254,catch,"[(1172, 774)]",[],[1],[],horizontal,"(390.0, 262.0)",1.7,nan,1,3290.493,3,0.02,same
0,255,catch,"[(1175, 767)]",[],[1],[],vertical,"(890.0, 262.0)",1.7,nan,1,3296.417,3,0.02,same
0,256,valid,"[(1163, 770)]",[],[1],[0.6666666666666666],horizontal,"(390.0, 762.0)",1.5333333333333332,0.619,1,3302.374,3,0.02,same
0,257,catch,"[(1166, 787)]",[],[1],[],vertical,"(390.0, 262.0)",1.7,nan,1,3308.799,3,0.02,same
0,258,valid,"[(1160, 786)]",[],[1],[0.5],horizontal,"(890.0, 262.0)",0.35,0.455,1,3314.76,3,0.02,same
0,259,valid,"[(1164, 787)]",[],[1],[0.85],horizontal,"(890.0, 262.0)",0.6166666666666667,nan,0,3319.832,0,0.02,same
0,260,valid,"[(1125, 780)]",[],[1],[0.5],vertical,"(890.0, 762.0)",1.2833333333333332,0.455,1,3324.563,1,0.02,same
0,261,valid,"[(1148, 777)]",[],[1],[0.43333333333333335],horizontal,"(390.0, 262.0)",1.4,0.389,1,3329.615,1,0.02,same
0,262,valid,"[(1141, 785)]",[],[1],[0.5166666666666666],vertical,"(890.0, 762.0)",0.48333333333333334,0.475,1,3335.317,1,0.02,same
0,263,valid,"[(1160, 768)]",[],[1],[0.85],horizontal,"(390.0, 262.0)",0.6666666666666666,nan,0,3340.016,0,0.02,same
0,264,catch,"[(1146, 792)]",[],[1],[],horizontal,"(890.0, 262.0)",1.7,nan,1,3344.772,1,0.02,same
0,265,valid,"[(1141, 785)]",[],[1],[0.55],horizontal,"(890.0, 762.0)",0.9833333333333333,0.511,1,3350.222,1,0.02,same
0,266,valid,"[(1166, 793)]",[],[1],[0.48333333333333334],vertical,"(890.0, 762.0)",0.6166666666666667,0.444,1,3354.932,1,0.02,same
0,267,valid,"[(1161, 795)]",[],[1],[0.75],horizontal,"(390.0, 762.0)",1.3166666666666667,0.701,1,3359.867,2,0.02,same
0,268,valid,"[(1149, 775)]",[],[1],[0.85],vertical,"(890.0, 262.0)",1.3833333333333333,nan,0,3366.365,0,0.02,same
0,269,valid,"[(1131, 782)]",[],[1],[0.5166666666666666],horizontal,"(890.0, 762.0)",0.5,0.471,1,3371.517,1,0.02,same
0,270,valid,"[(1163, 789)]",[],[1],[0.48333333333333334],vertical,"(890.0, 262.0)",0.45,0.445,1,3375.765,1,0.02,same
0,271,valid,"[(1141, 788)]",[],[1],[0.4666666666666667],horizontal,"(390.0, 262.0)",1.4333333333333333,0.425,1,3380.069,1,0.02,same
0,272,catch,"[(1135, 778)]",[],[1],[],horizontal,"(390.0, 262.0)",1.7,nan,1,3385.487,2,0.02,same
0,273,catch,"[(1146, 801)]",[],[1],[],vertical,"(390.0, 762.0)",1.7,nan,1,3391.383,2,0.02,same
0,274,valid,"[(1170, 800)]",[],[1],[0.5833333333333334],vertical,"(890.0, 262.0)",1.2,0.541,1,3397.089,2,0.02,same
0,275,catch,"[(1164, 779)]",[],[1],[],vertical,"(890.0, 762.0)",1.7,nan,1,3402.994,2,0.02,same
0,276,catch,"[(1142, 803)]",[],[1],[],horizontal,"(390.0, 762.0)",1.7,nan,1,3409.057,3,0.02,same
0,277,catch,"[(1171, 782)]",[],[1],[],vertical,"(390.0, 762.0)",1.7,nan,1,3415.473,3,0.02,same
0,278,valid,"[(1159, 769)]",[],[1],[0.5666666666666667],horizontal,"(390.0, 762.0)",0.45,0.523,1,3421.416,3,0.02,same
0,279,valid,"[(1170, 781)]",[],[1],[0.5166666666666666],horizontal,"(390.0, 762.0)",0.9333333333333333,0.473,1,3426.684,3,0.02,same
0,280,catch,"[(1139, 777)]",[],[1],[],vertical,"(890.0, 762.0)",1.7,nan,1,3432.017,3,0.02,same
0,281,valid,"[(1159, 774)]",[],[1],[0.5],vertical,"(890.0, 762.0)",1.1333333333333333,0.462,1,3437.717,3,0.02,same
0,282,valid,"[(1160, 782)]",[],[1],[0.48333333333333334],vertical,"(890.0, 262.0)",1.0166666666666666,0.439,1,3443.533,3,0.0,same
0,283,invalid_adjacent_other_bar,"[(1163, 766)]",[],[1],[0.6333333333333333],vertical,"(390.0, 262.0)",0.9,0.589,1,3449.801,3,0.0,other
0,284,valid,"[(1161, 781)]",[],[1],[0.6833333333333333],vertical,"(390.0, 262.0)",0.5166666666666666,0.645,1,3455.696,3,0.0,same
0,285,valid,"[(1173, 782)]",[],[1],[0.48333333333333334],vertical,"(890.0, 262.0)",0.9833333333333333,0.448,1,3460.949,3,0.0,same
0,286,catch,"[(1161, 784)]",[],[1],[],vertical,"(390.0, 762.0)",1.7,nan,1,3466.565,3,0.0,same
0,287,invalid_same_bar,"[(1141, 809)]",[],[1],[0.6333333333333333],vertical,"(890.0, 762.0)",0.4166666666666667,0.589,1,3472.718,3,0.0,same
0,288,valid,"[(1156, 792)]",[],[1],[0.5666666666666667],horizontal,"(890.0, 762.0)",1.2166666666666666,0.53,1,3478.367,3,0.0,same
0,289,valid,"[(1160, 802)]",[],[1],[0.5],horizontal,"(390.0, 762.0)",0.8833333333333333,0.46,1,3484.794,3,0.0,same
0,290,valid,"[(1162, 789)]",[],[1],[0.55],vertical,"(890.0, 762.0)",0.8833333333333333,0.509,1,3490.766,3,0.0,same
0,291,invalid_same_bar,"[(1121, 836)]",[],[1],[0.5166666666666666],horizontal,"(390.0, 762.0)",1.3,0.476,1,3496.683,3,0.0,same
0,292,valid,"[(1166, 773)]",[],[1],[0.48333333333333334],vertical,"(890.0, 762.0)",1.4666666666666666,0.446,1,3502.649,3,0.0,same
0,293,invalid_same_bar,"[(1160, 782)]",[],[1],[0.48333333333333334],horizontal,"(890.0, 262.0)",1.25,0.443,1,3508.944,3,0.0,same
0,294,valid,"[(1141, 792)]",[],[1],[0.55],horizontal,"(890.0, 762.0)",1.3166666666666667,0.508,1,3514.8,3,0.0,same
0,295,catch,"[(1165, 792)]",[],[1],[],vertical,"(390.0, 762.0)",,"('cti', 1.559),nan",0,3520.984,0,0.02,same
0,296,catch,"[(1121, 801)]",[],[1],[],horizontal,"(890.0, 762.0)",1.7,nan,1,3526.022,1,0.02,same
0,297,catch,"[(1161, 776)]",[],[1],[],horizontal,"(390.0, 762.0)",1.7,nan,1,3531.272,1,0.02,same
0,298,catch,"[(1165, 771)]",[],[1],[],horizontal,"(890.0, 762.0)",1.7,nan,1,3536.301,1,0.02,same
0,299,valid,"[(1143, 783)]",[],[1],[0.6833333333333333],vertical,"(390.0, 762.0)",0.8333333333333334,0.636,1,3541.434,2,0.02,same
0,300,valid,"[(1165, 781)]",[],[1],[0.5666666666666667],horizontal,"(390.0, 262.0)",0.9833333333333333,0.524,1,3547.034,2,0.02,same
0,301,valid,"[(1166, 804)]",[],[1],[0.4666666666666667],vertical,"(890.0, 262.0)",0.65,0.433,1,3552.595,2,0.02,same
0,302,invalid_same_bar,"[(1121, 805)]",[],[1],[0.48333333333333334],vertical,"(890.0, 262.0)",0.6166666666666667,0.445,1,3557.85,2,0.02,same
0,303,valid,"[(1168, 804)]",[],[1],[0.5833333333333334],vertical,"(390.0, 262.0)",1.1833333333333333,0.547,1,3563.101,3,0.02,same
0,304,catch,"[(1164, 780)]",[],[1],[],vertical,"(890.0, 762.0)",1.7,nan,1,3569.137,3,0.02,same
0,305,catch,"[(1158, 769)]",[],[1],[],vertical,"(890.0, 262.0)",1.7,nan,1,3575.244,3,0.02,same
0,306,valid,"[(1134, 780)]",[],[1],[0.48333333333333334],vertical,"(390.0, 762.0)",0.36666666666666664,0.443,1,3581.067,3,0.02,same
0,307,invalid_same_bar,"[(1166, 802)]",[],[1],[0.6],horizontal,"(390.0, 762.0)",0.6666666666666666,0.559,1,3586.35,3,0.02,same
0,308,valid,"[(1164, 782)]",[],[1],[0.48333333333333334],horizontal,"(390.0, 262.0)",0.8666666666666667,0.447,1,3592.291,3,0.02,same
0,309,valid,"[(1175, 783)]",[],[1],[0.5333333333333333],horizontal,"(390.0, 762.0)",1.4,0.494,1,3597.65,3,0.02,same
0,310,valid,"[(1165, 782)]",[],[1],[0.85],vertical,"(890.0, 762.0)",0.35,nan,0,3604.066,0,0.02,same
0,311,catch,"[(1121, 758)]",[],[1],[],horizontal,"(890.0, 262.0)",1.7,nan,1,3608.193,1,0.02,same
0,312,invalid_same_bar,"[(1160, 796)]",[],[1],[0.85],horizontal,"(390.0, 762.0)",0.5833333333333334,nan,0,3613.782,0,0.02,same
0,313,valid,"[(1122, 783)]",[],[1],[0.55],vertical,"(890.0, 262.0)",0.7666666666666666,0.505,1,3617.942,1,0.02,same
0,314,valid,"[(1175, 796)]",[],[1],[0.48333333333333334],horizontal,"(390.0, 762.0)",1.0833333333333333,0.445,1,3622.739,1,0.02,same
0,315,valid,"[(1167, 797)]",[],[1],[0.4666666666666667],horizontal,"(890.0, 262.0)",0.5,0.427,1,3627.684,1,0.02,same
0,316,valid,"[(1162, 778)]",[],[1],[0.85],vertical,"(390.0, 262.0)",0.6166666666666667,nan,0,3632.738,0,0.02,same
0,317,catch,"[(1124, 800)]",[],[1],[],vertical,"(390.0, 262.0)",1.7,nan,1,3637.116,1,0.02,same
0,318,valid,"[(1158, 801)]",[],[1],[0.85],vertical,"(890.0, 262.0)",0.6333333333333333,nan,0,3645.807,0,0.02,same
0,319,valid,"[(1111, 791)]",[],[1],[0.85],horizontal,"(890.0, 262.0)",0.36666666666666664,nan,0,3650.322,0,0.02,same
0,320,invalid_adjacent_other_bar,"[(1131, 787)]",[],[1],[0.85],horizontal,"(390.0, 762.0)",0.55,nan,0,3654.337,0,0.02,other
0,321,valid,"[(1128, 783)]",[],[1],[0.6833333333333333],vertical,"(890.0, 262.0)",0.4166666666666667,0.642,1,3658.931,1,0.02,same
0,322,valid,"[(1153, 787)]",[],[1],[0.55],vertical,"(390.0, 762.0)",1.4833333333333334,0.508,1,3663.342,1,0.02,same
0,323,valid,"[(1129, 789)]",[],[1],[0.75],horizontal,"(890.0, 262.0)",1.0333333333333332,0.702,1,3669.065,1,0.02,same
0,324,valid,"[(1126, 796)]",[],[1],[0.5],vertical,"(390.0, 762.0)",0.75,0.457,1,3674.701,2,0.02,same
0,325,valid,"[(1175, 792)]",[],[1],[0.45],horizontal,"(890.0, 262.0)",1.15,0.414,1,3680.068,2,0.02,same
0,326,catch,"[(1131, 800)]",[],[1],[],vertical,"(390.0, 762.0)",1.7,nan,1,3685.507,2,0.02,same
0,327,valid,"[(1160, 783)]",[],[1],[0.5333333333333333],vertical,"(390.0, 762.0)",0.6333333333333333,0.494,1,3691.275,2,0.02,same
0,328,catch,"[(1160, 802)]",[],[1],[],horizontal,"(890.0, 762.0)",1.7,nan,1,3696.6,3,0.02,same
0,329,catch,"[(1172, 774)]",[],[1],[],vertical,"(390.0, 262.0)",1.7,nan,1,3703.195,3,0.02,same
0,330,catch,"[(1172, 799)]",[],[1],[],vertical,"(390.0, 762.0)",1.7,nan,1,3709.601,3,0.02,same
0,331,valid,"[(1160, 783)]",[],[1],[0.6666666666666666],horizontal,"(890.0, 762.0)",0.95,0.614,1,3715.334,3,0.02,same
0,332,valid,"[(1161, 787)]",[],[1],[0.55],vertical,"(390.0, 262.0)",0.35,0.506,1,3721.4,3,0.02,same
0,333,valid,"[(1092, 804)]",[],[1],[0.5],vertical,"(890.0, 262.0)",1.2666666666666666,0.459,1,3726.55,3,0.02,same
0,334,valid,"[(1166, 797)]",[],[1],[0.5],horizontal,"(390.0, 262.0)",0.5,0.461,1,3733.638,3,0.02,same
0,335,catch,"[(1134, 785)]",[],[1],[],vertical,"(390.0, 762.0)",1.7,nan,1,3739.084,3,0.02,same
0,336,valid,"[(1164, 788)]",[],[1],[0.5],horizontal,"(890.0, 762.0)",0.8166666666666667,0.46,1,3745.269,3,0.02,same
0,337,catch,"[(1169, 770)]",[],[1],[],horizontal,"(390.0, 762.0)",1.7,nan,1,3751.268,3,0.02,same
0,338,valid,"[(1160, 784)]",[],[1],[0.5],vertical,"(890.0, 762.0)",0.65,0.461,1,3757.284,3,0.02,same
0,339,catch,"[(1160, 795)]",[],[1],[],horizontal,"(890.0, 762.0)",1.7,nan,1,3762.48,3,0.02,same
0,340,valid,"[(1169, 781)]",[],[1],[0.5],vertical,"(390.0, 262.0)",0.6666666666666666,0.459,1,3768.682,3,0.02,same
0,341,valid,"[(1158, 777)]",[],[1],[0.6666666666666666],horizontal,"(890.0, 262.0)",0.8166666666666667,0.627,1,3774.246,3,0.02,same
0,342,valid,"[(1176, 793)]",[],[1],[0.8],vertical,"(390.0, 262.0)",1.4666666666666666,0.758,1,3780.266,3,0.02,same
0,343,valid,"[(1173, 778)]",[],[1],[0.6666666666666666],horizontal,"(390.0, 262.0)",0.9,0.628,1,3786.728,3,0.02,same
0,344,valid,"[(1174, 812)]",[],[1],[0.5333333333333333],horizontal,"(890.0, 762.0)",0.4166666666666667,0.491,1,3792.718,3,0.02,same
0,345,valid,"[(1156, 790)]",[],[1],[0.5833333333333334],vertical,"(890.0, 762.0)",0.8666666666666667,0.546,1,3797.868,3,0.0,same
0,346,valid,"[(1146, 781)]",[],[1],[0.6166666666666667],horizontal,"(890.0, 762.0)",1.35,0.58,1,3803.459,3,0.0,same
0,347,valid,"[(1164, 790)]",[],[1],[0.6],horizontal,"(390.0, 262.0)",0.5333333333333333,0.558,1,3809.568,3,0.0,same
0,348,valid,"[(1156, 781)]",[],[1],[0.6666666666666666],horizontal,"(890.0, 262.0)",0.5833333333333334,0.623,1,3815.226,3,0.0,same
0,349,catch,"[(1157, 797)]",[],[1],[],horizontal,"(890.0, 262.0)",1.7,nan,1,3820.834,3,0.0,same
0,350,catch,"[(1159, 773)]",[],[1],[],vertical,"(390.0, 262.0)",1.7,nan,1,3827.141,3,0.0,same
0,351,valid,"[(1162, 799)]",[],[1],[0.6166666666666667],vertical,"(390.0, 262.0)",1.4166666666666667,0.575,1,3833.303,3,0.0,same
0,352,valid,"[(1165, 788)]",[],[1],[0.5166666666666666],horizontal,"(390.0, 262.0)",1.5166666666666666,0.479,1,3839.777,3,0.0,same
0,353,valid,"[(1163, 776)]",[],[1],[0.5],vertical,"(890.0, 262.0)",1.35,0.463,1,3845.951,3,0.0,same
0,354,catch,"[(1126, 793)]",[],[1],[],vertical,"(390.0, 762.0)",1.7,nan,1,3851.767,3,0.0,same
0,355,valid,"[(1162, 785)]",[],[1],[0.85],vertical,"(390.0, 762.0)",0.48333333333333334,nan,0,3858.067,0,0.0,same
0,356,valid,"[(1122, 774)]",[],[1],[0.5333333333333333],vertical,"(890.0, 262.0)",0.9666666666666667,0.493,1,3862.735,1,0.0,same
0,357,valid,"[(1175, 776)]",[],[1],[0.5],horizontal,"(890.0, 262.0)",1.0166666666666666,0.464,1,3867.617,1,0.0,same
0,358,invalid_same_bar,"[(1157, 802)]",[],[1],[0.5166666666666666],vertical,"(890.0, 262.0)",0.5333333333333333,0.473,1,3872.504,1,0.0,same
0,359,catch,"[(1136, 793)]",[],[1],[],vertical,"(890.0, 762.0)",1.7,nan,1,3877.242,2,0.0,same
0,360,valid,"[(1168, 799)]",[],[1],[0.55],horizontal,"(890.0, 762.0)",0.48333333333333334,0.512,1,3882.799,2,0.0,same
0,361,catch,"[(1130, 792)]",[],[1],[],horizontal,"(390.0, 762.0)",1.7,nan,1,3887.522,2,0.0,same
0,362,valid,"[(1131, 778)]",[],[1],[0.1],horizontal,"(890.0, 262.0)",1.4,0.069,0,3893.44,0,0.0,same
0,363,catch,"[(1134, 786)]",[],[1],[],horizontal,"(390.0, 762.0)",1.7,nan,1,3897.849,1,0.0,same
0,364,valid,"[(1160, 771)]",[],[1],[0.5666666666666667],vertical,"(390.0, 762.0)",1.0666666666666667,0.525,1,3902.996,1,0.0,same
0,365,valid,"[(1111, 810)]",[],[1],[0.5666666666666667],vertical,"(890.0, 762.0)",1.35,0.535,1,3908.132,1,0.0,same
0,366,valid,"[(1160, 792)]",[],[1],[0.6333333333333333],horizontal,"(890.0, 762.0)",0.55,0.589,1,3913.724,2,0.0,same
0,367,valid,"[(1162, 796)]",[],[1],[0.5],vertical,"(890.0, 262.0)",0.6333333333333333,0.466,1,3918.686,2,0.0,same
0,368,valid,"[(1157, 772)]",[],[1],[0.6666666666666666],horizontal,"(890.0, 762.0)",0.75,0.628,1,3923.873,2,0.0,same
0,369,valid,"[(1158, 800)]",[],[1],[0.6],vertical,"(890.0, 762.0)",0.9333333333333333,0.567,1,3929.787,2,0.0,same
0,370,valid,"[(1137, 798)]",[],[1],[0.48333333333333334],vertical,"(890.0, 762.0)",0.8,0.444,1,3935.483,3,0.0,same
0,371,valid,"[(1174, 788)]",[],[1],[0.5],horizontal,"(890.0, 762.0)",1.1833333333333333,0.466,1,3941.687,3,0.0,same
0,372,valid,"[(1159, 783)]",[],[1],[0.45],vertical,"(390.0, 762.0)",1.2833333333333332,0.414,1,3947.537,3,0.0,same
0,373,valid,"[(1142, 794)]",[],[1],[0.6166666666666667],vertical,"(390.0, 262.0)",0.55,0.577,1,3953.69,3,0.0,same
0,374,valid,"[(1124, 802)]",[],[1],[0.5],vertical,"(390.0, 762.0)",0.8666666666666667,0.463,1,3959.301,3,0.0,same
0,375,catch,"[(1160, 785)]",[],[1],[],horizontal,"(890.0, 262.0)",1.7,nan,1,3964.935,3,0.0,same
0,376,catch,"[(1160, 782)]",[],[1],[],horizontal,"(890.0, 262.0)",1.7,nan,1,3970.855,3,0.0,same
0,377,valid,"[(1154, 774)]",[],[1],[0.5],vertical,"(890.0, 262.0)",0.8833333333333333,0.459,1,3976.76,3,0.0,same
0,378,catch,"[(1155, 781)]",[],[1],[],vertical,"(390.0, 762.0)",1.7,nan,1,3982.095,3,0.0,same
0,379,valid,"[(1168, 790)]",[],[1],[0.48333333333333334],vertical,"(390.0, 762.0)",1.3666666666666667,0.441,1,3987.871,3,0.0,same
0,380,valid,"[(1132, 783)]",[],[1],[0.6166666666666667],horizontal,"(890.0, 262.0)",0.9833333333333333,0.578,1,3994.351,3,0.0,same
0,381,invalid_adjacent_other_bar,"[(1162, 773)]",[],[1],[0.48333333333333334],vertical,"(890.0, 262.0)",1.15,0.451,1,4000.433,3,0.0,other
0,382,catch,"[(1160, 779)]",[],[1],[],horizontal,"(890.0, 262.0)",1.7,nan,1,4006.114,3,0.0,same
0,383,valid,"[(1156, 778)]",[],[1],[0.65],horizontal,"(390.0, 262.0)",0.95,0.605,1,4012.452,3,0.0,same
0,384,catch,"[(1160, 788)]",[],[1],[],horizontal,"(390.0, 762.0)",1.7,nan,1,4018.068,3,0.0,same
0,385,catch,"[(1156, 782)]",[],[1],[],vertical,"(390.0, 762.0)",1.7,nan,1,4023.969,3,0.0,same
0,386,catch,"[(1152, 778)]",[],[1],[],vertical,"(890.0, 262.0)",1.7,nan,1,4029.786,3,0.0,same
0,387,catch,"[(1162, 771)]",[],[1],[],horizontal,"(390.0, 762.0)",1.7,nan,1,4036.001,3,0.0,same
0,388,valid,"[(1143, 797)]",[],[1],[0.85],horizontal,"(390.0, 262.0)",0.48333333333333334,nan,0,4042.018,0,0.0,same
0,389,valid,"[(1092, 772)]",[],[1],[0.5666666666666667],horizontal,"(890.0, 262.0)",0.9833333333333333,0.523,1,4046.336,1,0.0,same
0,390,valid,"[(1137, 799)]",[],[1],[0.5833333333333334],horizontal,"(890.0, 262.0)",0.6833333333333333,0.543,1,4051.469,1,0.0,same
0,391,valid,"[(1156, 778)]",[],[1],[0.4666666666666667],vertical,"(890.0, 762.0)",0.65,0.429,1,4056.568,1,0.0,same
0,392,invalid_adjacent_other_bar,"[(1149, 774)]",[],[1],[0.48333333333333334],vertical,"(890.0, 762.0)",1.3666666666666667,0.441,1,4061.551,2,0.0,other
0,393,catch,"[(1160, 792)]",[],[1],[],vertical,"(390.0, 762.0)",1.7,nan,1,4067.553,2,0.0,same
0,394,valid,"[(1158, 791)]",[],[1],[0.6],horizontal,"(890.0, 262.0)",0.6666666666666666,0.555,1,4073.302,2,0.0,same
0,395,catch,"[(1158, 792)]",[],[1],[],vertical,"(890.0, 762.0)",1.7,nan,1,4078.452,2,0.0,same
0,396,valid,"[(1169, 796)]",[],[1],[0.5166666666666666],vertical,"(890.0, 262.0)",1.15,0.479,1,4084.452,3,0.0,same
0,397,valid,"[(1160, 771)]",[],[1],[0.5166666666666666],vertical,"(390.0, 762.0)",1.2166666666666666,0.472,1,4091.118,3,0.0,same
0,398,invalid_adjacent_other_bar,"[(1160, 772)]",[],[1],[0.48333333333333334],vertical,"(890.0, 262.0)",1.1333333333333333,0.447,1,4097.086,3,0.0,other
0,399,valid,"[(1160, 773)]",[],[1],[0.85],horizontal,"(890.0, 762.0)",0.5833333333333334,nan,0,4103.325,0,0.0,same
0,400,valid,"[(1126, 785)]",[],[1],[0.85],vertical,"(890.0, 262.0)",0.35,nan,0,4107.751,0,0.0,same
0,401,valid,"[(1068, 794)]",[],[1],[0.5666666666666667],vertical,"(890.0, 762.0)",1.0,0.528,1,4111.774,1,0.0,same
0,402,valid,"[(1160, 773)]",[],[1],[0.7166666666666667],horizontal,"(890.0, 762.0)",0.5166666666666666,0.668,1,4117.435,1,0.0,same
0,403,valid,"[(1160, 787)]",[],[1],[0.6],horizontal,"(890.0, 262.0)",0.55,0.562,1,4122.319,1,0.0,same
0,404,valid,"[(1135, 773)]",[],[1],[0.5166666666666666],horizontal,"(390.0, 762.0)",0.65,0.475,1,4127.618,2,0.0,same
0,405,valid,"[(1165, 774)]",[],[1],[0.48333333333333334],horizontal,"(890.0, 762.0)",1.3,0.444,1,4133.011,2,0.0,same
0,406,catch,"[(1131, 796)]",[],[1],[],horizontal,"(890.0, 762.0)",1.7,nan,1,4138.652,2,0.0,same
0,407,valid,"[(1162, 783)]",[],[1],[0.7166666666666667],horizontal,"(390.0, 762.0)",0.5,0.673,1,4144.333,2,0.0,same
0,408,catch,"[(1170, 768)]",[],[1],[],vertical,"(890.0, 262.0)",1.7,nan,1,4149.78,3,0.0,same
0,409,valid,"[(1164, 773)]",[],[1],[0.5333333333333333],horizontal,"(890.0, 262.0)",0.9666666666666667,0.496,1,4155.755,3,0.0,same
0,410,valid,"[(1160, 773)]",[],[1],[0.6333333333333333],vertical,"(890.0, 762.0)",0.8666666666666667,0.59,1,4161.635,3,0.0,same
0,411,valid,"[(1167, 773)]",[],[1],[0.5666666666666667],vertical,"(390.0, 762.0)",1.45,0.534,1,4167.553,3,0.0,same
0,412,valid,"[(1163, 770)]",[],[1],[0.85],horizontal,"(390.0, 762.0)",0.95,nan,0,4173.375,0,0.0,same
0,413,catch,"[(1121, 787)]",[],[1],[],vertical,"(390.0, 262.0)",1.7,nan,1,4177.803,1,0.0,same
0,414,valid,"[(1160, 784)]",[],[1],[0.5166666666666666],horizontal,"(390.0, 262.0)",0.9833333333333333,0.477,1,4183.359,1,0.0,same
0,415,valid,"[(1158, 783)]",[],[1],[0.75],vertical,"(890.0, 762.0)",0.5333333333333333,0.707,1,4188.703,1,0.0,same
0,416,catch,"[(1136, 831)]",[],[1],[],vertical,"(390.0, 762.0)",1.7,nan,1,4193.336,2,0.0,same
0,417,catch,"[(1158, 792)]",[],[1],[],vertical,"(390.0, 762.0)",1.7,nan,1,4199.013,2,0.0,same
0,418,catch,"[(1151, 774)]",[],[1],[],vertical,"(390.0, 762.0)",1.7,nan,1,4204.953,2,0.0,same
0,419,valid,"[(1144, 793)]",[],[1],[0.85],horizontal,"(390.0, 762.0)",0.4,nan,0,4210.319,0,0.0,same
0,420,valid,"[(1132, 785)]",[],[1],[0.5833333333333334],vertical,"(390.0, 762.0)",1.45,0.537,1,4214.553,1,0.0,same
0,421,invalid_same_bar,"[(1155, 786)]",[],[1],[0.85],horizontal,"(890.0, 762.0)",0.95,nan,0,4219.701,0,0.0,same
0,422,valid,"[(1155, 784)]",[],[1],[0.85],horizontal,"(890.0, 762.0)",0.7833333333333333,nan,0,4224.445,0,0.0,same
0,423,valid,"[(1077, 777)]",[],[1],[0.48333333333333334],vertical,"(390.0, 262.0)",0.6333333333333333,0.445,1,4228.848,1,0.0,same
0,424,valid,"[(1176, 785)]",[],[1],[0.85],vertical,"(390.0, 262.0)",0.6833333333333333,nan,0,4233.636,0,0.0,same
0,425,invalid_same_bar,"[(1084, 772)]",[],[1],[0.5166666666666666],vertical,"(890.0, 262.0)",1.4833333333333334,0.481,1,4238.135,1,0.0,same
0,426,valid,"[(1156, 775)]",[],[1],[0.5166666666666666],horizontal,"(390.0, 262.0)",0.4166666666666667,0.472,1,4244.037,1,0.0,same
0,427,catch,"[(1160, 786)]",[],[1],[],horizontal,"(390.0, 762.0)",1.7,nan,1,4248.627,1,0.0,same
0,428,valid,"[(1158, 771)]",[],[1],[0.6],vertical,"(890.0, 262.0)",1.3333333333333333,0.561,1,4254.053,2,0.0,same
0,429,invalid_same_bar,"[(1160, 779)]",[],[1],[0.5],vertical,"(890.0, 762.0)",0.6166666666666667,0.459,1,4260.037,2,0.0,same
0,430,invalid_same_bar,"[(1160, 785)]",[],[1],[0.5333333333333333],horizontal,"(390.0, 262.0)",0.8166666666666667,0.494,1,4265.351,2,0.0,same
0,431,valid,"[(1155, 787)]",[],[1],[0.65],horizontal,"(390.0, 262.0)",1.0333333333333332,0.604,1,4270.328,2,0.0,same
0,432,valid,"[(1136, 780)]",[],[1],[0.55],horizontal,"(390.0, 762.0)",0.5333333333333333,0.51,1,4275.853,3,0.0,same
0,433,valid,"[(1168, 779)]",[],[1],[0.5],horizontal,"(390.0, 262.0)",0.55,0.457,1,4281.722,3,0.0,same
0,434,catch,"[(1157, 778)]",[],[1],[],vertical,"(390.0, 762.0)",1.7,nan,1,4287.053,3,0.0,same
0,435,valid,"[(1131, 750), (1074, 796)]",[],"[0, 1]",[0.6166666666666667],horizontal,"(890.0, 762.0)",1.2333333333333334,0.573,1,4293.009,3,0.0,same
0,436,valid,"[(1179, 782)]",[],[1],[0.5666666666666667],vertical,"(890.0, 262.0)",1.2333333333333334,0.525,1,4300.475,3,0.0,same
0,437,valid,"[(1159, 773)]",[],[1],[0.55],horizontal,"(390.0, 262.0)",1.5,0.508,1,4306.837,3,0.0,same
0,438,valid,"[(1170, 763)]",[],[1],[0.5333333333333333],vertical,"(390.0, 762.0)",1.5,0.489,1,4312.868,3,0.0,same
0,439,valid,"[(1179, 773)]",[],[1],[0.48333333333333334],vertical,"(890.0, 762.0)",0.7666666666666666,0.442,1,4319.353,3,0.0,same
0,440,valid,"[(1137, 794)]",[],[1],[0.5],horizontal,"(890.0, 262.0)",1.3,0.459,1,4324.879,3,0.0,same
0,441,valid,"[(1165, 773)]",[],[1],[0.5166666666666666],vertical,"(890.0, 262.0)",1.3333333333333333,0.476,1,4330.782,3,0.0,same
0,442,valid,"[(1159, 764)]",[],[1],[0.7666666666666666],horizontal,"(890.0, 762.0)",1.1,0.72,1,4337.17,3,0.0,same
0,443,valid,"[(1134, 781)]",[],[1],[0.5166666666666666],horizontal,"(390.0, 262.0)",1.2333333333333334,0.472,1,4343.069,3,0.0,same
0,444,invalid_same_bar,"[(1160, 774)]",[],[1],[0.5166666666666666],vertical,"(890.0, 262.0)",0.6833333333333333,0.471,1,4349.17,3,0.0,same
0,445,valid,"[(1162, 788)]",[],[1],[0.5166666666666666],vertical,"(890.0, 762.0)",0.7166666666666667,0.472,1,4354.237,3,0.0,same
0,446,catch,"[(1137, 786)]",[],[1],[],horizontal,"(390.0, 762.0)",,"('cti', 1.675),nan",0,4359.985,0,0.02,same
0,447,catch,"[(1073, 812)]",[],[1],[],horizontal,"(890.0, 762.0)",1.7,nan,1,4364.97,1,0.02,same
0,448,valid,"[(1123, 806)]",[],[1],[0.85],horizontal,"(390.0, 762.0)",1.2666666666666666,nan,0,4677.903,0,0.02,same
0,449,invalid_adjacent_other_bar,"[(1131, 778)]",[],[1],[0.5],horizontal,"(890.0, 262.0)",0.5833333333333334,0.457,1,4683.121,1,0.02,other
0,450,catch,"[(1156, 798)]",[],[1],[],vertical,"(390.0, 762.0)",1.7,nan,1,4688.17,1,0.02,same
0,451,catch,"[(1156, 773)]",[],[1],[],vertical,"(890.0, 762.0)",1.7,nan,1,4693.654,1,0.02,same
0,452,valid,"[(1155, 758)]",[],[1],[0.5666666666666667],horizontal,"(390.0, 262.0)",1.45,0.527,1,4698.904,2,0.02,same
0,453,valid,"[(1128, 768)]",[],[1],[0.85],vertical,"(890.0, 262.0)",1.4666666666666666,nan,0,4705.15,0,0.02,same
0,454,catch,"[(1111, 789)]",[],[1],[],vertical,"(890.0, 262.0)",1.7,nan,1,4710.47,1,0.02,same
0,455,invalid_adjacent_other_bar,"[(1131, 775)]",[],[1],[0.55],horizontal,"(890.0, 762.0)",1.4166666666666667,0.511,1,4717.794,1,0.02,other
0,456,valid,"[(1130, 763)]",[],[1],[0.85],vertical,"(390.0, 762.0)",1.4333333333333333,nan,0,4723.356,0,0.02,same
0,457,valid,"[(1116, 787)]",[],[1],[0.5333333333333333],vertical,"(890.0, 262.0)",1.15,0.496,1,4728.842,1,0.02,same
0,458,catch,"[(1141, 781)]",[],[1],[],vertical,"(890.0, 262.0)",1.7,nan,1,4734.173,1,0.02,same
0,459,valid,"[(1133, 774)]",[],[1],[0.55],vertical,"(390.0, 262.0)",1.0333333333333332,0.506,1,4739.731,1,0.02,same
0,460,invalid_adjacent_other_bar,"[(1145, 767)]",[],[1],[0.85],horizontal,"(390.0, 762.0)",0.8,nan,0,4744.941,0,0.02,other
0,461,valid,"[(1085, 765)]",[],[1],[0.6],vertical,"(390.0, 762.0)",1.2333333333333334,0.561,1,4749.472,1,0.02,same
0,462,valid,"[(1162, 771)]",[],[1],[0.48333333333333334],horizontal,"(390.0, 262.0)",0.4166666666666667,0.445,1,4755.227,1,0.02,same
0,463,catch,"[(1159, 767)]",[],[1],[],horizontal,"(890.0, 262.0)",1.7,nan,1,4759.853,1,0.02,same
0,464,valid,"[(1165, 788)]",[],[1],[0.55],vertical,"(890.0, 262.0)",0.95,0.52,1,4764.979,2,0.02,same
0,465,catch,"[(1160, 770)]",[],[1],[],horizontal,"(890.0, 762.0)",1.7,nan,1,4770.555,2,0.02,same
0,466,valid,"[(1165, 781)]",[],[1],[0.5333333333333333],horizontal,"(390.0, 262.0)",0.7,0.492,1,4776.603,2,0.02,same
0,467,valid,"[(1140, 769)]",[],[1],[0.85],horizontal,"(890.0, 762.0)",0.7333333333333333,nan,0,4781.722,0,0.02,same
0,468,valid,"[(1164, 774)]",[],[1],[0.5666666666666667],vertical,"(390.0, 262.0)",0.9333333333333333,0.525,1,4786.337,1,0.02,same
0,469,valid,"[(1163, 791)]",[],[1],[0.5833333333333334],vertical,"(890.0, 262.0)",0.6833333333333333,0.539,1,4791.721,1,0.02,same
0,470,valid,"[(1131, 794)]",[],[1],[0.65],vertical,"(390.0, 762.0)",1.5,0.605,1,4796.482,1,0.02,same
0,471,valid,"[(1170, 781)]",[],[1],[0.65],vertical,"(390.0, 762.0)",1.1166666666666667,0.611,1,4802.153,2,0.02,same
0,472,valid,"[(1160, 787)]",[],[1],[0.6333333333333333],horizontal,"(890.0, 262.0)",0.9666666666666667,0.592,1,4808.207,2,0.02,same
0,473,valid,"[(1156, 800)]",[],[1],[0.6166666666666667],horizontal,"(390.0, 262.0)",1.0666666666666667,0.577,1,4813.914,2,0.02,same
0,474,valid,"[(1179, 787)]",[],[1],[0.5],vertical,"(890.0, 262.0)",1.1666666666666667,0.463,1,4819.721,2,0.02,same
0,475,valid,"[(1146, 812)]",[],[1],[0.85],horizontal,"(890.0, 762.0)",1.2833333333333332,nan,0,4825.606,0,0.02,same
0,476,catch,"[(1142, 789)]",[],[1],[],vertical,"(390.0, 762.0)",1.7,nan,1,4830.76,1,0.02,same
0,477,invalid_same_bar,"[(1175, 791)]",[],[1],[0.5],vertical,"(390.0, 262.0)",0.8833333333333333,0.46,1,4835.855,1,0.02,same
0,478,catch,"[(1165, 779)]",[],[1],[],horizontal,"(390.0, 762.0)",1.7,nan,1,4840.764,1,0.02,same
0,479,valid,"[(1168, 772)]",[],[1],[0.5166666666666666],vertical,"(390.0, 762.0)",1.1333333333333333,0.474,1,4846.049,2,0.02,same
0,480,valid,"[(1141, 765)]",[],[1],[0.4666666666666667],vertical,"(390.0, 262.0)",1.2666666666666666,0.429,1,4851.521,2,0.02,same
0,481,catch,"[(1155, 759)]",[],[1],[],vertical,"(890.0, 762.0)",1.7,nan,1,4857.017,2,0.02,same
0,482,catch,"[(1142, 780)]",[],[1],[],vertical,"(390.0, 762.0)",1.7,nan,1,4862.364,2,0.02,same
0,483,catch,"[(1156, 770)]",[],[1],[],horizontal,"(390.0, 762.0)",,"('cti', 1.612),nan",0,4868.071,0,0.04,same
0,484,valid,"[(1127, 778)]",[],[1],[0.5],vertical,"(390.0, 262.0)",0.4666666666666667,0.458,1,4872.554,1,0.04,same
0,485,valid,"[(1169, 778)]",[],[1],[0.55],vertical,"(390.0, 762.0)",0.9833333333333333,0.51,1,4876.806,1,0.04,same
0,486,valid,"[(1164, 794)]",[],[1],[0.6333333333333333],horizontal,"(890.0, 262.0)",1.3,0.59,1,4881.97,1,0.04,same
0,487,catch,"[(1160, 771)]",[],[1],[],vertical,"(890.0, 262.0)",1.7,nan,1,4887.284,2,0.04,same
0,488,valid,"[(1131, 808)]",[],[1],[0.4666666666666667],vertical,"(890.0, 262.0)",1.05,0.429,1,4892.504,2,0.04,same
0,489,valid,"[(1155, 794)]",[],[1],[0.5],vertical,"(890.0, 762.0)",1.0,0.459,1,4898.096,2,0.04,same
0,490,catch,"[(1128, 769)]",[],[1],[],vertical,"(390.0, 262.0)",1.7,nan,1,4903.271,2,0.04,same
0,491,catch,"[(1152, 783)]",[],[1],[],vertical,"(390.0, 762.0)",1.7,nan,1,4909.235,3,0.04,same
0,492,invalid_same_bar,"[(1164, 768)]",[],[1],[0.5],horizontal,"(890.0, 262.0)",0.5833333333333334,0.464,1,4915.593,3,0.04,same
0,493,valid,"[(1168, 778)]",[],[1],[0.5833333333333334],horizontal,"(390.0, 262.0)",0.9833333333333333,0.542,1,4921.067,3,0.04,same
0,494,valid,"[(1165, 765)]",[],[1],[0.55],horizontal,"(390.0, 262.0)",0.9166666666666666,0.509,1,4926.588,3,0.04,same
0,495,valid,"[(1166, 769)]",[],[1],[0.5666666666666667],vertical,"(890.0, 762.0)",1.1833333333333333,0.526,1,4932.446,3,0.04,same
0,496,valid,"[(1168, 778)]",[],[1],[0.4666666666666667],vertical,"(890.0, 262.0)",1.0666666666666667,0.429,1,4938.319,3,0.02,same
0,497,valid,"[(1170, 774)]",[],[1],[0.5833333333333334],vertical,"(390.0, 262.0)",1.1333333333333333,0.546,1,4944.122,3,0.02,same
0,498,valid,"[(1170, 774)]",[],[1],[0.5166666666666666],vertical,"(390.0, 762.0)",0.9166666666666666,0.477,1,4950.303,3,0.02,same
0,499,valid,"[(1153, 771)]",[],[1],[0.7],vertical,"(390.0, 262.0)",1.5166666666666666,0.654,1,4956.338,3,0.02,same
0,500,invalid_adjacent_other_bar,"[(1160, 784)]",[],[1],[0.6166666666666667],vertical,"(390.0, 762.0)",1.4333333333333333,0.573,1,4962.985,3,0.02,other
0,501,catch,"[(1164, 779)]",[],[1],[],horizontal,"(890.0, 762.0)",1.7,nan,1,4969.194,3,0.02,same
0,502,valid,"[(1155, 784)]",[],[1],[0.5833333333333334],vertical,"(390.0, 262.0)",1.2166666666666666,0.543,1,4975.115,3,0.02,same
0,503,invalid_same_bar,"[(1158, 766)]",[],[1],[0.4666666666666667],vertical,"(890.0, 262.0)",1.2333333333333334,0.428,1,4980.822,3,0.02,same
0,504,valid,"[(1160, 761)]",[],[1],[0.48333333333333334],vertical,"(890.0, 762.0)",0.65,0.443,1,4986.622,3,0.02,same
0,505,valid,"[(1131, 764)]",[],[1],[0.5],vertical,"(390.0, 762.0)",0.9833333333333333,0.456,1,4992.288,3,0.02,same
0,506,valid,"[(1141, 774)]",[],[1],[0.5],horizontal,"(890.0, 762.0)",1.4833333333333334,0.46,1,4998.138,3,0.02,same
0,507,valid,"[(1160, 779)]",[],[1],[0.5166666666666666],horizontal,"(890.0, 762.0)",0.4166666666666667,0.474,1,5004.555,3,0.02,same
0,508,valid,"[(1162, 755)]",[],[1],[0.5],vertical,"(890.0, 262.0)",0.6666666666666666,0.456,1,5009.622,3,0.02,same
0,509,invalid_adjacent_other_bar,"[(1157, 779)]",[],[1],[0.5166666666666666],vertical,"(390.0, 762.0)",1.15,0.472,1,5015.237,3,0.02,other
0,510,invalid_same_bar,"[(1150, 792)]",[],[1],[0.5166666666666666],vertical,"(890.0, 762.0)",0.7,0.478,1,5021.138,3,0.02,same
0,511,valid,"[(1154, 789)]",[],[1],[0.55],vertical,"(890.0, 762.0)",1.2166666666666666,0.505,1,5026.479,3,0.02,same
0,512,invalid_adjacent_other_bar,"[(1156, 773)]",[],[1],[0.5333333333333333],vertical,"(390.0, 762.0)",0.9166666666666666,0.495,1,5032.594,3,0.02,other
0,513,valid,"[(1136, 784)]",[],[1],[0.6333333333333333],horizontal,"(890.0, 762.0)",0.5,0.59,1,5038.553,3,0.02,same
0,514,catch,"[(1136, 778)]",[],[1],[],horizontal,"(890.0, 262.0)",1.7,nan,1,5044.372,3,0.02,same
0,515,valid,"[(1160, 767)]",[],[1],[0.5],horizontal,"(390.0, 262.0)",0.9166666666666666,0.462,1,5050.167,3,0.02,same
0,516,valid,"[(1161, 787)]",[],[1],[0.4666666666666667],horizontal,"(390.0, 262.0)",0.85,0.428,1,5055.936,3,0.02,same
0,517,valid,"[(1148, 768)]",[],[1],[0.5833333333333334],vertical,"(390.0, 262.0)",0.4166666666666667,0.544,1,5061.527,3,0.02,same
0,518,valid,"[(1162, 767)]",[],[1],[0.85],horizontal,"(890.0, 262.0)",1.3333333333333333,nan,0,5066.873,0,0.02,same
0,519,valid,"[(1086, 811)]",[],[1],[0.6666666666666666],vertical,"(890.0, 262.0)",0.9666666666666667,0.628,1,5071.699,1,0.02,same
0,520,catch,"[(1136, 787)]",[],[1],[],vertical,"(890.0, 262.0)",1.7,nan,1,5077.239,1,0.02,same
0,521,valid,"[(1157, 772)]",[],[1],[0.5333333333333333],horizontal,"(890.0, 262.0)",1.5333333333333332,0.49,1,5082.769,1,0.02,same
0,522,catch,"[(1147, 778)]",[],[1],[],vertical,"(390.0, 262.0)",1.7,nan,1,5088.229,2,0.02,same
0,523,valid,"[(1150, 768)]",[],[1],[0.5666666666666667],horizontal,"(390.0, 262.0)",1.4666666666666666,0.535,1,5093.837,2,0.02,same
0,524,valid,"[(1155, 773)]",[],[1],[0.6],horizontal,"(890.0, 262.0)",0.4666666666666667,0.563,1,5099.655,2,0.02,same
0,525,valid,"[(1134, 761)]",[],[1],[0.5],horizontal,"(890.0, 762.0)",1.0166666666666666,0.457,1,5104.946,2,0.02,same
0,526,valid,"[(1151, 775)]",[],[1],[0.85],horizontal,"(390.0, 262.0)",1.0,nan,0,5109.872,0,0.02,same
0,527,valid,"[(1141, 769)]",[],[1],[0.5166666666666666],vertical,"(890.0, 262.0)",0.75,0.481,1,5114.91,1,0.02,same
0,528,valid,"[(1159, 765)]",[],[1],[0.6333333333333333],vertical,"(390.0, 262.0)",0.8,0.6,1,5119.504,1,0.02,same
0,529,valid,"[(1157, 753), (1092, 803)]",[],"[0, 1]",[0.6333333333333333],vertical,"(890.0, 262.0)",0.9,0.602,1,5124.664,1,0.02,same
0,530,catch,"[(1160, 771)]",[],[1],[],horizontal,"(890.0, 762.0)",1.7,nan,1,5131.716,2,0.02,same
0,531,valid,"[(1134, 778)]",[],[1],[0.55],horizontal,"(390.0, 762.0)",1.05,0.519,1,5137.277,2,0.02,same
0,532,valid,"[(1146, 792)]",[],[1],[0.55],horizontal,"(390.0, 262.0)",1.4,0.508,1,5142.597,2,0.02,same
0,533,catch,"[(1162, 782)]",[],[1],[],vertical,"(890.0, 762.0)",1.7,nan,1,5148.172,2,0.0,same
0,534,catch,"[(1160, 791)]",[],[1],[],vertical,"(890.0, 762.0)",1.7,nan,1,5154.028,3,0.0,same
0,535,valid,"[(1134, 782)]",[],[1],[0.5166666666666666],vertical,"(890.0, 762.0)",0.9166666666666666,0.48,1,5159.849,3,0.0,same
0,536,invalid_adjacent_other_bar,"[(1155, 765)]",[],[1],[0.85],horizontal,"(890.0, 762.0)",0.7833333333333333,nan,0,5165.871,0,0.0,other
0,537,valid,"[(1136, 767)]",[],[1],[0.48333333333333334],vertical,"(890.0, 262.0)",0.7666666666666666,0.453,1,5170.456,1,0.0,same
0,538,invalid_adjacent_other_bar,"[(1124, 773)]",[],[1],[0.5166666666666666],vertical,"(890.0, 262.0)",1.25,0.483,1,5174.871,1,0.0,other
0,539,valid,"[(1149, 774)]",[],[1],[0.55],vertical,"(890.0, 262.0)",1.15,0.519,1,5179.821,1,0.0,same
0,540,valid,"[(1151, 782)]",[],[1],[0.85],vertical,"(890.0, 762.0)",0.35,nan,0,5185.255,0,0.0,same
0,541,valid,"[(1155, 780)]",[],[1],[0.5666666666666667],vertical,"(890.0, 762.0)",1.35,0.529,1,5189.938,1,0.0,same
0,542,valid,"[(1148, 778)]",[],[1],[0.85],horizontal,"(390.0, 762.0)",0.95,nan,0,5195.72,0,0.0,same
0,543,valid,"[(1093, 779)]",[],[1],[0.48333333333333334],vertical,"(890.0, 262.0)",0.7333333333333333,0.449,1,5200.421,1,0.0,same
0,544,catch,"[(1155, 774)]",[],[1],[],vertical,"(390.0, 762.0)",1.7,nan,1,5205.388,1,0.0,same
0,545,invalid_same_bar,"[(1134, 803)]",[],[1],[0.5],vertical,"(390.0, 762.0)",0.85,0.461,1,5211.006,1,0.0,same
0,546,valid,"[(1162, 770)]",[],[1],[0.48333333333333334],vertical,"(390.0, 762.0)",1.0,0.444,1,5216.098,2,0.0,same
0,547,invalid_same_bar,"[(1159, 766)]",[],[1],[0.6666666666666666],vertical,"(890.0, 262.0)",1.4,0.629,1,5221.818,2,0.0,same
0,548,catch,"[(1131, 772)]",[],[1],[],horizontal,"(390.0, 762.0)",1.7,nan,1,5227.692,2,0.0,same
0,549,valid,"[(1157, 754)]",[],[1],[0.7],vertical,"(890.0, 762.0)",0.7833333333333333,0.658,1,5233.477,2,0.0,same
0,550,catch,"[(1134, 771)]",[],[1],[],vertical,"(890.0, 262.0)",1.7,nan,1,5238.923,3,0.0,same
0,551,valid,"[(1158, 769)]",[],[1],[0.55],vertical,"(890.0, 762.0)",0.3833333333333333,0.51,1,5244.939,3,0.0,same
0,552,valid,"[(1155, 768)]",[],[1],[0.48333333333333334],horizontal,"(890.0, 262.0)",1.0666666666666667,0.444,1,5250.422,3,0.0,same
0,553,invalid_adjacent_other_bar,"[(1161, 784)]",[],[1],[0.85],horizontal,"(890.0, 762.0)",0.7833333333333333,nan,0,5256.422,0,0.0,other
0,554,valid,"[(1117, 774)]",[],[1],[0.55],vertical,"(390.0, 262.0)",1.2666666666666666,0.507,1,5261.206,1,0.0,same
0,555,catch,"[(1136, 773)]",[],[1],[],horizontal,"(890.0, 762.0)",1.7,nan,1,5266.334,1,0.0,same
0,556,valid,"[(1131, 787)]",[],[1],[0.5166666666666666],horizontal,"(390.0, 762.0)",1.0,0.477,1,5271.639,1,0.0,same
0,557,valid,"[(1148, 783)]",[],[1],[0.5666666666666667],horizontal,"(390.0, 762.0)",1.2333333333333334,0.528,1,5277.255,2,0.0,same
0,558,valid,"[(1141, 761)]",[],[1],[0.5333333333333333],vertical,"(390.0, 262.0)",1.5333333333333332,0.493,1,5283.406,2,0.0,same
0,559,valid,"[(1131, 774)]",[],[1],[0.48333333333333334],horizontal,"(890.0, 762.0)",1.4833333333333334,0.44,1,5289.073,2,0.0,same
0,560,invalid_adjacent_other_bar,"[(1136, 806)]",[],[1],[0.5833333333333334],horizontal,"(390.0, 262.0)",0.4166666666666667,0.542,1,5294.956,2,0.0,other
0,561,valid,"[(1132, 779)]",[],[1],[0.6166666666666667],horizontal,"(390.0, 762.0)",0.4166666666666667,0.574,1,5300.186,3,0.0,same
0,562,catch,"[(1161, 768)]",[],[1],[],vertical,"(890.0, 262.0)",1.7,nan,1,5305.706,3,0.0,same
0,563,catch,"[(1135, 774)]",[],[1],[],horizontal,"(390.0, 762.0)",1.7,nan,1,5312.089,3,0.0,same
0,564,valid,"[(1156, 764)]",[],[1],[0.5],horizontal,"(390.0, 262.0)",1.35,0.465,1,5317.798,3,0.0,same
0,565,invalid_same_bar,"[(1157, 776)]",[],[1],[0.5833333333333334],vertical,"(890.0, 762.0)",1.1166666666666667,0.55,1,5324.134,3,0.0,same
0,566,valid,"[(1134, 783)]",[],[1],[0.5833333333333334],vertical,"(390.0, 262.0)",1.4833333333333334,0.542,1,5329.8,3,0.0,same
0,567,catch,"[(1086, 812)]",[],[1],[],horizontal,"(390.0, 262.0)",1.7,nan,1,5335.851,3,0.0,same
0,568,valid,"[(1141, 756)]",[],[1],[0.4666666666666667],vertical,"(890.0, 262.0)",1.3,0.427,1,5342.231,3,0.0,same
0,569,catch,"[(1126, 811)]",[],[1],[],horizontal,"(390.0, 262.0)",1.7,nan,1,5348.285,3,0.0,same
0,570,valid,"[(1134, 806)]",[],[1],[0.6],vertical,"(890.0, 262.0)",0.75,0.567,1,5354.375,3,0.0,same
0,571,valid,"[(1101, 803)]",[],[1],[0.45],vertical,"(390.0, 762.0)",1.1833333333333333,0.419,1,5360.202,3,0.0,same
0,572,valid,"[(1170, 803)]",[],[1],[0.45],vertical,"(890.0, 262.0)",1.3833333333333333,0.417,1,5433.006,3,0.0,same
0,573,valid,"[(1137, 798)]",[],[1],[0.6166666666666667],vertical,"(390.0, 762.0)",0.6833333333333333,0.588,1,5439.506,3,0.0,same
0,574,valid,"[(1161, 781)]",[],[1],[0.6166666666666667],vertical,"(390.0, 762.0)",0.5,0.579,1,5445.404,3,0.0,same
0,575,valid,"[(1160, 788)]",[],[1],[0.5833333333333334],vertical,"(390.0, 262.0)",1.3333333333333333,0.539,1,5450.814,3,0.0,same
0,576,catch,"[(1146, 791)]",[],[1],[],vertical,"(890.0, 762.0)",1.7,nan,1,5457.173,3,0.0,same
0,577,valid,"[(1134, 782)]",[],[1],[0.85],vertical,"(390.0, 762.0)",0.85,nan,0,5463.389,0,0.0,same
0,578,valid,"[(1121, 787)]",[],[1],[0.65],horizontal,"(390.0, 262.0)",0.7666666666666666,0.605,1,5468.456,1,0.0,same
0,579,valid,"[(1131, 794)]",[],[1],[0.85],vertical,"(390.0, 762.0)",1.3833333333333333,nan,0,5473.59,0,0.0,same
0,580,valid,"[(1128, 792)]",[],[1],[0.5333333333333333],horizontal,"(890.0, 762.0)",0.5833333333333334,0.492,1,5478.605,1,0.0,same
0,581,valid,"[(1130, 783)]",[],[1],[0.5166666666666666],horizontal,"(890.0, 762.0)",1.0,0.476,1,5483.344,1,0.0,same
0,582,valid,"[(1170, 792)]",[],[1],[0.48333333333333334],horizontal,"(890.0, 262.0)",0.7,0.441,1,5488.572,1,0.0,same
0,583,valid,"[(1112, 822)]",[],[1],[0.85],horizontal,"(390.0, 762.0)",1.35,nan,0,5493.1,0,0.0,same
0,584,catch,"[(1113, 797)]",[],[1],[],vertical,"(890.0, 762.0)",1.7,nan,1,5498.223,1,0.0,same
0,585,valid,"[(1111, 812)]",[],[1],[0.5166666666666666],vertical,"(390.0, 262.0)",1.05,0.477,1,5503.389,1,0.0,same
0,586,valid,"[(1130, 805)]",[],[1],[0.5],horizontal,"(390.0, 762.0)",1.4833333333333334,0.46,1,5508.271,1,0.0,same
0,587,valid,"[(1128, 825)]",[],[1],[0.5166666666666666],horizontal,"(890.0, 262.0)",1.4833333333333334,0.473,1,5513.973,2,0.0,same
0,588,valid,"[(1157, 782)]",[],[1],[0.85],vertical,"(890.0, 262.0)",0.85,nan,0,5520.08,0,0.0,same
0,589,valid,"[(1131, 776)]",[],[1],[0.65],vertical,"(390.0, 762.0)",1.3333333333333333,0.612,1,5524.602,1,0.0,same
0,590,valid,"[(1160, 769)]",[],[1],[0.55],horizontal,"(890.0, 762.0)",1.15,0.508,1,5530.005,1,0.0,same
0,591,valid,"[(1132, 785)]",[],[1],[0.5833333333333334],vertical,"(890.0, 262.0)",0.55,0.54,1,5535.457,1,0.0,same
0,592,valid,"[(1131, 807)]",[],[1],[0.85],horizontal,"(390.0, 762.0)",0.3833333333333333,nan,0,5540.373,0,0.0,same
0,593,catch,"[(1111, 778)]",[],[1],[],vertical,"(890.0, 762.0)",1.7,nan,1,5544.989,1,0.0,same
0,594,valid,"[(1160, 789)]",[],[1],[0.85],horizontal,"(890.0, 762.0)",0.5333333333333333,nan,0,5550.266,0,0.0,same
0,595,valid,"[(1131, 790)]",[],[1],[],horizontal,"(390.0, 262.0)",,"('cti', 0.76)",0,5554.337,0,0.0,same
0,596,valid,"[(1081, 789)]",[],[1],[0.5833333333333334],horizontal,"(890.0, 262.0)",0.36666666666666664,0.539,1,5557.755,1,0.0,same
0,597,catch,"[(1126, 792)]",[],[1],[],horizontal,"(890.0, 262.0)",1.7,nan,1,5570.916,1,0.0,same
0,598,catch,"[(1132, 809)]",[],[1],[],horizontal,"(390.0, 262.0)",1.7,nan,1,5576.423,1,0.0,same
0,599,valid,"[(1091, 833)]",[],[1],[0.85],horizontal,"(390.0, 762.0)",0.8666666666666667,nan,0,5581.595,0,0.0,same
0,600,valid,"[(1111, 782)]",[],[1],[0.85],vertical,"(390.0, 262.0)",0.4166666666666667,nan,0,5586.607,0,0.0,same
0,601,valid,"[(1067, 851)]",[],[1],[0.85],vertical,"(390.0, 262.0)",0.48333333333333334,nan,0,5590.556,0,0.0,same
0,602,valid,"[(1088, 807)]",[],[1],[0.5166666666666666],horizontal,"(890.0, 262.0)",1.4666666666666666,0.474,1,5601.416,1,0.0,same
0,603,invalid_same_bar,"[(1158, 800)]",[],[1],[0.5833333333333334],vertical,"(890.0, 762.0)",0.75,0.544,1,5607.094,1,0.0,same
0,604,valid,"[(1136, 802)]",[],[1],[0.5],vertical,"(890.0, 762.0)",1.0833333333333333,0.46,1,5612.036,1,0.0,same
0,605,valid,"[(1128, 829)]",[],[1],[0.85],vertical,"(390.0, 262.0)",1.3666666666666667,nan,0,5617.242,0,0.0,same
0,606,catch,"[(1141, 792)]",[],[1],[],vertical,"(390.0, 262.0)",1.7,nan,1,5622.774,1,0.0,same
0,607,invalid_same_bar,"[(1136, 815)]",[],[1],[0.85],vertical,"(890.0, 762.0)",1.15,nan,0,5627.54,0,0.0,same
0,608,catch,"[(1131, 778)]",[],[1],[],vertical,"(890.0, 762.0)",1.7,nan,1,5632.496,1,0.0,same
0,609,valid,"[(1160, 787)]",[],[1],[0.5166666666666666],vertical,"(390.0, 262.0)",0.6666666666666666,0.471,1,5637.973,1,0.0,same
0,610,valid,"[(1154, 773)]",[],[1],[0.5333333333333333],horizontal,"(390.0, 262.0)",1.4333333333333333,0.488,1,5642.54,1,0.0,same
0,611,valid,"[(1157, 787)]",[],[1],[0.85],horizontal,"(390.0, 762.0)",0.6,nan,0,5648.071,0,0.0,same
0,612,valid,"[(1088, 802)]",[],[1],[0.5166666666666666],vertical,"(390.0, 762.0)",1.0,0.478,1,5652.406,1,0.0,same
0,613,valid,"[(1135, 775)]",[],[1],[0.5],vertical,"(390.0, 762.0)",1.0,0.459,1,5658.059,1,0.0,same
0,614,invalid_same_bar,"[(1159, 803)]",[],[1],[0.85],vertical,"(890.0, 762.0)",0.7166666666666667,nan,0,5663.09,0,0.0,same
0,615,invalid_same_bar,"[(1127, 793)]",[],[1],[0.55],vertical,"(390.0, 262.0)",1.3666666666666667,0.512,1,5667.507,1,0.0,same
0,616,valid,"[(1160, 802)]",[],[1],[0.5166666666666666],horizontal,"(890.0, 262.0)",0.8333333333333334,0.477,1,5673.091,1,0.0,same
0,617,catch,"[(1091, 808)]",[],[1],[],vertical,"(890.0, 762.0)",1.7,nan,1,5678.073,1,0.0,same
0,618,valid,"[(1155, 809)]",[],[1],[0.85],horizontal,"(890.0, 262.0)",0.4166666666666667,nan,0,6429.993,0,0.0,same
0,619,valid,"[(1111, 750), (1087, 800)]",[],"[0, 1]",[0.5666666666666667],vertical,"(890.0, 762.0)",0.5333333333333333,0.53,1,6434.442,1,0.0,same
0,620,valid,"[(1156, 769)]",[],[1],[0.5],horizontal,"(390.0, 262.0)",1.3333333333333333,0.467,1,6441.244,1,0.0,same
0,621,valid,"[(1155, 768)]",[],[1],[0.85],vertical,"(390.0, 762.0)",0.55,nan,0,6446.593,0,0.0,same
0,622,invalid_adjacent_other_bar,"[(1134, 776)]",[],[1],[0.85],horizontal,"(390.0, 762.0)",0.9333333333333333,nan,0,6451.307,0,0.0,other
0,623,catch,"[(1112, 766)]",[],[1],[],vertical,"(390.0, 262.0)",1.7,nan,1,6456.307,1,0.0,same
0,624,valid,"[(1155, 791)]",[],[1],[0.35],horizontal,"(390.0, 262.0)",1.45,0.31,1,6461.575,1,0.0,same
0,625,invalid_adjacent_other_bar,"[(1160, 768)]",[],[1],[0.5666666666666667],horizontal,"(390.0, 262.0)",1.0,0.526,1,6466.761,1,0.0,other
0,626,valid,"[(1166, 779)]",[],[1],[0.85],vertical,"(390.0, 762.0)",1.0833333333333333,nan,0,6472.272,0,0.0,same
0,627,valid,"[(1123, 792)]",[],[1],[0.6166666666666667],horizontal,"(890.0, 762.0)",1.1333333333333333,0.579,1,6477.308,1,0.0,same
0,628,valid,"[(1121, 778)]",[],[1],[0.65],horizontal,"(890.0, 262.0)",1.45,0.617,1,6494.26,1,0.0,same
0,629,catch,"[(1158, 774)]",[],[1],[],vertical,"(890.0, 762.0)",1.7,nan,1,6499.992,1,0.0,same
0,630,valid,"[(1141, 782)]",[],[1],[0.5833333333333334],horizontal,"(890.0, 262.0)",1.2,0.545,1,6505.308,2,0.0,same
0,631,invalid_same_bar,"[(1159, 762)]",[],[1],[0.6],vertical,"(890.0, 762.0)",1.15,0.559,1,6510.919,2,0.0,same
0,632,valid,"[(1159, 773)]",[],[1],[0.85],horizontal,"(390.0, 762.0)",1.0,nan,0,6516.392,0,0.0,same
0,633,valid,"[(1168, 779)]",[],[1],[0.5],horizontal,"(890.0, 262.0)",1.5333333333333332,0.461,1,6521.609,1,0.0,same
0,634,valid,"[(1129, 788)]",[],[1],[0.48333333333333334],vertical,"(890.0, 262.0)",0.9833333333333333,0.445,1,6526.826,1,0.0,same
0,635,catch,"[(1084, 846)]",[],[1],[],horizontal,"(390.0, 762.0)",1.7,nan,1,6531.842,1,0.0,same
0,636,valid,"[(1175, 785)]",[],[1],[0.6],horizontal,"(890.0, 262.0)",1.0,0.56,1,6537.01,2,0.0,same
0,637,invalid_adjacent_other_bar,"[(1161, 821)]",[],[1],[],vertical,"(390.0, 262.0)",,"('cti', 1.217)",0,6542.314,0,0.0,other
