block,trial,trial_type,taps_start_loc_during_fix,taps_end_loc_during_fix,taps_on_lever_during_fix,taps_on_lever_s_during_fix,bar_orientation,target_xy,cti,rt,acc,time,pulses
0,1,target,"[(298, 910), (427, 915), (449, 944), (406, 831), (404, 940), (912, 915), (525, 799), (453, 920), (946, 885), (636, 930), (1032, 860)]",[],"[0, 0, 0, 0, 0, 0, 0, 0, 0, 0, 1]",[0.3833333333333333],vertical,"(390.0, 762.0)",1.6166666666666667,0.352,1,0.523,1
0,2,target,"[(1146, 800)]",[],[1],[],vertical,"(390.0, 262.0)",,"('fix', 0.119)",0,280.281,0
0,3,target,"[(1135, 812)]",[],[1],[0.4],horizontal,"(890.0, 262.0)",0.75,0.367,1,291.849,1
0,4,target,"[(565, 697), (675, 930), (158, 801), (815, 722), (922, 719), (675, 469), (555, 965), (521, 965), (1039, 809)]",[],"[0, 0, 0, 0, 0, 0, 0, 0, 1]",[0.85],vertical,"(890.0, 762.0)",1.1333333333333333,nan,0,318.549,0
0,5,target,"[(1047, 809)]",[],[1],[0.85],vertical,"(390.0, 762.0)",1.3,nan,0,577.457,0
0,6,target,"[(1081, 820)]",[],[1],[0.55],horizontal,"(390.0, 762.0)",1.05,0.51,1,591.872,1
0,7,target,"[(1088, 791)]",[],[1],[0.8333333333333334],vertical,"(390.0, 762.0)",1.6333333333333333,0.784,1,610.877,1
0,8,target,"[(1105, 793)]",[],[1],[0.6666666666666666],vertical,"(890.0, 762.0)",0.8333333333333334,0.62,1,616.816,1
0,9,target,"[(1088, 790)]",[],[1],[0.5333333333333333],vertical,"(890.0, 262.0)",0.6833333333333333,0.491,1,621.712,2
0,10,target,"[(1120, 774)]",[],[1],[0.35],horizontal,"(890.0, 262.0)",1.2166666666666666,0.313,1,626.834,2
0,11,target,"[(1119, 765)]",[],[1],[0.85],horizontal,"(390.0, 762.0)",0.5,nan,0,631.9,0
0,12,target,"[(1086, 783)]",[],[1],[0.85],horizontal,"(890.0, 762.0)",0.65,nan,0,636.216,0
0,13,target,"[(1095, 774)]",[],[1],[0.3833333333333333],vertical,"(890.0, 262.0)",1.2666666666666666,0.344,1,640.433,1
0,14,target,"[(1086, 759)]",[],[1],[0.31666666666666665],horizontal,"(390.0, 762.0)",1.2666666666666666,0.282,1,645.458,1
0,15,target,"[(1109, 783)]",[],[1],[0.5333333333333333],vertical,"(390.0, 762.0)",1.1,0.492,1,650.168,1
0,16,target,"[(1112, 777)]",[],[1],[0.6333333333333333],vertical,"(890.0, 262.0)",0.9833333333333333,0.585,1,655.384,2
0,17,catch,"[(1108, 764)]",[],[1],[],vertical,"(890.0, 762.0)",,"('cti', 1.525),nan",0,660.629,0
0,18,target,"[(1110, 762)]",[],[1],[],vertical,"(390.0, 762.0)",,"('cti', 1.533)",0,665.217,0
0,19,target,"[(1110, 750), (1092, 808)]",[],"[0, 1]",[0.3833333333333333],horizontal,"(890.0, 762.0)",1.35,0.345,1,669.818,1
0,20,target,"[(1091, 777)]",[],[1],[0.5],horizontal,"(390.0, 262.0)",1.3,0.459,1,676.146,1
0,21,catch,"[(1108, 808)]",[],[1],[],vertical,"(890.0, 262.0)",,"('cti', 1.363),nan",0,681.085,0
0,22,catch,"[(1105, 765)]",[],[1],[],horizontal,"(390.0, 262.0)",1.6,nan,1,685.788,1
0,23,target,"[(1115, 792)]",[],[1],[0.5],vertical,"(890.0, 762.0)",1.1833333333333333,0.459,1,690.882,1
0,24,target,"[(1121, 770)]",[],[1],[0.5333333333333333],vertical,"(890.0, 262.0)",0.75,0.494,1,695.534,1
0,25,target,"[(1112, 786)]",[],[1],[0.4666666666666667],vertical,"(890.0, 262.0)",1.1166666666666667,0.422,1,700.072,2
0,26,target,"[(1107, 791)]",[],[1],[0.48333333333333334],vertical,"(890.0, 262.0)",1.0166666666666666,0.443,1,705.14,2
0,27,catch,"[(1108, 765)]",[],[1],[],vertical,"(890.0, 762.0)",,"('cti', 1.504),nan",0,710.451,0
0,28,target,"[(1107, 797)]",[],[1],[0.5666666666666667],vertical,"(890.0, 762.0)",0.8,0.523,1,715.061,1
0,29,target,"[(1109, 772)]",[],[1],[0.6333333333333333],vertical,"(890.0, 762.0)",0.9833333333333333,0.583,1,719.816,1
0,30,target,"[(1108, 766)]",[],[1],[0.55],vertical,"(390.0, 262.0)",1.1666666666666667,0.506,1,724.567,1
0,31,target,"[(1110, 789)]",[],[1],[],vertical,"(890.0, 262.0)",,"('cti', 1.276)",0,729.586,0
0,32,target,"[(1083, 793)]",[],[1],[0.6166666666666667],vertical,"(390.0, 262.0)",0.6166666666666667,0.569,1,734.318,1
0,33,target,"[(1109, 765)]",[],[1],[0.3],vertical,"(390.0, 262.0)",0.9,0.268,1,738.785,1
0,34,target,"[(1110, 776)]",[],[1],[0.3],vertical,"(390.0, 762.0)",1.3333333333333333,0.262,1,743.502,1
0,35,target,"[(1111, 780)]",[],[1],[0.3833333333333333],vertical,"(390.0, 262.0)",1.2333333333333334,0.342,1,748.706,2
0,36,catch,"[(1109, 764)]",[],[1],[],horizontal,"(890.0, 262.0)",1.6,nan,1,754.099,2
0,37,target,"[(1112, 764)]",[],[1],[0.5166666666666666],vertical,"(890.0, 762.0)",0.95,0.47,1,759.02,2
0,38,catch,"[(1116, 756)]",[],[1],[],vertical,"(390.0, 262.0)",,"('cti', 1.038),nan",0,764.252,0
0,39,target,"[(1081, 780)]",[],[1],[],horizontal,"(390.0, 762.0)",,"('cti', 1.346)",0,768.111,0
0,40,target,"[(1085, 754)]",[],[1],[0.4666666666666667],vertical,"(890.0, 262.0)",0.8833333333333333,0.42,1,772.868,1
0,41,target,"[(1110, 776)]",[],[1],[0.35],vertical,"(390.0, 762.0)",1.1833333333333333,0.311,1,777.714,1
0,42,target,"[(1108, 796)]",[],[1],[0.48333333333333334],horizontal,"(890.0, 262.0)",1.2166666666666666,0.443,1,783.068,1
0,43,target,"[(1110, 786)]",[],[1],[0.7],vertical,"(890.0, 262.0)",0.7333333333333333,0.656,1,787.734,2
0,44,target,"[(1107, 761)]",[],[1],[0.85],horizontal,"(390.0, 762.0)",0.6166666666666667,nan,0,793.224,0
0,45,target,"[(1098, 764)]",[],[1],[0.65],horizontal,"(890.0, 262.0)",0.7666666666666666,0.608,1,797.467,1
0,46,target,"[(1124, 757)]",[],[1],[0.15],horizontal,"(890.0, 762.0)",1.4333333333333333,0.117,0,802.435,0
0,47,target,"[(1076, 752), (1076, 755)]",[],"[0, 1]",[],vertical,"(390.0, 762.0)",,"('cti', 1.516)",0,807.185,0
0,48,target,"[(1110, 756)]",[],[1],[0.55],vertical,"(890.0, 762.0)",0.7333333333333333,0.511,1,813.655,1
0,49,target,"[(1123, 766)]",[],[1],[0.26666666666666666],vertical,"(390.0, 262.0)",1.4833333333333334,0.234,1,818.321,1
0,50,target,"[(1110, 780)]",[],[1],[0.5333333333333333],horizontal,"(890.0, 262.0)",0.7333333333333333,0.488,1,823.605,1
0,51,target,"[(1108, 771)]",[],[1],[0.6],vertical,"(390.0, 262.0)",0.5833333333333334,0.552,1,828.318,2
0,52,target,"[(1111, 752), (1081, 799)]",[],"[0, 1]",[0.3333333333333333],vertical,"(890.0, 262.0)",1.1166666666666667,0.294,1,833.2,2
0,53,target,"[(1115, 759)]",[],[1],[0.55],horizontal,"(390.0, 262.0)",0.8666666666666667,0.507,1,839.951,2
0,54,target,"[(1115, 764)]",[],[1],[],vertical,"(890.0, 762.0)",,"('cti', 0.702)",0,845.325,0
0,55,target,"[(1111, 761)]",[],[1],[0.6166666666666667],vertical,"(390.0, 762.0)",0.8,0.567,1,849.469,1
0,56,target,"[(1107, 751), (1082, 781)]",[],"[0, 1]",[0.43333333333333335],vertical,"(890.0, 262.0)",1.4833333333333334,0.392,1,854.527,1
0,57,target,"[(1086, 751), (1076, 789)]",[],"[0, 1]",[0.5166666666666666],horizontal,"(390.0, 262.0)",1.05,0.484,1,860.335,1
0,58,target,"[(1093, 774)]",[],[1],[],vertical,"(390.0, 262.0)",,"('cti', 1.443)",0,866.802,0
0,59,target,"[(1114, 761)]",[],[1],[0.5333333333333333],vertical,"(390.0, 762.0)",1.5,0.494,1,871.594,1
0,60,catch,"[(1127, 764)]",[],[1],[],vertical,"(890.0, 262.0)",1.6,"('cti', 1.579),nan",0,876.564,0
0,61,target,"[(1115, 751), (1086, 774)]",[],"[0, 1]",[0.3833333333333333],vertical,"(890.0, 262.0)",1.1666666666666667,0.346,1,881.384,1
0,62,catch,"[(1111, 770)]",[],[1],[],horizontal,"(390.0, 262.0)",,"('cti', 1.44),nan",0,888.019,0
0,63,target,"[(1112, 760)]",[],[1],[0.5166666666666666],horizontal,"(390.0, 762.0)",1.0666666666666667,0.483,1,892.851,1
0,64,catch,"[(1116, 754)]",[],[1],[],horizontal,"(890.0, 762.0)",1.6,"('cti', 1.594),nan",0,897.474,0
0,65,target,"[(1115, 776)]",[],[1],[0.5666666666666667],horizontal,"(390.0, 262.0)",1.05,0.518,1,902.156,1
0,66,target,"[(1108, 769)]",[],[1],[0.4166666666666667],horizontal,"(390.0, 262.0)",1.3,0.379,1,906.801,1
0,67,target,"[(1124, 766)]",[],[1],[0.36666666666666664],vertical,"(390.0, 762.0)",1.35,0.325,1,911.7,1
0,68,target,"[(1111, 771)]",[],[1],[0.5166666666666666],horizontal,"(890.0, 762.0)",0.8166666666666667,0.476,1,916.901,2
0,69,catch,"[(1115, 780)]",[],[1],[],horizontal,"(390.0, 762.0)",1.6,nan,1,921.932,2
0,70,target,"[(1122, 766)]",[],[1],[],horizontal,"(890.0, 762.0)",,"('cti', 1.424)",0,927.268,0
0,71,target,"[(1113, 780)]",[],[1],[0.5166666666666666],vertical,"(390.0, 262.0)",1.0666666666666667,0.482,1,931.869,1
0,72,target,"[(1106, 783)]",[],[1],[0.7833333333333333],vertical,"(390.0, 262.0)",0.8166666666666667,0.733,1,936.963,1
0,73,catch,"[(1112, 768)]",[],[1],[],vertical,"(390.0, 262.0)",1.6,nan,1,941.9,1
0,74,target,"[(1084, 785)]",[],[1],[0.85],vertical,"(390.0, 762.0)",0.6,nan,0,947.157,0
0,75,target,"[(1108, 770)]",[],[1],[0.16666666666666666],vertical,"(890.0, 262.0)",1.55,0.135,0,951.908,0
0,76,target,"[(1084, 766)]",[],[1],[0.5833333333333334],vertical,"(890.0, 762.0)",0.6833333333333333,0.542,1,956.809,1
0,77,target,"[(1118, 757)]",[],[1],[0.4],vertical,"(890.0, 262.0)",1.25,0.361,1,961.318,1
0,78,target,"[(1120, 757)]",[],[1],[0.3],horizontal,"(890.0, 262.0)",1.25,0.265,1,965.985,1
0,79,catch,"[(1115, 778)]",[],[1],[],vertical,"(390.0, 262.0)",,"('cti', 1.568),nan",0,970.667,0
0,80,catch,"[(1098, 764)]",[],[1],[],vertical,"(390.0, 262.0)",,"('cti', 1.551),nan",0,975.261,0
0,81,target,"[(1122, 773)]",[],[1],[0.36666666666666664],horizontal,"(390.0, 262.0)",1.4333333333333333,0.331,1,979.708,1
0,82,target,"[(1082, 771)]",[],[1],[0.5833333333333334],horizontal,"(390.0, 762.0)",0.6,0.539,1,984.735,1
0,83,target,"[(1124, 773)]",[],[1],[0.3333333333333333],horizontal,"(390.0, 262.0)",1.2666666666666666,0.294,1,989.169,1
0,84,target,"[(1105, 772)]",[],[1],[0.4166666666666667],horizontal,"(890.0, 262.0)",1.2833333333333332,0.377,1,994.312,2
0,85,target,"[(1110, 776)]",[],[1],[0.43333333333333335],vertical,"(890.0, 762.0)",1.1333333333333333,0.394,1,1000.069,2
0,86,target,"[(1124, 777)]",[],[1],[0.7166666666666667],vertical,"(890.0, 762.0)",0.5,0.674,1,1005.737,2
0,87,target,"[(1110, 776)]",[],[1],[0.5666666666666667],horizontal,"(390.0, 262.0)",0.6833333333333333,0.523,1,1010.758,2
0,88,target,"[(1100, 761)]",[],[1],[0.7333333333333333],vertical,"(390.0, 762.0)",0.7833333333333333,0.69,1,1015.544,2
0,89,catch,"[(1101, 779)]",[],[1],[],horizontal,"(890.0, 762.0)",,"('cti', 1.486),nan",0,1020.519,0
0,90,target,"[(1123, 774)]",[],[1],[0.4166666666666667],horizontal,"(890.0, 262.0)",1.4166666666666667,0.38,1,1025.152,1
0,91,target,"[(1121, 769)]",[],[1],[0.6833333333333333],vertical,"(390.0, 762.0)",0.6333333333333333,0.635,1,1030.302,1
0,92,target,"[(1105, 776)]",[],[1],[0.21666666666666667],vertical,"(390.0, 762.0)",1.55,0.184,0,1034.944,0
0,93,target,"[(1104, 774)]",[],[1],[0.35],vertical,"(390.0, 262.0)",1.2333333333333334,0.312,1,1039.465,1
0,94,target,"[(1129, 770)]",[],[1],[0.36666666666666664],horizontal,"(890.0, 262.0)",1.45,0.327,1,1044.418,1
0,95,target,"[(1086, 769)]",[],[1],[0.21666666666666667],vertical,"(390.0, 262.0)",1.4333333333333333,0.18,0,1049.801,0
0,96,target,"[(1087, 775)]",[],[1],[0.85],vertical,"(890.0, 262.0)",1.6,nan,0,1054.826,0
0,97,target,"[(1100, 769)]",[],[1],[0.7166666666666667],vertical,"(390.0, 762.0)",0.5666666666666667,0.678,1,1060.025,1
0,98,target,"[(1128, 774)]",[],[1],[0.85],vertical,"(390.0, 762.0)",0.65,nan,0,1064.801,0
0,99,target,"[(1117, 774)]",[],[1],[0.6],vertical,"(890.0, 262.0)",1.3,0.558,1,1069.236,1
0,100,target,"[(1114, 792)]",[],[1],[],horizontal,"(890.0, 762.0)",,"('cti', 1.596)",0,1074.206,0
0,101,target,"[(1131, 761)]",[],[1],[0.6],vertical,"(890.0, 262.0)",1.2666666666666666,0.561,1,1079.202,1
0,102,target,"[(1111, 790)]",[],[1],[0.6833333333333333],vertical,"(890.0, 762.0)",0.6,0.641,1,1084.771,1
0,103,catch,"[(1104, 782)]",[],[1],[],vertical,"(890.0, 762.0)",,"('cti', 1.554),nan",0,1089.336,0
0,104,target,"[(1115, 771)]",[],[1],[0.6333333333333333],vertical,"(390.0, 762.0)",1.2333333333333334,0.594,1,1094.304,1
0,105,catch,"[(1129, 775)]",[],[1],[],vertical,"(890.0, 262.0)",1.6,"('cti', 1.584),nan",0,1099.42,0
0,106,target,"[(1095, 779)]",[],[1],[0.7333333333333333],horizontal,"(390.0, 762.0)",0.9,0.692,1,1104.382,1
0,107,target,"[(1138, 781)]",[],[1],[],vertical,"(890.0, 262.0)",,"('cti', 1.441)",0,1109.537,0
0,108,target,"[(1114, 771)]",[],[1],[],horizontal,"(890.0, 762.0)",,"('cti', 1.581)",0,1114.402,0
0,109,target,"[(1131, 752), (1114, 795)]",[],"[0, 1]",[0.7333333333333333],vertical,"(890.0, 762.0)",0.6166666666666667,0.698,1,1119.121,1
0,110,target,"[(1105, 791)]",[],[1],[0.5166666666666666],horizontal,"(390.0, 262.0)",0.7333333333333333,0.478,1,1125.286,1
0,111,target,"[(1109, 766)]",[],[1],[0.7333333333333333],horizontal,"(390.0, 262.0)",0.9,0.687,1,1130.269,1
0,112,target,"[(1111, 771)]",[],[1],[0.48333333333333334],vertical,"(890.0, 262.0)",0.9333333333333333,0.442,1,1135.013,2
0,113,target,"[(1130, 777)]",[],[1],[0.48333333333333334],vertical,"(890.0, 262.0)",1.0666666666666667,0.444,1,1139.937,2
0,114,target,"[(1123, 773)]",[],[1],[0.5166666666666666],vertical,"(890.0, 762.0)",1.0833333333333333,0.471,1,1145.054,2
0,115,target,"[(1114, 761)]",[],[1],[0.5166666666666666],horizontal,"(890.0, 762.0)",1.3,0.478,1,1149.972,2
0,116,catch,"[(1119, 795)]",[],[1],[],vertical,"(890.0, 762.0)",,"('cti', 1.437),nan",0,1155.478,0
0,117,target,"[(1128, 772)]",[],[1],[0.85],vertical,"(390.0, 762.0)",0.6,nan,0,1160.335,0
0,118,target,"[(1084, 775)]",[],[1],[0.5833333333333334],horizontal,"(390.0, 262.0)",0.95,0.543,1,1164.904,1
0,119,target,"[(1096, 769)]",[],[1],[0.43333333333333335],horizontal,"(890.0, 262.0)",0.8166666666666667,0.391,1,1169.364,1
0,120,catch,"[(1130, 771)]",[],[1],[],vertical,"(390.0, 762.0)",1.6,nan,1,1174.147,1
0,121,target,"[(1128, 779)]",[],[1],[0.45],vertical,"(890.0, 262.0)",0.85,0.411,1,1179.293,2
0,122,target,"[(1135, 767)]",[],[1],[0.6333333333333333],vertical,"(390.0, 762.0)",1.1666666666666667,0.595,1,1184.754,2
0,123,target,"[(1110, 772)]",[],[1],[0.65],vertical,"(390.0, 262.0)",0.9333333333333333,0.608,1,1190.431,2
0,124,target,"[(1111, 768)]",[],[1],[0.1],horizontal,"(890.0, 262.0)",1.6833333333333333,0.068,0,1195.487,0
0,125,target,"[(1058, 769)]",[],[1],[0.5166666666666666],horizontal,"(890.0, 262.0)",1.0,0.479,1,1200.097,1
0,126,target,"[(1105, 774)]",[],[1],[0.4666666666666667],horizontal,"(890.0, 262.0)",1.1,0.436,1,1228.15,1
0,127,catch,"[(1120, 786)]",[],[1],[],vertical,"(890.0, 262.0)",,"('cti', 1.485),nan",0,1232.955,0
0,128,target,"[(1101, 783)]",[],[1],[0.7166666666666667],vertical,"(890.0, 762.0)",0.8166666666666667,0.671,1,1237.466,1
0,129,catch,"[(1114, 791)]",[],[1],[],vertical,"(890.0, 762.0)",1.6,nan,1,1242.106,1
0,130,target,"[(1114, 808)]",[],[1],[0.31666666666666665],horizontal,"(890.0, 762.0)",1.5,0.28,1,1247.449,1
0,131,target,"[(1089, 792)]",[],[1],[0.23333333333333334],vertical,"(890.0, 762.0)",1.35,0.201,1,1252.535,2
0,132,target,"[(1120, 786)]",[],[1],[0.31666666666666665],horizontal,"(390.0, 762.0)",1.45,0.277,1,1258.233,2
0,133,target,"[(1123, 792)]",[],[1],[0.4666666666666667],vertical,"(390.0, 262.0)",0.9833333333333333,0.43,1,1263.635,2
0,134,target,"[(1113, 776)]",[],[1],[0.7],horizontal,"(890.0, 262.0)",0.9833333333333333,0.651,1,1269.023,2
0,135,target,"[(1105, 767)]",[],[1],[0.5],horizontal,"(890.0, 262.0)",0.6166666666666667,0.464,1,1274.353,2
0,136,target,"[(1120, 775)]",[],[1],[0.4],horizontal,"(390.0, 762.0)",1.2333333333333334,0.359,1,1279.407,3
0,137,catch,"[(1110, 798)]",[],[1],[],vertical,"(890.0, 762.0)",,"('cti', 1.569),nan",0,1285.403,0
0,138,target,"[(1111, 790)]",[],[1],[0.1],horizontal,"(390.0, 262.0)",1.3166666666666667,0.067,0,1289.917,0
0,139,target,"[(1089, 772)]",[],[1],[],horizontal,"(890.0, 262.0)",,"('cti', 1.192)",0,1294.675,0
0,140,catch,"[(1108, 791)]",[],[1],[],vertical,"(390.0, 762.0)",1.6,nan,1,1299.071,1
0,141,catch,"[(1106, 789)]",[],[1],[],vertical,"(890.0, 262.0)",1.6,nan,1,1303.755,1
0,142,target,"[(1107, 776)]",[],[1],[0.3333333333333333],horizontal,"(890.0, 762.0)",1.45,0.297,1,1308.687,1
0,143,catch,"[(1088, 775)]",[],[1],[],horizontal,"(390.0, 762.0)",,"('cti', 1.53),nan",0,1313.799,0
0,144,target,"[(1197, 918)]",[],[1],[],horizontal,"(890.0, 762.0)",,"('fix', 0.198)",0,1318.442,0
0,145,target,"[(250, 504), (868, 355), (537, 801), (1075, 805)]",[],"[0, 0, 0, 1]",[0.5166666666666666],horizontal,"(890.0, 762.0)",1.3666666666666667,0.476,1,1329.187,1
0,146,target,"[(1086, 798)]",[],[1],[0.85],vertical,"(390.0, 762.0)",1.0833333333333333,nan,0,4638.869,0
0,147,target,"[(1067, 802)]",[],[1],[0.85],vertical,"(390.0, 262.0)",1.0,nan,0,4643.939,0
0,148,target,"[(1072, 863)]",[],[1],[0.21666666666666667],horizontal,"(890.0, 262.0)",1.3666666666666667,0.182,0,4665.26,0
0,149,target,"[(1047, 821)]",[],[1],[0.6],vertical,"(890.0, 762.0)",1.1166666666666667,0.559,1,4673.356,1
0,150,target,"[(1056, 816)]",[],[1],[0.85],vertical,"(890.0, 762.0)",0.9166666666666666,nan,0,4684.633,0
0,151,target,"[(1062, 781)]",[],[1],[],vertical,"(390.0, 262.0)",,"('cti', 0.767)",0,4690.556,0
0,152,catch,"[(1065, 781)]",[],[1],[],vertical,"(390.0, 262.0)",1.6,nan,1,4694.706,1
0,153,target,"[(1091, 800)]",[],[1],[0.5333333333333333],vertical,"(890.0, 262.0)",0.7333333333333333,0.49,1,4709.924,1
0,154,target,"[(1124, 791)]",[],[1],[0.55],vertical,"(390.0, 762.0)",0.95,0.509,1,4714.461,1
0,155,target,"[(1128, 787)]",[],[1],[0.6],vertical,"(390.0, 262.0)",0.5666666666666667,0.557,1,4719.32,2
0,156,target,"[(1124, 815)]",[],[1],[],vertical,"(890.0, 762.0)",,"('cti', 1.177)",0,4724.08,0
0,157,target,"[(1105, 791)]",[],[1],[0.5],vertical,"(390.0, 762.0)",1.2333333333333334,0.459,1,4728.374,1
0,158,target,"[(1112, 791)]",[],[1],[0.45],horizontal,"(890.0, 262.0)",1.3,0.411,1,4733.741,1
0,159,catch,"[(1106, 800)]",[],[1],[],horizontal,"(390.0, 262.0)",1.6,nan,1,4738.652,1
0,160,target,"[(1096, 792)]",[],[1],[0.85],horizontal,"(390.0, 762.0)",0.65,nan,0,4743.762,0
0,161,target,"[(1067, 791)]",[],[1],[0.6],horizontal,"(890.0, 262.0)",1.5,0.554,1,4748.122,1
0,162,target,"[(1038, 787)]",[],[1],[0.75],vertical,"(390.0, 762.0)",1.0166666666666666,0.708,1,4753.39,1
0,163,catch,"[(1095, 795)]",[],[1],[],horizontal,"(890.0, 262.0)",,"('cti', 1.359),nan",0,4768.957,0
0,164,target,"[(1072, 802)]",[],[1],[0.4166666666666667],horizontal,"(890.0, 762.0)",1.4166666666666667,0.381,1,4773.484,1
0,165,target,"[(1086, 807)]",[],[1],[0.75],vertical,"(890.0, 762.0)",0.5166666666666666,0.705,1,5105.225,1
0,166,target,"[(1071, 805)]",[],[1],[0.85],vertical,"(390.0, 762.0)",1.4833333333333334,nan,0,5110.11,0
0,167,target,"[(1118, 807)]",[],[1],[0.5166666666666666],vertical,"(890.0, 762.0)",0.5166666666666666,0.475,1,5115.609,1
0,168,target,"[(1106, 790)]",[],[1],[0.4666666666666667],vertical,"(390.0, 762.0)",0.95,0.423,1,5120.063,1
0,169,catch,"[(1088, 797)]",[],[1],[],horizontal,"(390.0, 762.0)",,"('cti', 1.53),nan",0,5125.009,0
0,170,target,"[(1068, 800)]",[],[1],[0.65],vertical,"(390.0, 762.0)",1.1,0.606,1,5129.386,1
0,171,target,"[(1086, 795)]",[],[1],[0.05],vertical,"(390.0, 262.0)",1.6333333333333333,0.019,0,5134.692,0
0,172,catch,"[(1108, 791)]",[],[1],[],horizontal,"(890.0, 262.0)",1.6,nan,1,5139.592,1
0,173,target,"[(1106, 800)]",[],[1],[0.85],vertical,"(390.0, 762.0)",0.6666666666666666,nan,0,5144.746,0
0,174,target,"[(1064, 795)]",[],[1],[0.4166666666666667],vertical,"(390.0, 262.0)",1.4,0.376,1,5149.259,1
0,175,catch,"[(1105, 809)]",[],[1],[],horizontal,"(390.0, 262.0)",1.6,nan,1,5154.625,1
0,176,target,"[(1124, 801)]",[],[1],[0.85],vertical,"(390.0, 762.0)",0.6166666666666667,nan,0,5159.827,0
0,177,target,"[(1080, 789)]",[],[1],[0.4166666666666667],horizontal,"(890.0, 262.0)",1.4833333333333334,0.378,1,5164.521,1
0,178,target,"[(1114, 790)]",[],[1],[0.6333333333333333],vertical,"(390.0, 262.0)",0.8833333333333333,0.59,1,5169.655,1
0,179,target,"[(1110, 788)]",[],[1],[0.43333333333333335],horizontal,"(390.0, 762.0)",1.2833333333333332,0.398,1,5174.443,1
0,180,target,"[(1109, 789)]",[],[1],[0.3833333333333333],horizontal,"(390.0, 262.0)",1.4666666666666666,0.343,1,5179.628,2
0,181,target,"[(1110, 784)]",[],[1],[0.31666666666666665],vertical,"(890.0, 262.0)",1.2833333333333332,0.279,1,5185.135,2
0,182,catch,"[(1101, 787)]",[],[1],[],horizontal,"(390.0, 262.0)",1.6,nan,1,5190.476,2
0,183,target,"[(1111, 808)]",[],[1],[0.85],horizontal,"(390.0, 762.0)",0.5333333333333333,nan,0,5195.677,0
0,184,target,"[(1079, 796)]",[],[1],[0.5833333333333334],vertical,"(890.0, 762.0)",1.0333333333333332,0.54,1,5199.923,1
0,185,target,"[(1110, 798)]",[],[1],[0.55],horizontal,"(390.0, 762.0)",0.8833333333333333,0.509,1,5204.822,1
0,186,catch,"[(1113, 788)]",[],[1],[],vertical,"(390.0, 762.0)",1.6,nan,1,5209.677,1
0,187,target,"[(1086, 792)]",[],[1],[0.5666666666666667],horizontal,"(890.0, 762.0)",0.7666666666666666,0.521,1,5214.468,2
0,188,catch,"[(1108, 791)]",[],[1],[],horizontal,"(390.0, 262.0)",1.6,nan,1,5219.609,2
0,189,target,"[(1110, 790)]",[],[1],[],vertical,"(390.0, 262.0)",,"('cti', 1.352)",0,5225.051,0
0,190,target,"[(1076, 777)]",[],[1],[],vertical,"(390.0, 262.0)",,"('cti', 1.133)",0,5229.843,0
0,191,target,"[(1063, 797)]",[],[1],[0.5166666666666666],vertical,"(890.0, 762.0)",0.55,0.476,1,5235.227,1
0,192,target,"[(1069, 800)]",[],[1],[],vertical,"(890.0, 262.0)",,"('cti', 1.097)",0,5239.608,0
0,193,target,"[(1076, 796)]",[],[1],[0.4],horizontal,"(390.0, 762.0)",1.2666666666666666,0.361,1,5245.549,1
0,194,target,"[(1123, 795)]",[],[1],[0.85],horizontal,"(890.0, 262.0)",0.7166666666666667,nan,0,5250.426,0
0,195,target,"[(1105, 797)]",[],[1],[0.06666666666666667],horizontal,"(890.0, 762.0)",1.6,0.036,0,5254.709,0
0,196,target,"[(1105, 794)]",[],[1],[],vertical,"(390.0, 762.0)",,"('cti', 1.567)",0,5259.149,0
0,197,target,"[(1082, 787)]",[],[1],[0.18333333333333332],vertical,"(890.0, 762.0)",1.2666666666666666,0.149,0,5264.142,0
0,198,catch,"[(1052, 793)]",[],[1],[],horizontal,"(890.0, 262.0)",1.6,nan,1,5268.743,1
0,199,target,"[(1106, 800)]",[],[1],[0.3333333333333333],vertical,"(390.0, 762.0)",1.6666666666666667,0.297,1,5273.711,1
0,200,catch,"[(1116, 804)]",[],[1],[],vertical,"(890.0, 262.0)",,"('cti', 1.471),nan",0,5278.979,0
0,201,target,"[(1115, 782)]",[],[1],[0.36666666666666664],vertical,"(390.0, 262.0)",1.4666666666666666,0.327,1,5283.826,1
0,202,target,"[(1112, 803)]",[],[1],[0.43333333333333335],vertical,"(390.0, 762.0)",1.3,0.399,1,5288.811,1
0,203,target,"[(1118, 785)]",[],[1],[0.7833333333333333],horizontal,"(890.0, 262.0)",0.9,0.738,1,5293.827,1
0,204,target,"[(1106, 790)]",[],[1],[0.5666666666666667],vertical,"(890.0, 262.0)",0.6333333333333333,0.525,1,5298.993,2
0,205,target,"[(1110, 795)]",[],[1],[0.21666666666666667],horizontal,"(390.0, 262.0)",1.5,0.18,0,5303.994,0
0,206,target,"[(1119, 786)]",[],[1],[0.5],vertical,"(390.0, 262.0)",1.3,0.459,1,5308.694,1
0,207,target,"[(1110, 767)]",[],[1],[0.1],horizontal,"(390.0, 762.0)",1.6,0.068,0,5313.896,0
0,208,target,"[(1083, 781)]",[],[1],[0.6166666666666667],vertical,"(390.0, 762.0)",1.0666666666666667,0.568,1,5318.759,1
0,209,catch,"[(1107, 773)]",[],[1],[],vertical,"(390.0, 262.0)",1.6,nan,1,5323.818,1
0,210,target,"[(1106, 782)]",[],[1],[0.5666666666666667],horizontal,"(890.0, 762.0)",0.5833333333333334,0.522,1,5328.495,1
0,211,target,"[(1106, 778)]",[],[1],[0.55],horizontal,"(390.0, 762.0)",1.0833333333333333,0.508,1,5333.061,2
0,212,target,"[(1108, 781)]",[],[1],[0.7833333333333333],horizontal,"(390.0, 762.0)",0.8,0.727,1,5338.627,2
0,213,catch,"[(1113, 791)]",[],[1],[],vertical,"(390.0, 262.0)",1.6,nan,1,5343.877,2
0,214,target,"[(1106, 803)]",[],[1],[0.85],vertical,"(390.0, 762.0)",0.6666666666666666,nan,0,5348.931,0
0,215,catch,"[(1067, 787)]",[],[1],[],vertical,"(890.0, 762.0)",,"('cti', 1.353),nan",0,5353.377,0
0,216,target,"[(1088, 771)]",[],[1],[0.6333333333333333],vertical,"(390.0, 762.0)",1.05,0.585,1,5358.06,1
0,217,target,"[(1101, 790)]",[],[1],[0.4666666666666667],vertical,"(390.0, 262.0)",1.1166666666666667,0.422,1,5362.812,1
0,218,target,"[(1108, 786)]",[],[1],[0.5333333333333333],horizontal,"(890.0, 262.0)",1.05,0.488,1,5367.909,1
0,219,target,"[(1106, 774)]",[],[1],[],horizontal,"(390.0, 762.0)",,"('cti', 1.453)",0,5372.993,0
0,220,target,"[(1124, 802)]",[],[1],[0.5333333333333333],vertical,"(390.0, 762.0)",1.3833333333333333,0.49,1,5377.728,1
0,221,target,"[(1099, 794)]",[],[1],[0.5833333333333334],horizontal,"(890.0, 762.0)",1.0,0.539,1,5382.728,1
0,222,target,"[(1116, 788)]",[],[1],[0.5166666666666666],horizontal,"(890.0, 262.0)",1.0333333333333332,0.472,1,5387.793,1
0,223,target,"[(1084, 770)]",[],[1],[0.5],horizontal,"(890.0, 262.0)",0.55,0.46,1,5392.245,2
0,224,target,"[(1110, 789)]",[],[1],[0.6833333333333333],horizontal,"(390.0, 262.0)",0.8666666666666667,0.639,1,5397.245,2
0,225,target,"[(1076, 805)]",[],[1],[0.5333333333333333],vertical,"(890.0, 262.0)",1.3333333333333333,0.487,1,5402.777,2
0,226,target,"[(1120, 792)]",[],[1],[0.45],horizontal,"(890.0, 262.0)",1.4166666666666667,0.411,1,5408.887,2
0,227,target,"[(1083, 767)]",[],[1],[0.6166666666666667],horizontal,"(890.0, 262.0)",0.7,0.579,1,5414.392,2
0,228,target,"[(1109, 784)]",[],[1],[0.6166666666666667],vertical,"(390.0, 262.0)",0.55,0.569,1,5419.23,3
0,229,target,"[(1105, 782)]",[],[1],[0.4166666666666667],horizontal,"(390.0, 262.0)",1.1,0.378,1,5424.421,3
0,230,target,"[(1085, 774)]",[],[1],[0.26666666666666666],horizontal,"(890.0, 262.0)",1.2166666666666666,0.23,1,5430.234,3
0,231,target,"[(1098, 800)]",[],[1],[0.5333333333333333],vertical,"(890.0, 262.0)",1.1166666666666667,0.488,1,5436.177,3
0,232,target,"[(1103, 793)]",[],[1],[0.48333333333333334],horizontal,"(890.0, 262.0)",0.5,0.442,1,5441.998,3
0,233,target,"[(1076, 795)]",[],[1],[0.8333333333333334],vertical,"(890.0, 262.0)",0.75,0.783,1,5447.415,3
0,234,target,"[(1116, 768)]",[],[1],[0.5],vertical,"(390.0, 762.0)",1.5,0.458,1,5452.777,3
0,235,catch,"[(1109, 800)]",[],[1],[],vertical,"(890.0, 762.0)",1.6,nan,1,5458.632,3
0,236,target,"[(1105, 804)]",[],[1],[0.5833333333333334],horizontal,"(890.0, 762.0)",1.15,0.541,1,5464.411,3
0,237,target,"[(1117, 788)]",[],[1],[0.6166666666666667],vertical,"(890.0, 262.0)",1.15,0.568,1,5470.111,3
0,238,catch,"[(1105, 786)]",[],[1],[],vertical,"(390.0, 762.0)",1.6,nan,1,5476.161,3
0,239,target,"[(1113, 792)]",[],[1],[0.5833333333333334],horizontal,"(390.0, 762.0)",1.05,0.54,1,5481.944,3
0,240,target,"[(1107, 800)]",[],[1],[0.55],vertical,"(390.0, 762.0)",1.2833333333333332,0.508,1,5487.722,3
0,241,target,"[(1103, 800)]",[],[1],[0.3833333333333333],horizontal,"(390.0, 762.0)",1.55,0.357,1,5493.491,3
0,242,catch,"[(1105, 788)]",[],[1],[],horizontal,"(890.0, 762.0)",1.6,nan,1,5499.541,3
0,243,target,"[(1127, 786)]",[],[1],[0.4666666666666667],horizontal,"(890.0, 262.0)",0.6166666666666667,0.425,1,5505.656,3
0,244,catch,"[(1115, 782)]",[],[1],[],vertical,"(390.0, 262.0)",1.6,nan,1,5510.814,3
0,245,target,"[(1111, 791)]",[],[1],[0.3333333333333333],horizontal,"(390.0, 762.0)",1.4166666666666667,0.297,1,5516.594,3
0,246,catch,"[(1092, 802)]",[],[1],[],horizontal,"(390.0, 262.0)",1.6,nan,1,5522.587,3
0,247,target,"[(1109, 787)]",[],[1],[0.85],vertical,"(390.0, 762.0)",0.5833333333333334,nan,0,5528.378,0
0,248,target,"[(1072, 807)]",[],[1],[0.48333333333333334],vertical,"(890.0, 762.0)",1.2,0.445,1,5532.623,1
0,249,target,"[(1105, 780)]",[],[1],[0.55],vertical,"(390.0, 762.0)",0.95,0.505,1,5538.086,1
0,250,target,"[(1109, 795)]",[],[1],[0.6],horizontal,"(890.0, 762.0)",0.6166666666666667,0.555,1,5542.93,1
0,251,target,"[(1082, 768)]",[],[1],[0.35],vertical,"(390.0, 762.0)",1.2833333333333332,0.31,1,5547.333,2
0,252,target,"[(1110, 785)]",[],[1],[],vertical,"(890.0, 762.0)",,"('cti', 1.549)",0,5552.81,0
0,253,target,"[(1115, 789)]",[],[1],[0.5833333333333334],vertical,"(390.0, 262.0)",1.0333333333333332,0.542,1,5557.794,1
0,254,target,"[(1111, 790)]",[],[1],[0.85],vertical,"(390.0, 762.0)",0.7,nan,0,5562.751,0
0,255,catch,"[(1075, 783)]",[],[1],[],vertical,"(390.0, 262.0)",1.6,nan,1,5567.037,1
0,256,target,"[(1080, 766)]",[],[1],[0.35],horizontal,"(390.0, 762.0)",1.4666666666666666,0.315,1,5572.753,1
0,257,target,"[(1079, 780)]",[],[1],[0.45],horizontal,"(890.0, 262.0)",1.4666666666666666,0.408,1,5577.827,1
0,258,target,"[(1100, 782)]",[],[1],[0.5333333333333333],horizontal,"(890.0, 762.0)",1.2166666666666666,0.493,1,5583.062,2
0,259,target,"[(1132, 791)]",[],[1],[0.3833333333333333],vertical,"(390.0, 262.0)",1.6333333333333333,0.346,1,5588.162,2
0,260,target,"[(1108, 778)]",[],[1],[0.6833333333333333],horizontal,"(390.0, 762.0)",0.7666666666666666,0.637,1,5593.941,2
0,261,target,"[(1113, 788)]",[],[1],[0.48333333333333334],vertical,"(890.0, 262.0)",1.05,0.443,1,5599.229,2
0,262,target,"[(1112, 785)]",[],[1],[0.85],vertical,"(390.0, 262.0)",0.7166666666666667,nan,0,5604.662,0
0,263,target,"[(1107, 779)]",[],[1],[0.43333333333333335],horizontal,"(890.0, 762.0)",1.4333333333333333,0.399,1,5608.871,1
0,264,target,"[(1106, 782)]",[],[1],[0.5333333333333333],horizontal,"(890.0, 262.0)",1.1166666666666667,0.505,1,5614.316,1
0,265,target,"[(1128, 803)]",[],[1],[0.5833333333333334],horizontal,"(890.0, 262.0)",0.8333333333333334,0.54,1,5618.998,1
0,266,catch,"[(1110, 785)]",[],[1],[],vertical,"(890.0, 262.0)",1.6,nan,1,5623.295,2
0,267,target,"[(1124, 805)]",[],[1],[],vertical,"(890.0, 762.0)",,"('cti', 1.558)",0,5628.878,0
0,268,target,"[(1079, 791)]",[],[1],[0.6333333333333333],vertical,"(390.0, 262.0)",1.1,0.587,1,5633.72,1
0,269,target,"[(1124, 800)]",[],[1],[0.6833333333333333],horizontal,"(890.0, 262.0)",0.6833333333333333,0.635,1,5638.804,1
0,270,target,"[(1105, 773)]",[],[1],[0.85],horizontal,"(390.0, 762.0)",0.7166666666666667,nan,0,5643.195,0
0,271,target,"[(1075, 803)]",[],[1],[0.35],vertical,"(890.0, 262.0)",1.4166666666666667,0.308,1,5647.461,1
0,272,target,"[(1111, 781)]",[],[1],[0.55],horizontal,"(890.0, 762.0)",1.1,0.51,1,5652.737,1
0,273,target,"[(1108, 786)]",[],[1],[0.48333333333333334],horizontal,"(390.0, 262.0)",1.3333333333333333,0.44,1,5657.886,1
0,274,target,"[(1107, 789)]",[],[1],[0.16666666666666666],horizontal,"(390.0, 762.0)",1.6333333333333333,0.136,0,5662.645,0
0,275,target,"[(1072, 800)]",[],[1],[0.85],horizontal,"(890.0, 762.0)",0.7166666666666667,nan,0,5667.422,0
0,276,target,"[(1058, 790)]",[],[1],[0.65],horizontal,"(390.0, 762.0)",0.6666666666666666,0.605,1,5671.673,1
0,277,target,"[(1076, 801)]",[],[1],[0.13333333333333333],vertical,"(890.0, 762.0)",1.5,0.101,0,5677.171,0
0,278,target,"[(1107, 786)]",[],[1],[0.4],horizontal,"(390.0, 762.0)",1.3166666666666667,0.36,1,5682.163,1
0,279,target,"[(1110, 806)]",[],[1],[0.25],horizontal,"(390.0, 762.0)",1.1166666666666667,0.212,1,5687.141,1
0,280,target,"[(1072, 800)]",[],[1],[],vertical,"(890.0, 762.0)",,"('cti', 1.593)",0,5692.062,0
0,281,target,"[(1076, 799)]",[],[1],[0.6666666666666666],vertical,"(890.0, 262.0)",1.0,0.625,1,5697.05,1
0,282,target,"[(1106, 773)]",[],[1],[0.45],vertical,"(390.0, 762.0)",1.3833333333333333,0.416,1,5701.745,1
0,283,target,"[(1106, 791)]",[],[1],[0.6166666666666667],vertical,"(890.0, 262.0)",0.6833333333333333,0.576,1,5706.533,1
0,284,target,"[(1107, 774)]",[],[1],[0.85],vertical,"(390.0, 262.0)",0.5,nan,0,5711.487,0
0,285,target,"[(1065, 781)]",[],[1],[0.5],horizontal,"(390.0, 262.0)",0.65,0.456,1,5715.59,1
0,286,target,"[(1082, 795)]",[],[1],[0.4166666666666667],horizontal,"(390.0, 262.0)",1.5166666666666666,0.376,1,5722.758,1
0,287,target,"[(1083, 778)]",[],[1],[0.6],horizontal,"(390.0, 762.0)",1.15,0.556,1,5727.804,1
0,288,target,"[(1108, 771)]",[],[1],[0.5833333333333334],horizontal,"(890.0, 262.0)",0.9,0.541,1,5732.767,2
0,289,target,"[(1106, 787)]",[],[1],[],vertical,"(890.0, 262.0)",,"('cti', 1.355)",0,5738.146,0
0,290,target,"[(1073, 770)]",[],[1],[0.85],horizontal,"(390.0, 762.0)",0.5333333333333333,nan,0,5742.262,0
0,291,target,"[(1081, 772)]",[],[1],[0.5166666666666666],horizontal,"(890.0, 762.0)",1.3666666666666667,0.473,1,5746.698,1
0,292,target,"[(1100, 770)]",[],[1],[0.43333333333333335],vertical,"(390.0, 762.0)",1.65,0.394,1,5751.63,1
0,293,target,"[(1086, 780)]",[],[1],[0.85],horizontal,"(390.0, 762.0)",0.6,nan,0,5756.874,0
0,294,target,"[(1076, 792)]",[],[1],[0.6],vertical,"(390.0, 762.0)",0.9666666666666667,0.557,1,5761.779,1
0,295,target,"[(1100, 761)]",[],[1],[0.5666666666666667],vertical,"(890.0, 262.0)",0.85,0.522,1,5766.596,1
0,296,target,"[(1088, 783)]",[],[1],[0.6],horizontal,"(390.0, 762.0)",1.1,0.555,1,5771.38,1
0,297,catch,"[(1105, 792)]",[],[1],[],horizontal,"(390.0, 762.0)",1.6,nan,1,5776.247,2
0,298,target,"[(1091, 811)]",[],[1],[0.85],vertical,"(390.0, 762.0)",0.6166666666666667,nan,0,5781.432,0
0,299,target,"[(1100, 800)]",[],[1],[0.85],vertical,"(390.0, 762.0)",0.7833333333333333,nan,0,5785.714,0
0,300,target,"[(1075, 790)]",[],[1],[0.85],vertical,"(390.0, 762.0)",0.65,nan,0,5790.23,0
0,301,target,"[(1072, 806)]",[],[1],[0.5666666666666667],vertical,"(890.0, 762.0)",0.8,0.524,1,5795.129,1
0,302,target,"[(1083, 764)]",[],[1],[0.48333333333333334],horizontal,"(890.0, 262.0)",1.45,0.446,1,5800.246,1
0,303,target,"[(1100, 776)]",[],[1],[0.55],vertical,"(390.0, 762.0)",1.0333333333333332,0.508,1,5805.514,1
0,304,target,"[(1105, 803)]",[],[1],[0.5833333333333334],horizontal,"(390.0, 762.0)",0.8666666666666667,0.541,1,5810.547,2
0,305,catch,"[(1102, 785)]",[],[1],[],horizontal,"(390.0, 262.0)",1.6,nan,1,5815.813,2
0,306,catch,"[(1086, 803)]",[],[1],[],horizontal,"(890.0, 762.0)",1.6,nan,1,5821.079,2
0,307,target,"[(1091, 795)]",[],[1],[0.5666666666666667],vertical,"(890.0, 762.0)",0.8,0.523,1,5826.28,2
0,308,target,"[(1108, 791)]",[],[1],[0.26666666666666666],vertical,"(890.0, 762.0)",1.55,0.227,1,5831.637,2
0,309,target,"[(1082, 788)]",[],[1],[0.36666666666666664],horizontal,"(390.0, 762.0)",1.6,0.329,1,5836.713,3
0,310,target,"[(1100, 790)]",[],[1],[0.6333333333333333],vertical,"(390.0, 262.0)",0.5666666666666667,0.588,1,5842.665,3
0,311,target,"[(1101, 764)]",[],[1],[0.65],vertical,"(390.0, 262.0)",1.2166666666666666,0.607,1,5847.847,3
0,312,target,"[(1079, 782)]",[],[1],[0.5666666666666667],horizontal,"(390.0, 762.0)",1.4333333333333333,0.539,1,5853.635,3
0,313,target,"[(1108, 785)]",[],[1],[0.36666666666666664],horizontal,"(890.0, 762.0)",1.5166666666666666,0.331,1,5859.763,3
0,314,target,"[(1110, 827)]",[],[1],[0.65],vertical,"(890.0, 762.0)",0.6166666666666667,0.619,1,5866.217,3
0,315,catch,"[(1112, 799)]",[],[1],[],horizontal,"(890.0, 762.0)",1.6,nan,1,5872.013,3
0,316,target,"[(1105, 786)]",[],[1],[0.21666666666666667],vertical,"(390.0, 762.0)",1.65,0.178,0,5877.636,0
0,317,target,"[(1094, 803)]",[],[1],[0.85],horizontal,"(390.0, 762.0)",0.5333333333333333,nan,0,5882.579,0
0,318,target,"[(1074, 766)]",[],[1],[0.16666666666666666],horizontal,"(390.0, 762.0)",1.4166666666666667,0.136,0,5887.108,0
0,319,target,"[(1080, 789)]",[],[1],[0.08333333333333333],horizontal,"(390.0, 762.0)",1.6333333333333333,0.051,0,5891.813,0
0,320,target,"[(1064, 784)]",[],[1],[],horizontal,"(390.0, 762.0)",,"('cti', 1.536)",0,5896.585,0
0,321,target,"[(1062, 771)]",[],[1],[0.85],vertical,"(890.0, 762.0)",0.5666666666666667,nan,0,5901.685,0
0,322,target,"[(1088, 779)]",[],[1],[0.25],vertical,"(890.0, 762.0)",1.6333333333333333,0.213,1,5906.513,1
0,323,catch,"[(1110, 786)]",[],[1],[],vertical,"(890.0, 262.0)",1.6,nan,1,5911.719,1
0,324,catch,"[(1112, 796)]",[],[1],[],horizontal,"(390.0, 262.0)",1.6,nan,1,5916.845,1
0,325,target,"[(1081, 768)]",[],[1],[0.85],horizontal,"(890.0, 762.0)",0.6,nan,0,5921.569,0
0,326,target,"[(1077, 789)]",[],[1],[0.6666666666666666],vertical,"(390.0, 262.0)",0.7666666666666666,0.624,1,5926.021,1
0,327,catch,"[(1107, 796)]",[],[1],[],vertical,"(390.0, 762.0)",1.6,nan,1,5930.813,1
0,328,catch,"[(1108, 806)]",[],[1],[],vertical,"(890.0, 262.0)",1.6,nan,1,5935.934,1
0,329,catch,"[(1103, 788)]",[],[1],[],horizontal,"(390.0, 762.0)",1.6,nan,1,5940.644,2
0,330,target,"[(1105, 808)]",[],[1],[0.36666666666666664],horizontal,"(890.0, 762.0)",1.3666666666666667,0.33,1,5945.839,2
0,331,target,"[(1119, 780)]",[],[1],[0.1],vertical,"(890.0, 762.0)",1.5166666666666666,0.068,0,5951.413,0
0,332,target,"[(1113, 798)]",[],[1],[0.6166666666666667],horizontal,"(390.0, 762.0)",0.8,0.58,1,5955.947,1
0,333,target,"[(1124, 785)]",[],[1],[0.65],vertical,"(390.0, 262.0)",0.6,0.616,1,5960.347,1
0,334,target,"[(1108, 781)]",[],[1],[0.6166666666666667],vertical,"(890.0, 762.0)",1.1833333333333333,0.58,1,5964.759,1
0,335,target,"[(1107, 767)]",[],[1],[0.3333333333333333],vertical,"(890.0, 262.0)",1.2166666666666666,0.295,1,5970.115,2
0,336,target,"[(1090, 787)]",[],[1],[0.85],vertical,"(390.0, 262.0)",0.9166666666666666,nan,0,5975.862,0
0,337,target,"[(1067, 785)]",[],[1],[0.08333333333333333],vertical,"(890.0, 262.0)",1.6,0.052,0,5980.585,0
0,338,target,"[(1077, 796)]",[],[1],[0.85],horizontal,"(390.0, 762.0)",0.5333333333333333,nan,0,5986.445,0
0,339,target,"[(1081, 812)]",[],[1],[0.6],horizontal,"(890.0, 762.0)",1.0666666666666667,0.558,1,5990.935,1
0,340,target,"[(1105, 788)]",[],[1],[0.85],horizontal,"(390.0, 762.0)",0.5333333333333333,nan,0,5995.815,0
0,341,target,"[(1065, 791)]",[],[1],[0.45],horizontal,"(390.0, 262.0)",1.3,0.409,1,6000.014,1
0,342,target,"[(1103, 805)]",[],[1],[0.65],vertical,"(890.0, 762.0)",1.25,0.613,1,6005.404,1
0,343,target,"[(1107, 790)]",[],[1],[0.6666666666666666],vertical,"(890.0, 762.0)",0.7166666666666667,0.623,1,6010.641,1
0,344,target,"[(1100, 787)]",[],[1],[0.85],horizontal,"(890.0, 262.0)",0.5333333333333333,nan,0,6015.477,0
0,345,target,"[(1065, 782)]",[],[1],[0.6666666666666666],vertical,"(390.0, 262.0)",0.8,0.619,1,6019.674,1
0,346,target,"[(1120, 789)]",[],[1],[0.6],vertical,"(890.0, 762.0)",1.3,0.564,1,6024.374,1
0,347,catch,"[(1084, 802)]",[],[1],[],vertical,"(390.0, 262.0)",1.6,nan,1,6029.331,1
0,348,target,"[(1075, 803)]",[],[1],[0.7],horizontal,"(890.0, 762.0)",1.15,0.661,1,6034.28,2
0,349,target,"[(1104, 806)]",[],[1],[0.85],horizontal,"(390.0, 762.0)",1.1166666666666667,nan,0,6040.044,0
0,350,target,"[(1091, 826)]",[],[1],[0.85],horizontal,"(890.0, 262.0)",0.65,nan,0,6136.808,0
0,351,catch,"[(1100, 830)]",[],[1],[],horizontal,"(390.0, 762.0)",1.6,nan,1,6142.247,1
0,352,target,"[(1103, 813)]",[],[1],[0.48333333333333334],vertical,"(390.0, 262.0)",1.3833333333333333,0.447,1,6148.391,1
0,353,target,"[(1124, 780)]",[],[1],[0.35],horizontal,"(390.0, 762.0)",1.4166666666666667,0.312,1,6153.364,1
0,354,target,"[(1125, 782)]",[],[1],[0.85],horizontal,"(390.0, 762.0)",0.5666666666666667,nan,0,6158.083,0
0,355,target,"[(1121, 781)]",[],[1],[0.6666666666666666],vertical,"(890.0, 762.0)",0.8,0.622,1,6162.498,1
0,356,target,"[(1104, 796)]",[],[1],[0.85],horizontal,"(390.0, 262.0)",0.65,nan,0,6167.031,0
0,357,target,"[(1069, 783)]",[],[1],[0.15],vertical,"(890.0, 262.0)",1.6166666666666667,0.117,0,6171.732,0
0,358,target,"[(1128, 780)]",[],[1],[0.45],vertical,"(890.0, 262.0)",1.3166666666666667,0.406,1,6176.732,1
0,359,target,"[(1107, 777)]",[],[1],[0.5666666666666667],vertical,"(390.0, 762.0)",1.2,0.532,1,6181.793,1
0,360,target,"[(1124, 782)]",[],[1],[0.13333333333333333],vertical,"(390.0, 762.0)",1.65,0.1,0,6186.816,0
0,361,target,"[(1129, 799)]",[],[1],[0.55],vertical,"(390.0, 262.0)",0.7333333333333333,0.509,1,6191.231,1
0,362,catch,"[(1106, 795)]",[],[1],[],vertical,"(890.0, 262.0)",,"('cti', 1.55),nan",0,6195.368,0
0,363,target,"[(1114, 795)]",[],[1],[0.48333333333333334],horizontal,"(890.0, 262.0)",0.8333333333333334,0.443,1,6200.231,1
0,364,catch,"[(1100, 780)]",[],[1],[],horizontal,"(390.0, 262.0)",1.6,nan,1,6205.131,1
0,365,target,"[(1109, 786)]",[],[1],[0.85],vertical,"(390.0, 762.0)",0.7166666666666667,nan,0,6209.799,0
0,366,target,"[(1110, 778)]",[],[1],[0.55],vertical,"(890.0, 762.0)",1.1166666666666667,0.512,1,6214.404,1
0,367,target,"[(1110, 782)]",[],[1],[0.18333333333333332],vertical,"(890.0, 262.0)",1.6333333333333333,0.151,0,6219.782,0
0,368,target,"[(1108, 786)]",[],[1],[0.48333333333333334],horizontal,"(890.0, 262.0)",1.1833333333333333,0.444,1,6224.443,1
0,369,target,"[(1117, 783)]",[],[1],[0.6166666666666667],horizontal,"(390.0, 262.0)",0.8166666666666667,0.576,1,6230.099,1
0,370,target,"[(1100, 786)]",[],[1],[0.48333333333333334],horizontal,"(890.0, 262.0)",1.0666666666666667,0.445,1,6234.515,1
0,371,target,"[(1110, 800)]",[],[1],[0.3833333333333333],horizontal,"(390.0, 762.0)",1.65,0.346,1,6239.248,2
0,372,target,"[(1110, 783)]",[],[1],[0.6666666666666666],vertical,"(390.0, 762.0)",1.1166666666666667,0.627,1,6245.216,2
0,373,target,"[(1110, 780)]",[],[1],[0.6],horizontal,"(390.0, 762.0)",1.1,0.556,1,6250.665,2
0,374,target,"[(1109, 786)]",[],[1],[0.6],horizontal,"(390.0, 262.0)",0.5333333333333333,0.554,1,6256.148,2
0,375,target,"[(1118, 791)]",[],[1],[0.43333333333333335],horizontal,"(890.0, 762.0)",1.1833333333333333,0.39,1,6260.782,2
0,376,catch,"[(1108, 786)]",[],[1],[],horizontal,"(890.0, 262.0)",1.6,nan,1,6266.125,3
0,377,target,"[(1092, 770)]",[],[1],[0.5333333333333333],horizontal,"(890.0, 762.0)",0.9333333333333333,0.497,1,6271.954,3
0,378,target,"[(1099, 796)]",[],[1],[0.85],horizontal,"(890.0, 262.0)",0.6666666666666666,nan,0,6277.363,0
0,379,target,"[(1081, 784)]",[],[1],[0.7],horizontal,"(390.0, 262.0)",0.6666666666666666,0.656,1,6281.861,1
0,380,target,"[(1120, 795)]",[],[1],[0.43333333333333335],vertical,"(390.0, 762.0)",1.5833333333333333,0.392,1,6286.473,1
0,381,target,"[(1108, 756)]",[],[1],[0.85],horizontal,"(390.0, 262.0)",0.8,nan,0,6291.55,0
0,382,target,"[(1075, 776)]",[],[1],[0.6333333333333333],horizontal,"(390.0, 262.0)",0.6333333333333333,0.589,1,6296.148,1
0,383,target,"[(1101, 761)]",[],[1],[0.5],vertical,"(390.0, 262.0)",1.45,0.459,1,6300.416,1
0,384,target,"[(1105, 780)]",[],[1],[0.5833333333333334],horizontal,"(890.0, 762.0)",0.8833333333333333,0.542,1,6305.649,1
0,385,target,"[(1105, 781)]",[],[1],[0.26666666666666666],vertical,"(390.0, 762.0)",1.6333333333333333,0.231,1,6310.616,2
0,386,target,"[(1115, 808)]",[],[1],[0.6166666666666667],horizontal,"(390.0, 762.0)",0.6,0.576,1,6316.365,2
0,387,target,"[(1126, 798)]",[],[1],[0.7833333333333333],vertical,"(390.0, 262.0)",1.0333333333333332,0.743,1,6321.533,2
0,388,target,"[(1102, 796)]",[],[1],[0.85],vertical,"(390.0, 762.0)",0.7166666666666667,nan,0,6326.939,0
0,389,target,"[(1058, 769)]",[],[1],[0.35],horizontal,"(890.0, 762.0)",1.4,0.307,1,6331.832,1
0,390,target,"[(1108, 773)]",[],[1],[0.4],vertical,"(390.0, 262.0)",1.3833333333333333,0.357,1,6336.783,1
0,391,target,"[(1110, 766)]",[],[1],[0.5833333333333334],horizontal,"(390.0, 762.0)",1.0166666666666666,0.546,1,6342.255,1
0,392,target,"[(1100, 766)]",[],[1],[0.5833333333333334],vertical,"(890.0, 262.0)",0.75,0.546,1,6347.253,2
0,393,target,"[(1128, 787)]",[],[1],[0.31666666666666665],horizontal,"(390.0, 262.0)",1.4333333333333333,0.284,1,6352.289,2
0,394,target,"[(1117, 776)]",[],[1],[0.35],horizontal,"(890.0, 262.0)",1.4166666666666667,0.311,1,6358.062,2
0,395,target,"[(1128, 777)]",[],[1],[0.7166666666666667],vertical,"(890.0, 262.0)",0.5166666666666666,0.666,1,6363.584,2
0,396,target,"[(1105, 791)]",[],[1],[0.55],horizontal,"(390.0, 262.0)",1.2,0.506,1,6368.616,2
0,397,target,"[(1134, 784)]",[],[1],[0.6],vertical,"(890.0, 762.0)",1.1166666666666667,0.559,1,6374.088,3
0,398,target,"[(1113, 795)]",[],[1],[0.85],horizontal,"(390.0, 762.0)",0.55,nan,0,6380.005,0
0,399,target,"[(1075, 796)]",[],[1],[0.55],vertical,"(890.0, 762.0)",0.9166666666666666,0.508,1,6384.2,1
0,400,target,"[(1105, 800)]",[],[1],[0.85],vertical,"(890.0, 762.0)",0.6333333333333333,nan,0,6389.216,0
0,401,target,"[(1110, 784)]",[],[1],[0.55],horizontal,"(390.0, 262.0)",1.0666666666666667,0.52,1,6393.984,1
0,402,target,"[(1109, 781)]",[],[1],[0.5833333333333334],horizontal,"(390.0, 262.0)",0.55,0.537,1,6398.869,1
0,403,target,"[(1107, 765)]",[],[1],[0.5333333333333333],vertical,"(890.0, 262.0)",0.95,0.492,1,6403.517,1
0,404,target,"[(1127, 786)]",[],[1],[0.5],horizontal,"(890.0, 262.0)",0.5666666666666667,0.458,1,6408.377,2
0,405,target,"[(1110, 783)]",[],[1],[0.6333333333333333],vertical,"(890.0, 762.0)",0.5,0.596,1,6413.556,2
0,406,target,"[(1110, 782)]",[],[1],[0.5],horizontal,"(390.0, 262.0)",0.9,0.468,1,6418.531,2
0,407,target,"[(1105, 789)]",[],[1],[0.5833333333333334],horizontal,"(890.0, 762.0)",1.2333333333333334,0.551,1,6423.459,2
0,408,target,"[(1110, 788)]",[],[1],[0.48333333333333334],horizontal,"(390.0, 262.0)",1.1166666666666667,0.441,1,6428.847,2
0,409,target,"[(1109, 789)]",[],[1],[0.4666666666666667],vertical,"(890.0, 762.0)",1.1666666666666667,0.426,1,6434.471,3
0,410,target,"[(1110, 784)]",[],[1],[0.85],horizontal,"(390.0, 262.0)",0.6833333333333333,nan,0,6440.369,0
0,411,target,"[(1075, 777)]",[],[1],[0.6666666666666666],horizontal,"(390.0, 262.0)",1.3333333333333333,0.628,1,6445.067,1
0,412,target,"[(1101, 777)]",[],[1],[0.4],horizontal,"(390.0, 262.0)",1.5166666666666666,0.357,1,6450.1,1
0,413,target,"[(1110, 771)]",[],[1],[0.85],horizontal,"(390.0, 762.0)",0.6833333333333333,nan,0,6454.896,0
0,414,target,"[(1103, 798)]",[],[1],[0.6333333333333333],horizontal,"(890.0, 762.0)",0.75,0.592,1,6459.16,1
0,415,target,"[(1124, 790)]",[],[1],[0.55],horizontal,"(890.0, 262.0)",0.7833333333333333,0.507,1,6464.233,1
0,416,target,"[(1111, 782)]",[],[1],[0.85],horizontal,"(890.0, 762.0)",0.5666666666666667,nan,0,6469.533,0
0,417,target,"[(1068, 786)]",[],[1],[0.5833333333333334],vertical,"(390.0, 762.0)",1.3333333333333333,0.537,1,6473.688,1
0,418,catch,"[(1100, 783)]",[],[1],[],vertical,"(390.0, 762.0)",1.6,nan,1,6479.316,1
0,419,target,"[(1108, 801)]",[],[1],[0.21666666666666667],horizontal,"(890.0, 762.0)",1.5833333333333333,0.181,0,6484.151,0
0,420,target,"[(1111, 781)]",[],[1],[0.55],vertical,"(390.0, 762.0)",1.2,0.51,1,6489.192,1
0,421,target,"[(1117, 769)]",[],[1],[0.6],vertical,"(890.0, 262.0)",0.7333333333333333,0.555,1,6493.989,1
0,422,target,"[(1111, 774)]",[],[1],[0.5333333333333333],horizontal,"(390.0, 262.0)",1.3833333333333333,0.494,1,6498.525,1
0,423,target,"[(1110, 794)]",[],[1],[0.2],horizontal,"(890.0, 762.0)",1.4333333333333333,0.165,0,6503.7,0
0,424,target,"[(1093, 796)]",[],[1],[0.5833333333333334],vertical,"(890.0, 762.0)",1.0833333333333333,0.544,1,6508.618,1
0,425,target,"[(1105, 790)]",[],[1],[0.85],vertical,"(390.0, 762.0)",0.9833333333333333,nan,0,6513.867,0
0,426,target,"[(1072, 790)]",[],[1],[0.45],horizontal,"(390.0, 762.0)",1.4833333333333334,0.412,1,6518.637,1
0,427,target,"[(1087, 767)]",[],[1],[0.7],horizontal,"(390.0, 762.0)",0.85,0.652,1,6523.417,1
0,428,target,"[(1105, 786)]",[],[1],[0.5666666666666667],vertical,"(890.0, 262.0)",0.5,0.525,1,6527.934,1
0,429,target,"[(1105, 777)]",[],[1],[0.6333333333333333],horizontal,"(890.0, 262.0)",0.6666666666666666,0.584,1,6532.534,2
0,430,target,"[(1107, 787)]",[],[1],[0.16666666666666666],horizontal,"(390.0, 262.0)",1.55,0.132,0,6537.65,0
0,431,catch,"[(1071, 801)]",[],[1],[],vertical,"(390.0, 762.0)",1.6,nan,1,6542.083,1
0,432,target,"[(1082, 795)]",[],[1],[],vertical,"(890.0, 762.0)",,"('cti', 1.451)",0,6561.447,0
0,433,target,"[(1059, 786)]",[],[1],[0.55],vertical,"(390.0, 262.0)",0.9333333333333333,0.509,1,6566.217,1
0,434,catch,"[(1113, 796)]",[],[1],[],horizontal,"(890.0, 762.0)",1.6,nan,1,6571.075,1
0,435,target,"[(1103, 787)]",[],[1],[0.5666666666666667],vertical,"(390.0, 762.0)",0.8833333333333333,0.52,1,6576.368,1
0,436,target,"[(1113, 772)]",[],[1],[0.26666666666666666],vertical,"(390.0, 262.0)",1.65,0.228,1,6580.76,2
0,437,target,"[(1113, 774)]",[],[1],[0.45],horizontal,"(890.0, 262.0)",1.25,0.409,1,6586.355,2
0,438,target,"[(1113, 804)]",[],[1],[0.35],vertical,"(390.0, 262.0)",1.4166666666666667,0.312,1,6591.785,2
0,439,target,"[(1110, 801)]",[],[1],[0.06666666666666667],vertical,"(390.0, 262.0)",1.4333333333333333,0.034,0,6597.243,0
0,440,target,"[(1056, 767)]",[],[1],[0.5166666666666666],vertical,"(890.0, 262.0)",1.0833333333333333,0.473,1,6602.267,1
0,441,catch,"[(1111, 793)]",[],[1],[],horizontal,"(890.0, 262.0)",1.6,nan,1,6607.089,1
0,442,target,"[(1110, 776)]",[],[1],[0.3333333333333333],horizontal,"(390.0, 262.0)",1.4666666666666666,0.294,1,6611.883,1
0,443,target,"[(1110, 771)]",[],[1],[0.6333333333333333],vertical,"(890.0, 762.0)",1.1,0.595,1,6616.641,2
0,444,target,"[(1110, 795)]",[],[1],[0.6166666666666667],horizontal,"(890.0, 762.0)",0.9,0.573,1,6622.268,2
0,445,target,"[(1104, 786)]",[],[1],[0.55],horizontal,"(890.0, 262.0)",0.8833333333333333,0.509,1,6627.751,2
0,446,target,"[(1116, 790)]",[],[1],[0.85],vertical,"(390.0, 762.0)",0.7166666666666667,nan,0,6633.167,0
0,447,target,"[(1073, 777)]",[],[1],[0.85],horizontal,"(390.0, 262.0)",0.9166666666666666,nan,0,6637.626,0
0,448,target,"[(1080, 787)]",[],[1],[0.25],vertical,"(890.0, 762.0)",1.45,0.212,1,6642.283,1
0,449,target,"[(1104, 781)]",[],[1],[0.75],vertical,"(390.0, 762.0)",1.0166666666666666,0.699,1,6647.65,1
0,450,target,"[(1120, 781)]",[],[1],[0.3],horizontal,"(890.0, 762.0)",1.3833333333333333,0.265,1,6652.752,1
0,451,target,"[(1108, 809)]",[],[1],[],horizontal,"(890.0, 262.0)",,"('cti', 1.077)",0,6657.649,0
0,452,target,"[(1100, 774)]",[],[1],[0.26666666666666666],vertical,"(890.0, 262.0)",1.3833333333333333,0.229,1,6662.026,1
0,453,target,"[(1105, 796)]",[],[1],[0.85],vertical,"(890.0, 262.0)",0.5333333333333333,nan,0,6666.635,0
0,454,target,"[(1072, 776)]",[],[1],[0.55],horizontal,"(890.0, 762.0)",1.0666666666666667,0.507,1,6671.287,1
0,455,catch,"[(1102, 765)]",[],[1],[],horizontal,"(390.0, 762.0)",1.6,nan,1,6676.493,1
0,456,target,"[(1110, 769)]",[],[1],[],vertical,"(890.0, 262.0)",,"('cti', 1.14)",0,6681.384,0
0,457,target,"[(1103, 767)]",[],[1],[0.3],vertical,"(890.0, 762.0)",1.35,0.264,1,6685.151,1
0,458,target,"[(1102, 771)]",[],[1],[0.5833333333333334],vertical,"(390.0, 262.0)",0.5333333333333333,0.544,1,6689.993,1
0,459,target,"[(1125, 769)]",[],[1],[0.85],horizontal,"(390.0, 262.0)",0.7333333333333333,nan,0,6694.736,0
0,460,target,"[(1072, 768)]",[],[1],[0.6833333333333333],horizontal,"(390.0, 262.0)",1.15,0.642,1,6699.07,1
0,461,target,"[(1127, 781)]",[],[1],[0.6833333333333333],horizontal,"(890.0, 762.0)",0.5666666666666667,0.638,1,6704.135,1
0,462,target,"[(1105, 796)]",[],[1],[0.85],vertical,"(390.0, 762.0)",0.9833333333333333,nan,0,6708.829,0
0,463,target,"[(1082, 806)]",[],[1],[0.5333333333333333],vertical,"(890.0, 262.0)",0.8666666666666667,0.489,1,6713.452,1
0,464,target,"[(1110, 791)]",[],[1],[0.35],vertical,"(890.0, 262.0)",1.4333333333333333,0.31,1,6718.652,1
0,465,target,"[(1110, 764)]",[],[1],[0.5666666666666667],vertical,"(390.0, 762.0)",1.1166666666666667,0.519,1,6723.692,1
0,466,catch,"[(1119, 779)]",[],[1],[],vertical,"(390.0, 762.0)",1.6,nan,1,6728.609,2
0,467,target,"[(1100, 775)]",[],[1],[0.5666666666666667],horizontal,"(890.0, 262.0)",0.6333333333333333,0.522,1,6734.048,2
0,468,target,"[(1112, 782)]",[],[1],[0.5166666666666666],vertical,"(390.0, 762.0)",1.3333333333333333,0.478,1,6739.407,2
0,469,target,"[(1128, 783)]",[],[1],[0.05],vertical,"(890.0, 762.0)",1.5166666666666666,0.019,0,6744.864,0
0,470,target,"[(1105, 786)]",[],[1],[0.7],horizontal,"(390.0, 762.0)",0.6166666666666667,0.657,1,6749.726,1
0,471,target,"[(1128, 766)]",[],[1],[0.4166666666666667],vertical,"(890.0, 762.0)",1.35,0.379,1,6754.634,1
0,472,target,"[(1102, 786)]",[],[1],[0.5666666666666667],horizontal,"(390.0, 762.0)",0.5833333333333334,0.527,1,6759.985,1
0,473,target,"[(1105, 783)]",[],[1],[0.25],vertical,"(390.0, 762.0)",1.45,0.211,1,6764.234,2
0,474,target,"[(1105, 800)]",[],[1],[0.5833333333333334],vertical,"(390.0, 762.0)",1.1333333333333333,0.55,1,6769.929,2
0,475,target,"[(1124, 780)]",[],[1],[0.5],horizontal,"(890.0, 262.0)",1.0166666666666666,0.461,1,6775.697,2
0,476,target,"[(1124, 788)]",[],[1],[0.18333333333333332],horizontal,"(390.0, 762.0)",1.4833333333333334,0.152,0,6780.757,0
0,477,catch,"[(1080, 801)]",[],[1],[],vertical,"(890.0, 762.0)",1.6,nan,1,6785.567,1
0,478,target,"[(1076, 775)]",[],[1],[0.4166666666666667],horizontal,"(890.0, 762.0)",1.45,0.377,1,6790.385,1
0,479,target,"[(1093, 774)]",[],[1],[0.7],vertical,"(890.0, 262.0)",0.9166666666666666,0.655,1,6795.685,1
0,480,target,"[(1080, 812)]",[],[1],[0.5833333333333334],vertical,"(890.0, 762.0)",0.9333333333333333,0.546,1,6800.335,2
0,481,target,"[(1110, 776)]",[],[1],[0.08333333333333333],vertical,"(890.0, 762.0)",1.1666666666666667,0.051,0,6806.185,0
0,482,target,"[(1060, 787)]",[],[1],[0.45],horizontal,"(890.0, 762.0)",1.3,0.407,1,6810.069,1
0,483,catch,"[(1100, 806)]",[],[1],[],vertical,"(890.0, 262.0)",,"('cti', 1.427),nan",0,6815.635,0
0,484,target,"[(1062, 769)]",[],[1],[0.55],horizontal,"(890.0, 262.0)",0.7,0.506,1,6820.189,1
0,485,catch,"[(1080, 777)]",[],[1],[],vertical,"(390.0, 762.0)",1.6,nan,1,6825.001,1
0,486,target,"[(1081, 792)]",[],[1],[0.5666666666666667],horizontal,"(890.0, 262.0)",1.25,0.522,1,6829.968,1
0,487,target,"[(1072, 789)]",[],[1],"[0.85, 0.85]",vertical,"(390.0, 762.0)",1.1833333333333333,"0.798,nan",0,6835.164,0
0,488,target,"[(1065, 781)]",[],[1],[0.6166666666666667],vertical,"(890.0, 762.0)",0.75,0.57,1,6840.486,1
0,489,catch,"[(1107, 761)]",[],[1],[],vertical,"(390.0, 762.0)",1.6,nan,1,6844.919,1
0,490,target,"[(1081, 759)]",[],[1],[0.65],vertical,"(390.0, 262.0)",0.95,0.605,1,6850.317,1
0,491,target,"[(1106, 780)]",[],[1],[0.85],vertical,"(890.0, 762.0)",0.95,nan,0,6855.148,0
0,492,target,"[(1080, 776)]",[],[1],[0.5333333333333333],vertical,"(390.0, 262.0)",1.2166666666666666,0.491,1,6859.767,1
0,493,target,"[(1119, 763)]",[],[1],[0.65],horizontal,"(390.0, 262.0)",1.0833333333333333,0.619,1,6864.903,1
0,494,target,"[(1082, 803)]",[],[1],[0.85],vertical,"(390.0, 762.0)",1.0333333333333332,nan,0,6870.022,0
0,495,target,"[(1073, 799)]",[],[1],[0.85],vertical,"(390.0, 762.0)",1.35,nan,0,6874.467,0
0,496,target,"[(1081, 796)]",[],[1],[0.5833333333333334],horizontal,"(890.0, 762.0)",0.6833333333333333,0.539,1,6879.665,1
0,497,target,"[(1108, 792)]",[],[1],[],horizontal,"(890.0, 762.0)",,"('cti', 1.474)",0,6924.753,0
0,498,target,"[(1115, 806)]",[],[1],[0.7666666666666666],horizontal,"(390.0, 762.0)",0.85,0.72,1,6929.42,1
0,499,target,"[(1114, 791)]",[],[1],[0.36666666666666664],horizontal,"(390.0, 762.0)",1.3666666666666667,0.333,1,6934.207,1
0,500,target,"[(1109, 778)]",[],[1],[0.85],vertical,"(890.0, 762.0)",0.6666666666666666,nan,0,6938.856,0
0,501,target,"[(1081, 781)]",[],[1],[],vertical,"(390.0, 762.0)",,"('cti', 1.533)",0,6943.529,0
0,502,target,"[(1062, 766)]",[],[1],[0.35],horizontal,"(390.0, 262.0)",1.3166666666666667,0.314,1,6948.426,1
0,503,catch,"[(1078, 773)]",[],[1],[],horizontal,"(890.0, 262.0)",1.6,nan,1,6953.433,1
0,504,target,"[(1110, 781)]",[],[1],[0.13333333333333333],horizontal,"(890.0, 262.0)",1.55,0.102,0,6958.741,0
0,505,target,"[(1076, 776)]",[],[1],[0.65],horizontal,"(390.0, 262.0)",0.6833333333333333,0.615,1,6963.685,1
0,506,catch,"[(1110, 759)]",[],[1],[],horizontal,"(390.0, 262.0)",,"('cti', 1.288),nan",0,6968.619,0
0,507,target,"[(1076, 795)]",[],[1],[0.55],vertical,"(890.0, 762.0)",0.9666666666666667,0.513,1,6973.202,1
0,508,target,"[(1114, 782)]",[],[1],[0.55],vertical,"(890.0, 762.0)",0.6,0.511,1,6977.965,1
0,509,target,"[(1103, 786)]",[],[1],[0.6666666666666666],horizontal,"(890.0, 262.0)",0.7833333333333333,0.625,1,6983.196,1
0,510,target,"[(1120, 786)]",[],[1],[0.6],vertical,"(890.0, 762.0)",0.8333333333333334,0.561,1,6988.286,2
0,511,target,"[(1112, 781)]",[],[1],[0.85],vertical,"(390.0, 262.0)",0.6833333333333333,nan,0,6993.685,0
0,512,target,"[(1081, 790)]",[],[1],[0.5833333333333334],vertical,"(390.0, 262.0)",0.7166666666666667,0.545,1,6997.87,1
0,513,target,"[(1125, 776)]",[],[1],[0.45],horizontal,"(390.0, 262.0)",1.4,0.412,1,7002.652,1
0,514,target,"[(1114, 769)]",[],[1],[0.5333333333333333],vertical,"(890.0, 262.0)",1.0333333333333332,0.493,1,7007.968,1
0,515,target,"[(1110, 781)]",[],[1],[0.5],horizontal,"(890.0, 262.0)",1.3333333333333333,0.46,1,7012.726,2
0,516,target,"[(1114, 789)]",[],[1],[0.5666666666666667],vertical,"(890.0, 762.0)",0.95,0.527,1,7018.503,2
0,517,target,"[(1120, 788)]",[],[1],[0.85],vertical,"(390.0, 762.0)",0.6,nan,0,7023.667,0
0,518,target,"[(1071, 778)]",[],[1],[0.5166666666666666],horizontal,"(890.0, 262.0)",1.3333333333333333,0.477,1,7027.862,1
0,519,catch,"[(1124, 764)]",[],[1],[],vertical,"(390.0, 762.0)",1.6,nan,1,7033.204,1
0,520,target,"[(1081, 770)]",[],[1],[0.6],vertical,"(890.0, 262.0)",0.55,0.556,1,7038.287,1
0,521,target,"[(1113, 779)]",[],[1],[0.25],horizontal,"(390.0, 262.0)",1.6166666666666667,0.215,1,7042.719,2
0,522,target,"[(1114, 762)]",[],[1],[0.65],horizontal,"(390.0, 262.0)",0.9,0.604,1,7048.153,2
0,523,target,"[(1089, 768)]",[],[1],[0.1],horizontal,"(390.0, 762.0)",1.6333333333333333,0.068,0,7053.054,0
0,524,catch,"[(1076, 800)]",[],[1],[],vertical,"(890.0, 262.0)",1.6,nan,1,7058.143,1
0,525,catch,"[(1115, 773)]",[],[1],[],horizontal,"(390.0, 262.0)",1.6,nan,1,7062.949,1
0,526,target,"[(1107, 774)]",[],[1],[0.6333333333333333],vertical,"(890.0, 262.0)",1.0666666666666667,0.596,1,7067.716,1
0,527,target,"[(1081, 761)]",[],[1],[0.8166666666666667],horizontal,"(390.0, 762.0)",0.9,0.78,1,7072.852,2
0,528,target,"[(1110, 765)]",[],[1],[0.6333333333333333],horizontal,"(390.0, 762.0)",0.8166666666666667,0.588,1,7078.522,2
0,529,target,"[(1123, 795)]",[],[1],[0.6],vertical,"(390.0, 262.0)",1.1666666666666667,0.566,1,7083.92,2
0,530,catch,"[(1105, 756)]",[],[1],[],vertical,"(390.0, 762.0)",1.6,nan,1,7089.461,2
0,531,target,"[(1118, 772)]",[],[1],[0.43333333333333335],vertical,"(890.0, 262.0)",1.5166666666666666,0.394,1,7095.294,2
0,532,target,"[(1111, 769)]",[],[1],[0.18333333333333332],horizontal,"(890.0, 262.0)",1.6166666666666667,0.152,0,7100.922,0
0,533,target,"[(1103, 776)]",[],[1],[0.6],vertical,"(390.0, 762.0)",0.9333333333333333,0.568,1,7106.228,1
0,534,target,"[(1100, 808)]",[],[1],[0.85],horizontal,"(890.0, 762.0)",0.6666666666666666,nan,0,7110.8,0
0,535,target,"[(1076, 776)]",[],[1],[],vertical,"(890.0, 262.0)",,"('cti', 1.247)",0,7114.978,0
0,536,target,"[(1072, 790)]",[],[1],[0.45],horizontal,"(390.0, 762.0)",1.5,0.418,1,7119.335,1
0,537,catch,"[(1111, 764)]",[],[1],[],horizontal,"(390.0, 762.0)",1.6,nan,1,7124.687,1
0,538,target,"[(1080, 781)]",[],[1],[0.55],horizontal,"(890.0, 262.0)",1.35,0.507,1,7129.244,1
0,539,catch,"[(1110, 766)]",[],[1],[],horizontal,"(390.0, 762.0)",1.6,nan,1,7134.726,2
0,540,target,"[(1107, 764)]",[],[1],[],horizontal,"(390.0, 262.0)",,"('cti', 1.438)",0,7139.837,0
0,541,catch,"[(1108, 785)]",[],[1],[],horizontal,"(890.0, 762.0)",1.6,nan,1,7144.579,1
0,542,target,"[(1116, 785)]",[],[1],[0.5833333333333334],vertical,"(390.0, 762.0)",1.1,0.537,1,7149.637,1
0,543,target,"[(1120, 786)]",[],[1],[0.6333333333333333],vertical,"(390.0, 762.0)",0.6666666666666666,0.595,1,7154.527,1
0,544,target,"[(1089, 800)]",[],[1],[0.55],vertical,"(390.0, 262.0)",0.75,0.508,1,7159.497,2
0,545,target,"[(1120, 771)]",[],[1],[0.65],horizontal,"(890.0, 262.0)",0.6,0.608,1,7164.82,2
0,546,target,"[(1113, 779)]",[],[1],[0.3],horizontal,"(890.0, 262.0)",1.6,0.268,1,7169.604,2
0,547,target,"[(1107, 770)]",[],[1],[0.3333333333333333],vertical,"(390.0, 762.0)",1.4666666666666666,0.295,1,7175.139,2
0,548,target,"[(1111, 776)]",[],[1],[0.18333333333333332],vertical,"(390.0, 262.0)",1.6333333333333333,0.149,0,7180.623,0
0,549,target,"[(1062, 753), (1082, 778)]",[],"[0, 1]",[0.3],vertical,"(890.0, 762.0)",1.5333333333333332,0.262,1,7185.27,1
0,550,catch,"[(1104, 770)]",[],[1],[],vertical,"(890.0, 262.0)",1.6,nan,1,7191.699,1
0,551,target,"[(1105, 778)]",[],[1],[0.5666666666666667],horizontal,"(890.0, 762.0)",1.0,0.52,1,7197.069,1
0,552,target,"[(1100, 779)]",[],[1],[0.6166666666666667],vertical,"(390.0, 262.0)",1.0333333333333332,0.578,1,7202.238,2
0,553,target,"[(1111, 768)]",[],[1],[0.6],horizontal,"(890.0, 262.0)",1.2166666666666666,0.558,1,7207.754,2
0,554,target,"[(1083, 795)]",[],[1],[0.55],vertical,"(890.0, 262.0)",1.2833333333333332,0.51,1,7213.587,2
0,555,target,"[(1082, 771)]",[],[1],[0.5666666666666667],vertical,"(390.0, 762.0)",0.5166666666666666,0.525,1,7219.218,2
0,556,target,"[(1111, 768)]",[],[1],[0.85],vertical,"(390.0, 762.0)",0.9166666666666666,nan,0,7223.938,0
0,557,catch,"[(1101, 781)]",[],[1],[],vertical,"(890.0, 262.0)",1.6,nan,1,7228.957,1
0,558,target,"[(1100, 799)]",[],[1],[0.48333333333333334],vertical,"(890.0, 762.0)",1.1833333333333333,0.452,1,7233.505,1
0,559,target,"[(1115, 769)]",[],[1],[0.7],vertical,"(890.0, 262.0)",1.6166666666666667,0.66,1,7238.854,1
0,560,catch,"[(1107, 786)]",[],[1],[],horizontal,"(890.0, 762.0)",1.6,nan,1,7244.324,2
0,561,target,"[(1112, 768)]",[],[1],[0.3],vertical,"(890.0, 762.0)",1.5,0.267,1,7249.906,2
0,562,target,"[(1108, 796)]",[],[1],[0.26666666666666666],horizontal,"(890.0, 262.0)",1.5166666666666666,0.227,1,7255.264,2
0,563,catch,"[(1129, 774)]",[],[1],[],horizontal,"(390.0, 262.0)",1.6,nan,1,7261.087,2
0,564,target,"[(1110, 800)]",[],[1],[0.4666666666666667],horizontal,"(890.0, 262.0)",1.3166666666666667,0.426,1,7266.279,2
0,565,target,"[(1110, 796)]",[],[1],[0.3833333333333333],horizontal,"(890.0, 262.0)",1.4833333333333334,0.345,1,7271.805,3
0,566,target,"[(1100, 766)]",[],[1],[0.7666666666666666],vertical,"(890.0, 762.0)",0.5166666666666666,0.725,1,7277.57,3
0,567,target,"[(1111, 778)]",[],[1],[0.5833333333333334],vertical,"(890.0, 762.0)",0.8666666666666667,0.543,1,7283.163,3
0,568,target,"[(1096, 806)]",[],[1],[0.7166666666666667],vertical,"(390.0, 762.0)",0.6666666666666666,0.67,1,7288.705,3
0,569,target,"[(1105, 795)]",[],[1],[0.16666666666666666],horizontal,"(890.0, 762.0)",1.5833333333333333,0.132,0,7294.404,0
0,570,catch,"[(1086, 796)]",[],[1],[],horizontal,"(890.0, 762.0)",1.6,nan,1,7299.184,1
0,571,catch,"[(1109, 770)]",[],[1],[],horizontal,"(390.0, 762.0)",1.6,nan,1,7303.854,1
0,572,target,"[(1076, 801)]",[],[1],[0.48333333333333334],vertical,"(890.0, 762.0)",1.0833333333333333,0.442,1,7308.607,1
0,573,target,"[(1106, 764)]",[],[1],[0.5166666666666666],vertical,"(390.0, 262.0)",1.25,0.481,1,7313.505,2
0,574,target,"[(1114, 774)]",[],[1],[0.65],horizontal,"(890.0, 762.0)",1.2833333333333332,0.607,1,7318.844,2
0,575,target,"[(1108, 796)]",[],[1],[0.85],vertical,"(890.0, 762.0)",0.6166666666666667,nan,0,7324.387,0
0,576,catch,"[(1066, 766)]",[],[1],[],vertical,"(890.0, 262.0)",1.6,nan,1,7328.616,1
0,577,target,"[(1092, 762)]",[],[1],[0.35],horizontal,"(390.0, 762.0)",1.3,0.312,1,7333.404,1
0,578,target,"[(1094, 747), (1072, 779)]",[],"[0, 1]",[0.43333333333333335],vertical,"(390.0, 262.0)",1.1166666666666667,0.394,1,7338.341,1
0,579,target,"[(1125, 771)]",[],[1],[0.45],vertical,"(390.0, 762.0)",1.4666666666666666,0.411,1,7344.989,2
0,580,target,"[(1105, 762)]",[],[1],[0.5833333333333334],vertical,"(390.0, 762.0)",1.35,0.543,1,7350.29,2
0,581,target,"[(1127, 762)]",[],[1],[0.6],vertical,"(890.0, 262.0)",1.0666666666666667,0.559,1,7355.723,2
0,582,target,"[(1115, 770)]",[],[1],[0.7666666666666666],horizontal,"(890.0, 262.0)",0.9,0.721,1,7360.805,2
0,583,target,"[(1067, 781)]",[],[1],[0.48333333333333334],horizontal,"(890.0, 262.0)",1.4833333333333334,0.444,1,7366.438,2
0,584,target,"[(1129, 784)]",[],[1],[0.35],horizontal,"(390.0, 262.0)",1.6333333333333333,0.311,1,7372.572,3
0,585,target,"[(1105, 762)]",[],[1],[0.5166666666666666],horizontal,"(890.0, 262.0)",0.5166666666666666,0.473,1,7378.421,3
0,586,target,"[(1113, 779)]",[],[1],[0.43333333333333335],vertical,"(390.0, 262.0)",1.5,0.401,1,7383.338,3
0,587,target,"[(1107, 790)]",[],[1],[0.2833333333333333],horizontal,"(390.0, 762.0)",1.3666666666666667,0.244,1,7389.538,3
0,588,target,"[(1110, 791)]",[],[1],[],horizontal,"(890.0, 762.0)",,"('cti', 1.24)",0,7395.672,0
0,589,catch,"[(1108, 796)]",[],[1],[],vertical,"(890.0, 262.0)",1.6,nan,1,7400.123,1
0,590,target,"[(1111, 770)]",[],[1],[0.55],vertical,"(390.0, 262.0)",1.1,0.51,1,7404.89,1
0,591,target,"[(1111, 761)]",[],[1],[0.55],horizontal,"(890.0, 762.0)",0.9333333333333333,0.513,1,7409.671,1
0,592,target,"[(1076, 770)]",[],[1],[0.6],horizontal,"(390.0, 762.0)",0.8166666666666667,0.566,1,7414.506,2
0,593,target,"[(1084, 769)]",[],[1],[0.31666666666666665],horizontal,"(390.0, 762.0)",1.5166666666666666,0.279,1,7419.616,2
0,594,target,"[(1122, 790)]",[],[1],[],vertical,"(390.0, 262.0)",,"('cti', 1.192)",0,7425.071,0
0,595,target,"[(1091, 778)]",[],[1],[0.65],horizontal,"(890.0, 762.0)",0.6,0.619,1,7429.666,1
0,596,target,"[(1109, 766)]",[],[1],[0.5333333333333333],horizontal,"(390.0, 762.0)",0.9666666666666667,0.499,1,7434.086,1
0,597,target,"[(1110, 764)]",[],[1],[0.85],vertical,"(890.0, 762.0)",0.5166666666666666,nan,0,7439.104,0
0,598,catch,"[(1067, 781)]",[],[1],[],horizontal,"(390.0, 762.0)",1.6,nan,1,7443.806,1
0,599,target,"[(1107, 767)]",[],[1],[0.6333333333333333],vertical,"(890.0, 262.0)",0.85,0.585,1,7448.805,1
0,600,target,"[(1105, 765)]",[],[1],[0.6],horizontal,"(390.0, 262.0)",0.7833333333333333,0.556,1,7453.6,1
0,601,target,"[(1114, 772)]",[],[1],[0.5166666666666666],horizontal,"(890.0, 262.0)",0.9666666666666667,0.476,1,7458.154,2
0,602,target,"[(1120, 779)]",[],[1],[0.55],horizontal,"(390.0, 262.0)",0.5,0.509,1,7463.738,2
0,603,target,"[(1123, 772)]",[],[1],[0.23333333333333334],vertical,"(390.0, 262.0)",1.65,0.2,1,7468.323,2
0,604,target,"[(1108, 787)]",[],[1],[],vertical,"(890.0, 762.0)",,"('cti', 1.082)",0,7473.807,0
0,605,target,"[(1116, 789)]",[],[1],[0.5],horizontal,"(390.0, 262.0)",1.4333333333333333,0.455,1,7478.449,1
0,606,target,"[(1127, 785)]",[],[1],[0.7],horizontal,"(390.0, 762.0)",0.9666666666666667,0.659,1,7483.656,1
0,607,target,"[(1111, 765)]",[],[1],[0.4166666666666667],vertical,"(390.0, 262.0)",1.3,0.373,1,7488.688,1
0,608,target,"[(1098, 788)]",[],[1],[0.5166666666666666],vertical,"(390.0, 762.0)",1.0333333333333332,0.477,1,7494.096,2
0,609,target,"[(1103, 763)]",[],[1],[0.65],horizontal,"(390.0, 262.0)",0.8,0.606,1,7499.273,2
0,610,target,"[(1109, 758)]",[],[1],[0.16666666666666666],vertical,"(390.0, 262.0)",1.5333333333333332,0.135,0,7504.298,0
0,611,target,"[(1096, 800)]",[],[1],[0.6],vertical,"(390.0, 262.0)",1.4,0.558,1,7509.305,1
0,612,target,"[(1110, 781)]",[],[1],[0.5166666666666666],horizontal,"(390.0, 762.0)",1.0,0.473,1,7514.479,1
0,613,target,"[(1110, 771)]",[],[1],[0.11666666666666667],vertical,"(890.0, 762.0)",1.65,0.086,0,7519.672,0
0,614,target,"[(1062, 789)]",[],[1],[0.6],horizontal,"(390.0, 762.0)",0.7166666666666667,0.556,1,7524.307,1
0,615,target,"[(1096, 798)]",[],[1],[0.6166666666666667],vertical,"(390.0, 762.0)",0.8166666666666667,0.573,1,7552.207,1
0,616,target,"[(1111, 799)]",[],[1],[0.31666666666666665],vertical,"(390.0, 262.0)",1.3833333333333333,0.281,1,7556.822,1
0,617,target,"[(1119, 803)]",[],[1],[0.08333333333333333],horizontal,"(390.0, 762.0)",1.3333333333333333,0.052,0,7561.645,0
0,618,target,"[(1103, 801)]",[],[1],[0.5],vertical,"(390.0, 262.0)",1.3166666666666667,0.457,1,7566.058,1
0,619,catch,"[(1063, 801)]",[],[1],[],horizontal,"(890.0, 262.0)",,"('cti', 1.423),nan",0,7571.195,0
0,620,target,"[(1087, 789)]",[],[1],[0.55],horizontal,"(890.0, 762.0)",1.0833333333333333,0.509,1,7577.866,1
0,621,target,"[(1076, 800)]",[],[1],[0.7],horizontal,"(890.0, 762.0)",1.0166666666666666,0.653,1,7582.648,1
0,622,catch,"[(1100, 800)]",[],[1],[],vertical,"(890.0, 262.0)",1.6,nan,1,7588.189,1
0,623,target,"[(1107, 796)]",[],[1],[0.6833333333333333],horizontal,"(390.0, 762.0)",0.5333333333333333,0.637,1,7593.114,2
0,624,target,"[(1105, 796)]",[],[1],[0.15],horizontal,"(890.0, 762.0)",1.6,0.116,0,7598.242,0
0,625,catch,"[(1088, 798)]",[],[1],[],vertical,"(390.0, 762.0)",1.6,nan,1,7603.289,1
0,626,target,"[(1110, 772)]",[],[1],[0.48333333333333334],horizontal,"(890.0, 262.0)",1.2,0.444,1,7608.024,1
0,627,catch,"[(1082, 796)]",[],[1],[],horizontal,"(390.0, 262.0)",1.6,nan,1,7613.524,1
0,628,target,"[(1105, 811)]",[],[1],[0.6833333333333333],horizontal,"(390.0, 262.0)",0.5,0.637,1,7618.79,2
0,629,catch,"[(1096, 798)]",[],[1],[],horizontal,"(390.0, 762.0)",1.6,nan,1,7623.696,2
0,630,target,"[(1105, 800)]",[],[1],[0.65],horizontal,"(390.0, 762.0)",0.5333333333333333,0.603,1,7629.004,2
0,631,target,"[(1105, 778)]",[],[1],[0.55],horizontal,"(890.0, 262.0)",1.2833333333333332,0.507,1,7634.265,2
0,632,target,"[(1104, 795)]",[],[1],[0.45],horizontal,"(890.0, 262.0)",1.3,0.411,1,7639.496,2
0,633,target,"[(1094, 770)]",[],[1],[0.5166666666666666],horizontal,"(890.0, 762.0)",0.8,0.481,1,7645.132,3
0,634,target,"[(1100, 799)]",[],[1],[],horizontal,"(890.0, 762.0)",,"('cti', 1.254)",0,7651.043,0
0,635,target,"[(1103, 775)]",[],[1],[0.3833333333333333],vertical,"(890.0, 762.0)",1.4833333333333334,0.348,1,7655.623,1
0,636,target,"[(1105, 772)]",[],[1],[0.4],vertical,"(390.0, 762.0)",1.2666666666666666,0.358,1,7660.806,1
0,637,target,"[(1126, 782)]",[],[1],[0.3833333333333333],horizontal,"(890.0, 262.0)",1.2666666666666666,0.344,1,7665.624,1
0,638,target,"[(1082, 766)]",[],[1],[0.5333333333333333],vertical,"(890.0, 762.0)",0.85,0.493,1,7670.624,2
0,639,target,"[(1081, 773)]",[],[1],[0.36666666666666664],vertical,"(890.0, 262.0)",1.3833333333333333,0.332,1,7675.445,2
0,640,target,"[(1117, 789)]",[],[1],[0.4],horizontal,"(390.0, 262.0)",1.2,0.362,1,7681.138,2
0,641,target,"[(1105, 774)]",[],[1],[0.6333333333333333],horizontal,"(890.0, 262.0)",0.7666666666666666,0.587,1,7686.674,2
0,642,target,"[(1105, 796)]",[],[1],[0.23333333333333334],vertical,"(890.0, 262.0)",1.5,0.199,0,7691.407,0
0,643,catch,"[(1087, 796)]",[],[1],[],vertical,"(890.0, 262.0)",1.6,nan,1,7696.107,1
0,644,target,"[(1079, 790)]",[],[1],[0.5833333333333334],vertical,"(890.0, 762.0)",0.5666666666666667,0.54,1,7700.84,1
0,645,target,"[(1105, 790)]",[],[1],[0.6666666666666666],horizontal,"(890.0, 262.0)",0.7,0.619,1,7706.506,1
0,646,catch,"[(1105, 781)]",[],[1],[],horizontal,"(890.0, 762.0)",1.6,nan,1,7711.39,2
0,647,target,"[(1115, 781)]",[],[1],[0.85],horizontal,"(890.0, 762.0)",0.5333333333333333,nan,0,7716.555,0
0,648,target,"[(1082, 797)]",[],[1],[0.7166666666666667],horizontal,"(890.0, 762.0)",0.6166666666666667,0.667,1,7720.892,1
0,649,target,"[(1104, 785)]",[],[1],[0.85],vertical,"(390.0, 262.0)",0.9166666666666666,nan,0,7725.366,0
0,650,target,"[(1100, 802)]",[],[1],[0.55],vertical,"(890.0, 762.0)",0.8166666666666667,0.504,1,7729.774,1
0,651,target,"[(1129, 777)]",[],[1],[0.25],horizontal,"(890.0, 762.0)",1.5,0.214,1,7734.656,1
0,652,target,"[(1105, 768)]",[],[1],[0.55],horizontal,"(390.0, 262.0)",1.3833333333333333,0.512,1,7740.033,1
0,653,target,"[(1108, 783)]",[],[1],[0.3833333333333333],vertical,"(890.0, 262.0)",1.3666666666666667,0.345,1,7744.992,2
0,654,target,"[(1103, 765)]",[],[1],[0.5666666666666667],vertical,"(890.0, 762.0)",0.6666666666666666,0.53,1,7750.274,2
0,655,target,"[(1108, 781)]",[],[1],[0.31666666666666665],horizontal,"(390.0, 262.0)",1.6333333333333333,0.275,1,7755.072,2
0,656,target,"[(1112, 774)]",[],[1],[0.45],horizontal,"(390.0, 262.0)",1.15,0.411,1,7760.39,2
0,657,target,"[(1105, 790)]",[],[1],[0.6666666666666666],vertical,"(390.0, 762.0)",1.1,0.622,1,7765.819,2
0,658,target,"[(1100, 787)]",[],[1],[0.55],horizontal,"(390.0, 762.0)",1.0,0.511,1,7771.534,3
0,659,target,"[(1103, 778)]",[],[1],[0.48333333333333334],horizontal,"(390.0, 262.0)",1.2,0.443,1,7777.455,3
0,660,catch,"[(1113, 789)]",[],[1],[],horizontal,"(890.0, 262.0)",1.6,nan,1,7783.372,3
0,661,target,"[(1100, 770)]",[],[1],[0.6333333333333333],vertical,"(890.0, 762.0)",1.1333333333333333,0.595,1,7789.082,3
0,662,target,"[(1103, 788)]",[],[1],[0.6333333333333333],horizontal,"(390.0, 262.0)",0.9,0.59,1,7795.008,3
0,663,target,"[(1123, 786)]",[],[1],[0.6],vertical,"(890.0, 262.0)",0.7,0.554,1,7801.039,3
0,664,target,"[(1108, 785)]",[],[1],[0.3833333333333333],vertical,"(390.0, 762.0)",1.3833333333333333,0.348,1,7806.224,3
0,665,target,"[(1100, 782)]",[],[1],[0.2],horizontal,"(890.0, 762.0)",1.5166666666666666,0.17,0,7812.316,0
0,666,catch,"[(1100, 795)]",[],[1],[],vertical,"(390.0, 262.0)",1.6,nan,1,7817.576,1
0,667,catch,"[(1106, 788)]",[],[1],[],horizontal,"(890.0, 262.0)",,"('cti', 1.502),nan",0,7822.156,0
0,668,target,"[(1108, 776)]",[],[1],[0.35],horizontal,"(390.0, 762.0)",1.5166666666666666,0.313,1,7827.05,1
0,669,target,"[(1100, 795)]",[],[1],[0.6],horizontal,"(890.0, 762.0)",0.8166666666666667,0.559,1,7832.014,1
0,670,target,"[(1124, 779)]",[],[1],[0.7],vertical,"(390.0, 262.0)",0.5666666666666667,0.651,1,7836.484,1
0,671,target,"[(1105, 772)]",[],[1],[0.5333333333333333],horizontal,"(390.0, 262.0)",1.2833333333333332,0.494,1,7840.942,2
0,672,target,"[(1104, 769)]",[],[1],[0.45],horizontal,"(390.0, 762.0)",1.1333333333333333,0.407,1,7846.342,2
0,673,target,"[(1131, 769)]",[],[1],[0.6],vertical,"(890.0, 762.0)",0.7833333333333333,0.562,1,7851.758,2
0,674,target,"[(1097, 796)]",[],[1],[0.48333333333333334],horizontal,"(390.0, 262.0)",1.5833333333333333,0.438,1,7856.957,2
0,675,target,"[(1110, 791)]",[],[1],[0.05],horizontal,"(390.0, 762.0)",1.6166666666666667,0.019,0,7862.358,0
0,676,target,"[(1072, 780)]",[],[1],[0.26666666666666666],horizontal,"(390.0, 262.0)",1.4666666666666666,0.231,1,7867.152,1
0,677,target,"[(1110, 781)]",[],[1],[0.7],vertical,"(890.0, 262.0)",0.6333333333333333,0.655,1,7872.091,1
0,678,target,"[(1105, 771)]",[],[1],[0.5],horizontal,"(890.0, 262.0)",1.2833333333333332,0.462,1,7876.784,1
0,679,target,"[(1093, 760)]",[],[1],[0.35],vertical,"(890.0, 262.0)",1.3,0.315,1,7881.774,2
0,680,target,"[(1084, 771)]",[],[1],[0.6],vertical,"(890.0, 762.0)",0.55,0.558,1,7887.429,2
0,681,target,"[(1083, 785)]",[],[1],[],horizontal,"(390.0, 762.0)",,"('cti', 1.592)",0,7892.513,0
0,682,target,"[(1082, 788)]",[],[1],[0.5166666666666666],horizontal,"(890.0, 262.0)",1.25,0.476,1,7897.098,1
0,683,catch,"[(1102, 769)]",[],[1],[],horizontal,"(390.0, 262.0)",1.6,nan,1,7902.237,1
0,684,target,"[(1086, 782)]",[],[1],[0.05],vertical,"(390.0, 262.0)",1.4166666666666667,0.02,0,7907.367,0
0,685,catch,"[(1100, 797)]",[],[1],[],vertical,"(890.0, 762.0)",,"('cti', 1.545),nan",0,7911.925,0
0,686,target,"[(1103, 788)]",[],[1],[0.6333333333333333],vertical,"(390.0, 262.0)",0.7166666666666667,0.588,1,7916.62,1
0,687,target,"[(1100, 791)]",[],[1],[0.55],vertical,"(390.0, 262.0)",0.9666666666666667,0.509,1,7921.307,1
0,688,target,"[(1099, 786)]",[],[1],[0.48333333333333334],horizontal,"(390.0, 262.0)",1.05,0.444,1,7926.113,1
0,689,target,"[(1094, 783)]",[],[1],[0.55],vertical,"(890.0, 262.0)",0.75,0.507,1,7931.334,2
0,690,target,"[(1104, 782)]",[],[1],[0.6333333333333333],horizontal,"(390.0, 262.0)",0.7666666666666666,0.594,1,7936.098,2
0,691,catch,"[(1106, 786)]",[],[1],[],horizontal,"(390.0, 762.0)",,"('cti', 1.516),nan",0,7941.382,0
0,692,target,"[(1085, 800)]",[],[1],[0.4666666666666667],horizontal,"(890.0, 762.0)",1.3166666666666667,0.427,1,7946.174,1
0,693,target,"[(1120, 792)]",[],[1],[0.7333333333333333],vertical,"(890.0, 762.0)",0.7,0.689,1,7951.208,1
0,694,target,"[(1102, 788)]",[],[1],[0.15],horizontal,"(390.0, 762.0)",1.5833333333333333,0.117,0,7956.049,0
0,695,target,"[(1099, 782)]",[],[1],[0.25],vertical,"(390.0, 762.0)",1.5666666666666667,0.21,1,7960.749,1
0,696,target,"[(1115, 790)]",[],[1],[0.6],vertical,"(390.0, 262.0)",1.1666666666666667,0.569,1,7965.675,1
0,697,target,"[(1106, 769)]",[],[1],[0.3333333333333333],vertical,"(390.0, 262.0)",1.1666666666666667,0.296,1,7970.451,1
0,698,target,"[(1092, 769)]",[],[1],[0.5],horizontal,"(390.0, 762.0)",1.2333333333333334,0.469,1,7975.778,2
0,699,target,"[(1088, 768)]",[],[1],[0.23333333333333334],horizontal,"(890.0, 762.0)",1.4666666666666666,0.197,0,7981.525,0
0,700,catch,"[(1100, 768)]",[],[1],[],vertical,"(390.0, 262.0)",1.6,nan,1,7986.311,1
0,701,target,"[(1106, 775)]",[],[1],[0.85],horizontal,"(890.0, 262.0)",0.6166666666666667,nan,0,7991.288,0
0,702,target,"[(1086, 793)]",[],[1],[0.65],vertical,"(390.0, 762.0)",0.7833333333333333,0.606,1,7996.125,1
0,703,target,"[(1061, 790)]",[],[1],[0.4666666666666667],vertical,"(890.0, 762.0)",1.0166666666666666,0.434,1,8000.716,1
0,704,target,"[(1081, 800)]",[],[1],[],vertical,"(890.0, 762.0)",,"('cti', 1.299)",0,8188.412,0
0,705,target,"[(1076, 801)]",[],[1],[0.43333333333333335],vertical,"(390.0, 262.0)",1.4,0.4,1,8193.253,1
0,706,target,"[(1108, 805)]",[],[1],[0.7],horizontal,"(390.0, 762.0)",0.7833333333333333,0.654,1,8198.332,1
0,707,target,"[(1107, 770)]",[],[1],[0.3833333333333333],horizontal,"(890.0, 762.0)",1.3166666666666667,0.342,1,8202.859,1
0,708,target,"[(1114, 795)]",[],[1],[0.48333333333333334],vertical,"(890.0, 762.0)",1.1333333333333333,0.442,1,8207.942,2
0,709,target,"[(1108, 799)]",[],[1],[0.55],vertical,"(390.0, 762.0)",1.2,0.508,1,8213.429,2
0,710,target,"[(1108, 792)]",[],[1],[0.5666666666666667],horizontal,"(890.0, 262.0)",1.1333333333333333,0.527,1,8219.077,2
0,711,target,"[(1098, 781)]",[],[1],[0.85],horizontal,"(890.0, 762.0)",0.7166666666666667,nan,0,8224.637,0
0,712,target,"[(1085, 800)]",[],[1],[0.5166666666666666],vertical,"(890.0, 262.0)",1.4166666666666667,0.478,1,8229.247,1
0,713,catch,"[(1127, 776)]",[],[1],[],vertical,"(390.0, 762.0)",1.6,nan,1,8234.359,1
0,714,target,"[(1096, 779)]",[],[1],[0.6833333333333333],vertical,"(390.0, 762.0)",0.7166666666666667,0.649,1,8239.543,1
0,715,target,"[(1079, 791)]",[],[1],[0.85],horizontal,"(390.0, 762.0)",0.8,nan,0,8244.51,0
0,716,target,"[(1082, 791)]",[],[1],[0.7166666666666667],horizontal,"(390.0, 262.0)",0.75,0.672,1,8248.885,1
0,717,target,"[(1110, 782)]",[],[1],[0.6],vertical,"(890.0, 762.0)",0.8,0.565,1,8253.673,1
0,718,target,"[(1106, 774)]",[],[1],[0.6333333333333333],horizontal,"(390.0, 262.0)",0.85,0.589,1,8258.491,1
0,719,target,"[(1085, 781)]",[],[1],[0.6666666666666666],horizontal,"(390.0, 262.0)",0.5666666666666667,0.623,1,8263.023,2
0,720,target,"[(1113, 787)]",[],[1],[0.85],horizontal,"(890.0, 762.0)",0.6333333333333333,nan,0,8267.726,0
0,721,target,"[(1108, 792)]",[],[1],[0.85],vertical,"(890.0, 762.0)",1.6,"('cti', 1.593),nan",0,8271.792,0
0,722,target,"[(1112, 798)]",[],[1],[0.5333333333333333],vertical,"(390.0, 262.0)",1.15,0.494,1,8277.426,1
0,723,target,"[(1114, 799)]",[],[1],[0.5833333333333334],vertical,"(890.0, 762.0)",0.5333333333333333,0.537,1,8282.301,1
0,724,target,"[(1108, 801)]",[],[1],[],horizontal,"(890.0, 762.0)",,"('cti', 1.6)",0,8286.411,0
0,725,target,"[(1075, 800)]",[],[1],[0.5],horizontal,"(890.0, 262.0)",0.8,0.459,1,8290.926,1
0,726,target,"[(1109, 796)]",[],[1],[0.2],vertical,"(890.0, 762.0)",1.6,0.168,0,8302.087,0
0,727,target,"[(1084, 771)]",[],[1],[0.5],horizontal,"(890.0, 262.0)",0.9333333333333333,0.458,1,8306.944,1
0,728,target,"[(1110, 778)]",[],[1],[0.65],vertical,"(890.0, 262.0)",0.95,0.608,1,8311.977,1
0,729,target,"[(1123, 795)]",[],[1],[0.15],vertical,"(890.0, 762.0)",1.5333333333333332,0.118,0,8317.063,0
0,730,target,"[(1072, 806)]",[],[1],[0.16666666666666666],vertical,"(390.0, 762.0)",1.4833333333333334,0.134,0,8321.826,0
0,731,target,"[(1105, 800)]",[],[1],[0.2],horizontal,"(890.0, 262.0)",1.6166666666666667,0.168,0,8327.465,0
0,732,target,"[(1062, 800)]",[],[1],[0.4666666666666667],vertical,"(890.0, 762.0)",1.0166666666666666,0.424,1,8332.343,1
0,733,target,"[(1115, 796)]",[],[1],[0.45],horizontal,"(890.0, 762.0)",0.75,0.413,1,8337.312,1
0,734,target,"[(1122, 782)]",[],[1],[0.5166666666666666],vertical,"(890.0, 262.0)",0.8333333333333334,0.478,1,8342.178,1
0,735,target,"[(1100, 797)]",[],[1],[0.11666666666666667],vertical,"(890.0, 762.0)",1.6833333333333333,0.084,0,8346.687,0
0,736,target,"[(1066, 800)]",[],[1],[0.5833333333333334],vertical,"(890.0, 262.0)",0.9833333333333333,0.552,1,8351.6,1
0,737,target,"[(1105, 801)]",[],[1],[0.4666666666666667],horizontal,"(890.0, 262.0)",1.3166666666666667,0.43,1,8359.702,1
0,738,target,"[(1117, 800)]",[],[1],[0.48333333333333334],vertical,"(390.0, 762.0)",0.65,0.447,1,8365.161,1
0,739,target,"[(1102, 802)]",[],[1],[0.4666666666666667],horizontal,"(390.0, 262.0)",1.1666666666666667,0.425,1,8369.3,2
0,740,catch,"[(1115, 787)]",[],[1],[],horizontal,"(890.0, 262.0)",1.6,nan,1,8374.962,2
0,741,target,"[(1105, 774)]",[],[1],[0.4],vertical,"(390.0, 262.0)",1.2,0.358,1,8380.345,2
0,742,target,"[(1126, 791)]",[],[1],[],horizontal,"(890.0, 262.0)",,"('cti', 1.642)",0,8385.833,0
0,743,catch,"[(1105, 791)]",[],[1],[],vertical,"(390.0, 762.0)",1.6,"('cti', 1.593),nan",0,8390.595,0
0,744,target,"[(1056, 781)]",[],[1],[0.5833333333333334],vertical,"(390.0, 262.0)",1.0,0.552,1,8395.5,1
0,745,target,"[(1108, 786)]",[],[1],[0.6333333333333333],vertical,"(390.0, 762.0)",0.9166666666666666,0.597,1,8401.794,1
0,746,target,"[(1118, 784)]",[],[1],[0.55],horizontal,"(890.0, 262.0)",0.6333333333333333,0.51,1,8406.486,1
0,747,catch,"[(1105, 787)]",[],[1],[],horizontal,"(890.0, 262.0)",1.6,"('cti', 1.594),nan",0,8410.881,0
0,748,catch,"[(1080, 785)]",[],[1],[],horizontal,"(390.0, 262.0)",1.6,nan,1,8415.22,1
0,749,target,"[(1057, 809)]",[],[1],[0.48333333333333334],vertical,"(890.0, 762.0)",1.2833333333333332,0.451,1,8420.254,1
0,750,target,"[(1103, 799)]",[],[1],[0.06666666666666667],vertical,"(890.0, 262.0)",1.55,0.034,0,8425.438,0
0,751,target,"[(1088, 768)]",[],[1],[0.5666666666666667],vertical,"(390.0, 762.0)",0.65,0.531,1,8430.2,1
0,752,target,"[(1107, 768)]",[],[1],[0.48333333333333334],horizontal,"(890.0, 262.0)",1.15,0.45,1,8434.338,1
0,753,target,"[(1110, 782)]",[],[1],[0.5333333333333333],horizontal,"(890.0, 762.0)",0.8666666666666667,0.499,1,8439.197,1
0,754,target,"[(1117, 767)]",[],[1],[0.5333333333333333],horizontal,"(890.0, 262.0)",1.0166666666666666,0.501,1,8443.948,2
0,755,target,"[(1110, 786)]",[],[1],[0.5666666666666667],vertical,"(890.0, 262.0)",1.0666666666666667,0.534,1,8449.078,2
0,756,target,"[(1106, 777)]",[],[1],[0.65],horizontal,"(390.0, 762.0)",0.7333333333333333,0.618,1,8454.712,2
0,757,target,"[(1105, 763)]",[],[1],[0.65],horizontal,"(390.0, 762.0)",0.6666666666666666,0.607,1,8460.073,2
0,758,target,"[(1109, 777)]",[],[1],[0.6666666666666666],horizontal,"(890.0, 762.0)",1.0,0.618,1,8465.162,2
0,759,catch,"[(1115, 805)]",[],[1],[],vertical,"(890.0, 262.0)",1.6,nan,1,8470.269,3
0,760,target,"[(1095, 812)]",[],[1],[],horizontal,"(890.0, 762.0)",,"('cti', 1.605)",0,8475.851,0
0,761,catch,"[(1095, 800)]",[],[1],[],vertical,"(390.0, 762.0)",1.6,nan,1,8480.612,1
0,762,target,"[(1103, 800)]",[],[1],[0.5666666666666667],vertical,"(890.0, 262.0)",0.55,0.523,1,8485.638,1
0,763,target,"[(1124, 778)]",[],[1],[0.7],horizontal,"(390.0, 762.0)",0.7166666666666667,0.653,1,8490.401,1
0,764,target,"[(1102, 776)]",[],[1],[0.48333333333333334],horizontal,"(390.0, 262.0)",1.3333333333333333,0.441,1,8495.06,2
0,765,target,"[(1120, 776)]",[],[1],[],vertical,"(390.0, 262.0)",,"('cti', 1.525)",0,8500.745,0
0,766,target,"[(1062, 806)]",[],[1],[0.48333333333333334],vertical,"(890.0, 262.0)",1.35,0.446,1,8505.778,1
0,767,target,"[(1112, 787)]",[],[1],[0.85],horizontal,"(890.0, 762.0)",0.6,nan,0,8514.713,0
0,768,target,"[(1091, 800)]",[],[1],[0.55],vertical,"(390.0, 262.0)",1.25,0.505,1,8519.346,1
0,769,target,"[(1096, 781)]",[],[1],[0.6166666666666667],horizontal,"(390.0, 762.0)",1.1833333333333333,0.584,1,8524.454,1
0,770,target,"[(1131, 775)]",[],[1],[0.55],horizontal,"(890.0, 762.0)",0.95,0.505,1,8529.193,1
0,771,target,"[(1118, 792)]",[],[1],[0.6666666666666666],vertical,"(890.0, 262.0)",0.6,0.62,1,8534.187,2
0,772,target,"[(1110, 781)]",[],[1],[0.2],horizontal,"(390.0, 762.0)",1.2333333333333334,0.168,0,8539.012,0
0,773,target,"[(1071, 782)]",[],[1],[0.7],horizontal,"(890.0, 762.0)",0.6333333333333333,0.661,1,8543.902,1
0,774,target,"[(1108, 769)]",[],[1],[0.5],horizontal,"(890.0, 762.0)",1.3,0.465,1,8548.179,1
0,775,target,"[(1105, 795)]",[],[1],[0.7333333333333333],vertical,"(890.0, 262.0)",0.5333333333333333,0.696,1,8553.552,1
0,776,target,"[(1076, 768)]",[],[1],[0.85],vertical,"(890.0, 762.0)",0.55,nan,0,8558.049,0
0,777,target,"[(1061, 763)]",[],[1],[0.3833333333333333],horizontal,"(390.0, 762.0)",1.35,0.347,1,8562.561,1
0,778,target,"[(1107, 777)]",[],[1],[0.45],vertical,"(390.0, 762.0)",1.4833333333333334,0.411,1,8567.803,1
0,779,target,"[(1105, 780)]",[],[1],[0.1],vertical,"(890.0, 762.0)",1.6333333333333333,0.068,0,8572.962,0
0,780,catch,"[(1091, 777)]",[],[1],[],horizontal,"(390.0, 262.0)",1.6,nan,1,8577.778,1
0,781,target,"[(1082, 800)]",[],[1],[0.1],horizontal,"(890.0, 262.0)",1.6166666666666667,0.069,0,8582.678,0
0,782,catch,"[(1096, 787)]",[],[1],[],horizontal,"(890.0, 762.0)",1.6,nan,1,8587.463,1
0,783,target,"[(1111, 776)]",[],[1],[0.5666666666666667],vertical,"(890.0, 762.0)",0.7,0.528,1,8592.313,1
0,784,target,"[(1109, 795)]",[],[1],[0.55],vertical,"(390.0, 762.0)",1.6333333333333333,0.508,1,8597.063,1
0,785,target,"[(1109, 796)]",[],[1],[0.5],vertical,"(390.0, 262.0)",1.5833333333333333,0.462,1,8602.496,2
0,786,target,"[(1108, 800)]",[],[1],[0.5666666666666667],vertical,"(390.0, 262.0)",0.5333333333333333,0.533,1,8608.013,2
0,787,target,"[(1124, 786)]",[],[1],[0.36666666666666664],horizontal,"(890.0, 762.0)",1.3833333333333333,0.329,1,8612.669,2
0,788,target,"[(1111, 801)]",[],[1],[0.5],vertical,"(890.0, 762.0)",1.2333333333333334,0.458,1,8617.931,2
0,789,catch,"[(1098, 775)]",[],[1],[],vertical,"(890.0, 762.0)",1.6,nan,1,8623.429,2
0,790,target,"[(1100, 793)]",[],[1],[0.3],vertical,"(390.0, 262.0)",1.45,0.258,1,8628.386,3
0,791,target,"[(1100, 789)]",[],[1],[0.5333333333333333],vertical,"(890.0, 262.0)",1.0333333333333332,0.492,1,8634.472,3
0,792,target,"[(1107, 785)]",[],[1],[0.13333333333333333],vertical,"(390.0, 762.0)",1.5833333333333333,0.099,0,8640.257,0
0,793,target,"[(1105, 802)]",[],[1],[0.85],vertical,"(390.0, 762.0)",0.6666666666666666,nan,0,8645.112,0
0,794,catch,"[(1100, 758)]",[],[1],[],horizontal,"(390.0, 762.0)",1.6,nan,1,8649.679,1
0,795,catch,"[(1110, 794)]",[],[1],[],horizontal,"(890.0, 262.0)",1.6,nan,1,8655.183,1
0,796,target,"[(1103, 766)]",[],[1],[0.55],vertical,"(890.0, 262.0)",1.6333333333333333,0.505,1,8659.857,1
0,797,target,"[(1110, 808)]",[],[1],[0.6],vertical,"(890.0, 762.0)",1.6666666666666667,0.557,1,8664.988,2
0,798,target,"[(1108, 787)]",[],[1],[0.5166666666666666],horizontal,"(890.0, 262.0)",0.6166666666666667,0.477,1,8671.024,2
0,799,catch,"[(1110, 783)]",[],[1],[],horizontal,"(390.0, 262.0)",1.6,nan,1,8675.863,2
0,800,target,"[(1098, 796)]",[],[1],[0.55],horizontal,"(890.0, 262.0)",1.1,0.508,1,8681.287,2
0,801,target,"[(1090, 759)]",[],[1],[0.2833333333333333],horizontal,"(890.0, 262.0)",1.4333333333333333,0.243,1,8687.087,2
0,802,target,"[(1108, 800)]",[],[1],[0.5333333333333333],vertical,"(890.0, 262.0)",0.85,0.49,1,8692.646,3
0,803,target,"[(1110, 762)]",[],[1],[0.5666666666666667],horizontal,"(390.0, 262.0)",1.1333333333333333,0.518,1,8698.257,3
0,804,target,"[(1110, 785)]",[],[1],[0.85],vertical,"(390.0, 262.0)",1.6833333333333333,"('cti', 1.658),nan",0,8704.345,0
0,805,target,"[(1089, 787)]",[],[1],[0.4666666666666667],horizontal,"(390.0, 262.0)",1.0333333333333332,0.432,1,8709.679,1
0,806,target,"[(1106, 777)]",[],[1],[0.65],horizontal,"(390.0, 762.0)",1.0333333333333332,0.602,1,8714.612,1
0,807,target,"[(1114, 775)]",[],[1],[0.4166666666666667],vertical,"(390.0, 762.0)",1.2333333333333334,0.375,1,8719.612,1
0,808,catch,"[(1102, 775)]",[],[1],[],vertical,"(390.0, 762.0)",1.6,nan,1,8724.884,2
0,809,target,"[(1115, 775)]",[],[1],[0.3833333333333333],vertical,"(390.0, 262.0)",1.55,0.345,1,8730.179,2
0,810,target,"[(1110, 787)]",[],[1],[0.6333333333333333],vertical,"(890.0, 762.0)",1.15,0.589,1,8735.585,2
0,811,target,"[(1102, 789)]",[],[1],[0.5166666666666666],horizontal,"(890.0, 262.0)",1.2,0.47,1,8740.979,2
0,812,target,"[(1116, 788)]",[],[1],[],vertical,"(890.0, 262.0)",,"('cti', 1.607)",0,8746.091,0
0,813,target,"[(1082, 777)]",[],[1],[0.5166666666666666],horizontal,"(390.0, 762.0)",1.15,0.475,1,8751.028,1
0,814,target,"[(1078, 791)]",[],[1],[0.7666666666666666],vertical,"(390.0, 262.0)",0.75,0.716,1,8756.145,1
0,815,target,"[(1118, 786)]",[],[1],[0.3833333333333333],horizontal,"(390.0, 262.0)",1.45,0.347,1,8762.631,1
0,816,target,"[(1100, 785)]",[],[1],[0.48333333333333334],vertical,"(890.0, 262.0)",1.25,0.443,1,8767.595,2
0,817,target,"[(1091, 788)]",[],[1],[0.65],horizontal,"(390.0, 262.0)",1.15,0.608,1,8772.919,2
0,818,target,"[(1097, 761)]",[],[1],[0.8166666666666667],horizontal,"(890.0, 262.0)",0.75,0.764,1,8778.63,2
0,819,target,"[(1074, 820)]",[],[1],[0.85],horizontal,"(890.0, 762.0)",0.8666666666666667,nan,0,8784.164,0
0,820,target,"[(1096, 793)]",[],[1],[0.55],vertical,"(890.0, 262.0)",0.5666666666666667,0.512,1,8789.83,1
0,821,target,"[(1107, 776)]",[],[1],[0.5166666666666666],vertical,"(890.0, 262.0)",0.6833333333333333,0.486,1,8794.197,1
0,822,target,"[(1101, 764)]",[],[1],[0.4],vertical,"(890.0, 262.0)",1.45,0.357,1,8799.079,1
0,823,catch,"[(1100, 777)]",[],[1],[],horizontal,"(390.0, 262.0)",1.6,nan,1,8804.509,2
0,824,target,"[(1100, 808)]",[],[1],[0.08333333333333333],vertical,"(390.0, 262.0)",1.45,0.05,0,8809.607,0
0,825,target,"[(1061, 796)]",[],[1],[0.5666666666666667],horizontal,"(890.0, 262.0)",1.6166666666666667,0.527,1,8824.065,1
0,826,target,"[(1108, 786)]",[],[1],[0.45],vertical,"(890.0, 762.0)",1.2333333333333334,0.411,1,8829.792,1
0,827,target,"[(1095, 793)]",[],[1],[0.3833333333333333],vertical,"(390.0, 762.0)",1.55,0.343,1,8834.791,1
0,828,catch,"[(1120, 781)]",[],[1],[],horizontal,"(390.0, 262.0)",1.6,nan,1,8840.101,2
0,829,target,"[(1091, 801)]",[],[1],[0.5833333333333334],vertical,"(890.0, 762.0)",0.7333333333333333,0.543,1,8845.505,2
0,830,catch,"[(1099, 795)]",[],[1],[],vertical,"(890.0, 762.0)",1.6,nan,1,8850.547,2
0,831,target,"[(1105, 789)]",[],[1],[0.4666666666666667],vertical,"(390.0, 262.0)",1.35,0.426,1,8855.443,2
0,832,target,"[(1091, 806)]",[],[1],[0.16666666666666666],vertical,"(390.0, 262.0)",1.5166666666666666,0.134,0,8861.033,0
0,833,catch,"[(1091, 800)]",[],[1],[],horizontal,"(890.0, 762.0)",1.6,nan,1,8865.681,1
0,834,target,"[(1080, 810)]",[],[1],[0.5166666666666666],horizontal,"(890.0, 262.0)",1.25,0.476,1,8870.426,1
0,835,catch,"[(1077, 812)]",[],[1],[],horizontal,"(390.0, 762.0)",1.6,nan,1,8875.992,1
0,836,target,"[(1105, 782)]",[],[1],[0.5333333333333333],vertical,"(390.0, 262.0)",1.1333333333333333,0.491,1,8881.457,2
0,837,target,"[(1109, 776)]",[],[1],[0.6166666666666667],horizontal,"(390.0, 262.0)",1.1833333333333333,0.573,1,8886.564,2
0,838,target,"[(1105, 775)]",[],[1],[0.1],horizontal,"(390.0, 762.0)",1.5333333333333332,0.067,0,8891.647,0
0,839,catch,"[(1086, 807)]","[(1067, 829)]",[1],[0.26666666666666666],vertical,"(390.0, 262.0)",,"('bar', 0.281),nan",0,8896.463,0
0,840,target,"[(1050, 825)]",[],[1],[0.55],vertical,"(890.0, 762.0)",0.5666666666666667,0.507,1,8901.487,1
0,841,target,"[(1037, 803)]",[],[1],[0.31666666666666665],vertical,"(890.0, 762.0)",1.45,0.28,1,8907.346,1
0,842,target,"[(1106, 800)]",[],[1],[0.3833333333333333],vertical,"(390.0, 262.0)",1.3333333333333333,0.344,1,8921.702,1
0,843,target,"[(1081, 792)]",[],[1],[0.85],horizontal,"(890.0, 762.0)",0.8333333333333334,nan,0,8926.673,0
0,844,target,"[(1081, 817)]",[],[1],[0.6333333333333333],vertical,"(890.0, 762.0)",0.75,0.592,1,8930.924,1
0,845,catch,"[(1081, 821)]",[],[1],[],horizontal,"(890.0, 262.0)",1.6,nan,1,8936.013,1
0,846,target,"[(1079, 781)]",[],[1],[0.4666666666666667],vertical,"(390.0, 262.0)",0.6666666666666666,0.432,1,8941.434,1
0,847,target,"[(1091, 780)]",[],[1],[0.5166666666666666],vertical,"(890.0, 262.0)",0.65,0.481,1,8945.838,2
0,848,target,"[(1121, 738), (1098, 822)]",[],"[0, 1]",[0.5333333333333333],horizontal,"(890.0, 262.0)",1.3,0.488,1,8950.951,2
0,849,catch,"[(1074, 795)]",[],[1],[],horizontal,"(390.0, 262.0)",1.6,nan,1,8956.88,2
0,850,target,"[(1079, 791)]",[],[1],[0.3],horizontal,"(890.0, 762.0)",1.5,0.264,1,8962.369,2
0,851,target,"[(1096, 802)]",[],[1],[0.5833333333333334],vertical,"(390.0, 262.0)",1.2,0.539,1,8967.591,2
0,852,target,"[(1104, 796)]",[],[1],[0.36666666666666664],horizontal,"(890.0, 762.0)",1.35,0.331,1,8972.964,3
0,853,target,"[(1089, 771)]",[],[1],[0.5833333333333334],vertical,"(890.0, 762.0)",0.7333333333333333,0.542,1,8978.975,3
0,854,target,"[(1108, 791)]",[],[1],[0.18333333333333332],horizontal,"(890.0, 262.0)",1.55,0.149,0,8984.186,0
0,855,target,"[(1057, 800)]",[],[1],[0.6333333333333333],horizontal,"(390.0, 262.0)",1.2,0.586,1,8988.913,1
0,856,target,"[(1081, 791)]",[],[1],[0.45],vertical,"(390.0, 262.0)",1.3,0.408,1,8993.932,1
0,857,catch,"[(1098, 771)]",[],[1],[],horizontal,"(890.0, 262.0)",,"('cti', 1.333),nan",0,8999.132,0
0,858,target,"[(1091, 794)]",[],[1],[0.6166666666666667],horizontal,"(390.0, 762.0)",0.9,0.57,1,9003.947,1
0,859,target,"[(1107, 797)]",[],[1],[0.5166666666666666],horizontal,"(890.0, 262.0)",0.8666666666666667,0.472,1,9008.904,1
0,860,target,"[(1103, 782)]",[],[1],[0.3833333333333333],horizontal,"(890.0, 262.0)",1.6333333333333333,0.346,1,9013.879,1
0,861,catch,"[(1096, 765)]",[],[1],[],horizontal,"(390.0, 762.0)",,"('cti', 1.492),nan",0,9018.892,0
0,862,catch,"[(1076, 786)]",[],[1],[],vertical,"(390.0, 762.0)",1.6,nan,1,9023.764,1
0,863,target,"[(1092, 761)]",[],[1],[0.6166666666666667],vertical,"(890.0, 262.0)",1.0,0.577,1,9028.896,1
0,864,target,"[(1091, 775)]",[],[1],[0.43333333333333335],horizontal,"(890.0, 262.0)",1.3166666666666667,0.402,1,9033.531,1
0,865,target,"[(1108, 776)]",[],[1],[0.5833333333333334],vertical,"(390.0, 262.0)",1.0,0.542,1,9038.476,2
0,866,target,"[(1106, 766)]",[],[1],[0.5166666666666666],horizontal,"(890.0, 762.0)",0.9,0.473,1,9043.631,2
0,867,target,"[(1120, 777)]",[],[1],[0.5833333333333334],vertical,"(390.0, 262.0)",0.7333333333333333,0.542,1,9048.697,2
0,868,target,"[(1105, 788)]",[],[1],[0.1],vertical,"(890.0, 262.0)",1.6,0.066,0,9053.53,0
0,869,catch,"[(1081, 796)]",[],[1],[],vertical,"(890.0, 762.0)",1.6,nan,1,9058.197,1
0,870,catch,"[(1107, 780)]",[],[1],[],vertical,"(890.0, 262.0)",1.6,"('cti', 1.588),nan",0,9063.194,0
0,871,target,"[(1073, 785)]",[],[1],[0.7166666666666667],horizontal,"(890.0, 762.0)",0.9666666666666667,0.672,1,9067.764,1
0,872,target,"[(1120, 771)]",[],[1],[0.08333333333333333],horizontal,"(390.0, 762.0)",1.5666666666666667,0.052,0,9072.606,0
0,873,target,"[(1081, 808)]",[],[1],[0.26666666666666666],vertical,"(390.0, 762.0)",1.2666666666666666,0.231,1,9077.581,1
0,874,catch,"[(1110, 766)]",[],[1],[],vertical,"(390.0, 262.0)",,"('cti', 1.568),nan",0,9082.816,0
0,875,target,"[(1100, 799)]",[],[1],[0.6333333333333333],horizontal,"(890.0, 262.0)",1.3333333333333333,0.589,1,9087.799,1
0,876,target,"[(1110, 790)]",[],[1],[0.6333333333333333],horizontal,"(390.0, 762.0)",0.6,0.594,1,9093.281,1
0,877,catch,"[(1110, 771)]",[],[1],[],vertical,"(890.0, 762.0)",1.6,"('cti', 1.586),nan",0,9097.953,0
0,878,target,"[(1100, 796)]",[],[1],[0.3],vertical,"(390.0, 262.0)",1.55,0.266,1,9102.799,1
0,879,target,"[(1104, 782)]",[],[1],[0.6166666666666667],horizontal,"(890.0, 262.0)",0.6666666666666666,0.573,1,9107.923,1
0,880,target,"[(1096, 782)]",[],[1],[0.6333333333333333],vertical,"(890.0, 762.0)",0.8666666666666667,0.59,1,9112.651,1
0,881,target,"[(1108, 796)]",[],[1],[0.55],horizontal,"(390.0, 762.0)",1.2,0.506,1,9117.256,2
0,882,target,"[(1117, 776)]",[],[1],[0.5333333333333333],horizontal,"(890.0, 762.0)",0.8666666666666667,0.493,1,9122.911,2
0,883,target,"[(1110, 799)]",[],[1],[],vertical,"(390.0, 262.0)",,"('cti', 1.25)",0,9127.824,0
0,884,target,"[(1091, 798)]",[],[1],[0.6333333333333333],vertical,"(890.0, 262.0)",0.85,0.593,1,9132.015,1
0,885,target,"[(1110, 792)]",[],[1],[0.4666666666666667],vertical,"(390.0, 262.0)",0.9166666666666666,0.438,1,9136.564,1
0,886,target,"[(1079, 786)]",[],[1],[0.6333333333333333],horizontal,"(890.0, 262.0)",0.5166666666666666,0.595,1,9141.315,1
0,887,target,"[(1088, 801)]",[],[1],[0.6],vertical,"(390.0, 262.0)",0.65,0.557,1,9145.397,2
0,888,target,"[(1101, 796)]",[],[1],[0.08333333333333333],horizontal,"(890.0, 262.0)",1.4,0.051,0,9180.732,0
0,889,target,"[(1068, 790)]",[],[1],[0.26666666666666666],vertical,"(390.0, 262.0)",1.3666666666666667,0.23,1,9185.278,1
0,890,target,"[(1120, 806)]",[],[1],[0.5666666666666667],horizontal,"(890.0, 762.0)",1.0666666666666667,0.521,1,9190.248,1
0,891,target,"[(1124, 771)]",[],[1],[0.85],horizontal,"(390.0, 262.0)",0.5333333333333333,nan,0,9195.074,0
0,892,target,"[(1108, 782)]",[],[1],[0.5333333333333333],vertical,"(390.0, 762.0)",1.65,0.5,1,9199.53,1
0,893,catch,"[(1118, 801)]",[],[1],[],vertical,"(390.0, 262.0)",,"('cti', 1.519),nan",0,9204.749,0
0,894,target,"[(1096, 807)]",[],[1],[0.55],vertical,"(390.0, 262.0)",1.15,0.508,1,9209.591,1
0,895,target,"[(1110, 796)]",[],[1],[0.5],vertical,"(390.0, 262.0)",1.3,0.46,1,9215.433,1
0,896,target,"[(1091, 789)]",[],[1],[0.5333333333333333],horizontal,"(890.0, 262.0)",0.8333333333333334,0.49,1,9220.348,1
0,897,target,"[(1112, 796)]",[],[1],[0.2833333333333333],horizontal,"(390.0, 262.0)",1.55,0.248,1,9224.666,2
0,898,target,"[(1123, 796)]",[],[1],[0.6],horizontal,"(890.0, 262.0)",0.8166666666666667,0.564,1,9230.207,2
0,899,target,"[(1105, 803)]",[],[1],[0.45],horizontal,"(890.0, 762.0)",1.1166666666666667,0.409,1,9235.366,2
0,900,target,"[(1107, 799)]",[],[1],[0.5666666666666667],horizontal,"(390.0, 262.0)",0.5666666666666667,0.526,1,9240.957,2
0,901,target,"[(1110, 788)]",[],[1],[0.23333333333333334],vertical,"(890.0, 262.0)",1.4333333333333333,0.196,0,9246.064,0
0,902,target,"[(1077, 801)]",[],[1],[0.5333333333333333],vertical,"(890.0, 762.0)",1.3166666666666667,0.493,1,9250.512,1
0,903,target,"[(1099, 806)]",[],[1],[0.6],vertical,"(390.0, 762.0)",0.5666666666666667,0.564,1,9255.663,1
0,904,target,"[(1065, 798)]",[],[1],[0.35],vertical,"(890.0, 762.0)",1.4833333333333334,0.313,1,9260.362,1
0,905,target,"[(1102, 790)]",[],[1],[0.6166666666666667],vertical,"(390.0, 262.0)",0.7,0.576,1,9268.178,2
0,906,target,"[(1084, 773)]",[],[1],[0.5],horizontal,"(390.0, 262.0)",1.1833333333333333,0.463,1,9272.922,2
0,907,target,"[(1086, 779)]",[],[1],[0.45],horizontal,"(390.0, 262.0)",1.0,0.413,1,9278.3,2
0,908,target,"[(1086, 776)]",[],[1],[0.6],horizontal,"(390.0, 762.0)",1.0166666666666666,0.563,1,9283.5,2
0,909,target,"[(1078, 801)]",[],[1],[0.8],vertical,"(890.0, 762.0)",0.6833333333333333,0.756,1,9288.745,2
0,910,target,"[(1100, 788)]",[],[1],[0.15],horizontal,"(890.0, 762.0)",0.95,0.118,0,9293.876,0
0,911,target,"[(430, 533), (1105, 803)]",[],"[0, 1]",[0.5666666666666667],horizontal,"(390.0, 762.0)",1.6,0.523,1,9298.285,1
0,912,target,"[(1088, 796)]",[],[1],[0.85],vertical,"(890.0, 262.0)",0.7333333333333333,nan,0,10548.249,0
0,913,target,"[(1065, 777)]",[],[1],[0.5],horizontal,"(390.0, 262.0)",1.0166666666666666,0.456,1,10553.139,1
0,914,target,"[(1099, 784)]",[],[1],[],vertical,"(890.0, 262.0)",,"('cti', 1.376)",0,10560.624,0
0,915,target,"[(1086, 776)]",[],[1],[0.5333333333333333],vertical,"(890.0, 262.0)",0.7166666666666667,0.495,1,10565.289,1
0,916,target,"[(1105, 777)]",[],[1],[0.3],vertical,"(390.0, 762.0)",1.3,0.267,1,10569.657,1
0,917,target,"[(1105, 776)]",[],[1],[0.85],vertical,"(890.0, 762.0)",0.6,nan,0,10574.289,0
0,918,catch,"[(1082, 779)]",[],[1],[],vertical,"(890.0, 262.0)",1.6,nan,1,10578.539,1
0,919,catch,"[(1086, 813)]",[],[1],[],vertical,"(390.0, 762.0)",,"('cti', 1.414),nan",0,10583.834,0
0,920,target,"[(1072, 787)]",[],[1],[0.75],horizontal,"(390.0, 762.0)",0.6333333333333333,0.706,1,10588.374,1
0,921,target,"[(1096, 772)]",[],[1],[0.85],horizontal,"(890.0, 762.0)",0.65,nan,0,10595.62,0
0,922,target,"[(1088, 780)]","[(1079, 816)]",[1],[0.21666666666666667],horizontal,"(390.0, 262.0)",,"('bar', 0.232)",0,10599.801,0
0,923,catch,"[(1080, 849)]",[],[1],[],vertical,"(390.0, 262.0)",1.6,nan,1,10602.19,1
0,924,target,"[(1113, 792)]",[],[1],[0.4666666666666667],horizontal,"(890.0, 262.0)",0.9166666666666666,0.426,1,10607.724,1
0,925,target,"[(1084, 774)]",[],[1],[0.6833333333333333],horizontal,"(390.0, 262.0)",1.25,0.64,1,10612.776,1
0,926,target,"[(1071, 796)]",[],[1],[0.6333333333333333],vertical,"(390.0, 262.0)",0.8166666666666667,0.591,1,10617.706,2
0,927,target,"[(1111, 790)]",[],[1],[0.85],vertical,"(890.0, 262.0)",1.3,nan,0,10623.098,0
0,928,target,"[(1038, 766)]",[],[1],[],horizontal,"(890.0, 762.0)",,"('cti', 1.296)",0,10628.557,0
0,929,target,"[(1080, 787)]",[],[1],[0.05],vertical,"(390.0, 262.0)",1.4333333333333333,0.018,0,10643.871,0
0,930,target,"[(1076, 793)]",[],[1],[0.5],horizontal,"(890.0, 262.0)",0.5166666666666666,0.457,1,10648.583,1
0,931,catch,"[(1071, 786)]",[],[1],[],horizontal,"(390.0, 262.0)",1.6,nan,1,10653.181,1
0,932,target,"[(1105, 800)]",[],[1],[0.5],horizontal,"(390.0, 262.0)",0.6,0.466,1,10658.257,1
0,933,target,"[(1107, 795)]",[],[1],[0.5833333333333334],vertical,"(390.0, 262.0)",1.6666666666666667,0.544,1,10662.642,2
0,934,target,"[(1128, 786)]",[],[1],[0.5666666666666667],horizontal,"(390.0, 762.0)",1.0833333333333333,0.531,1,10668.156,2
