block,trial,trial_type,taps_start_loc_during_fix,taps_end_loc_during_fix,taps_on_lever_during_fix,taps_on_lever_s_during_fix,bar_orientation,target_xy,cti,rt,acc,time
1,1,target,"[(1134, 867)]",[],[1],[0.6166666666666667],horizontal,"(890.0, 262.0)",1.083333333,0.571,1,0.341
1,2,target,"[(1109, 818)]",[],[1],[0.7166666666666667],horizontal,"(390.0, 262.0)",1.4,0.667,1,6.497
1,3,target,"[(1149, 832)]",[],[1],[0.6166666666666667],horizontal,"(890.0, 762.0)",0.583333333,0.571,1,20.786
1,4,target,"[(645, 853), (98, 1009), (97, 279), (974, 351), (88, 382), (495, 352), (92, 195), (102, 730), (1003, 189), (683, 298), (1066, 308), (630, 868), (1081, 876)]",[],"[0, 0, 0, 0, 0, 0, 0, 0, 0, 0, 0, 0, 1]",[],horizontal,"(890.0, 762.0)",,cti_phase,0,83.519
1,5,target,"[(1100, 908)]",[],[1],[0.23333333333333334],vertical,"(890.0, 262.0)",1.2,0.202,1,3815.84
1,6,target,"[(1100, 909)]",[],[1],[],vertical,"(890.0, 762.0)",,cti_phase,0,3820.516
1,7,target,"[(1095, 908)]",[],[1],[0.21666666666666667],vertical,"(390.0, 262.0)",1.366666667,0.183,1,3824.442
1,8,target,"[(1095, 903)]",[],[1],[],horizontal,"(890.0, 762.0)",,cti_phase,0,3829.598
1,9,target,"[(1126, 902)]",[],[1],[0.85],horizontal,"(390.0, 262.0)",1.433333333,cti_phase,0,3834.175
1,10,target,"[(1094, 906)]",[],[1],[0.55],horizontal,"(390.0, 262.0)",1.066666667,0.505,1,3840.457
1,11,target,"[(1095, 901)]",[],[1],[0.5166666666666666],vertical,"(890.0, 262.0)",1.05,0.477,1,3844.807
1,12,target,"[(1095, 899)]",[],[1],[0.6833333333333333],vertical,"(390.0, 762.0)",0.516666667,0.64,1,3849.24
1,13,target,"[(1095, 911)]",[],[1],[0.5166666666666666],vertical,"(890.0, 762.0)",0.65,0.477,1,3853.408
1,14,target,"[(1095, 905)]",[],[1],[0.3],vertical,"(390.0, 762.0)",1.033333333,0.264,1,3857.569
1,15,target,"[(1095, 910)]",[],[1],[0.85],horizontal,"(390.0, 762.0)",0.55,nan,0,3861.641
1,16,target,"[(1129, 901)]",[],[1],[0.3833333333333333],horizontal,"(390.0, 262.0)",1.683333333,0.347,1,3866.318
1,17,target,"[(1124, 911)]",[],[1],[],vertical,"(390.0, 762.0)",,cti_phase,0,3871.435
1,18,target,"[(1132, 904)]",[],[1],[0.3],vertical,"(390.0, 262.0)",1.45,0.265,1,3876.119
1,19,target,"[(1120, 911)]",[],[1],[0.35],vertical,"(390.0, 262.0)",1.4,0.309,1,3881.691
1,20,target,"[(1104, 918)]",[],[1],[0.55],horizontal,"(890.0, 762.0)",0.6,0.509,1,3886.673
1,21,target,"[(1099, 922)]",[],[1],[0.18333333333333332],vertical,"(890.0, 762.0)",1.333333333,0.151,1,3891.151
1,22,target,"[(1107, 915)]",[],[1],[0.45],horizontal,"(890.0, 262.0)",1.5,0.411,1,3895.324
1,23,target,"[(1095, 917)]",[],[1],[0.13333333333333333],vertical,"(390.0, 262.0)",1.366666667,0.099,1,3899.944
1,24,target,"[(1071, 932)]",[],[1],[0.5],horizontal,"(390.0, 262.0)",1.066666667,0.463,1,3904.841
1,25,target,"[(1095, 918)]",[],[1],[0.48333333333333334],horizontal,"(390.0, 262.0)",0.633333333,0.44,1,3909.694
2,26,catch,"[(1095, 896)]",[],[1],[0.05],horizontal,"(890.0, 762.0)",1.116666667,nan,1,3913.975
2,27,catch,"[(1124, 906)]",[],[1],[],vertical,"(390.0, 762.0)",,cti_phase,0,3918.108
2,28,catch,"[(1124, 881)]",[],[1],[0.05],horizontal,"(890.0, 762.0)",1.566666667,nan,1,3922.312
2,29,catch,"[(1124, 911)]",[],[1],[0.05],horizontal,"(890.0, 762.0)",1.05,nan,1,3926.716
2,30,catch,"[(1124, 907)]",[],[1],[0.05],vertical,"(390.0, 762.0)",0.966666667,nan,1,3930.99
2,31,catch,"[(1095, 925)]",[],[1],[0.05],horizontal,"(890.0, 262.0)",1.016666667,nan,1,3934.882
2,32,catch,"[(1095, 899)]",[],[1],[0.05],vertical,"(390.0, 262.0)",0.883333333,nan,1,3939.12
2,33,catch,"[(1126, 911)]",[],[1],[0.05],horizontal,"(890.0, 262.0)",0.566666667,nan,1,3943.091
2,34,catch,"[(1095, 909)]",[],[1],[],vertical,"(390.0, 762.0)",,cti_phase,0,3946.898
2,35,catch,"[(974, 767), (1054, 273), (72, 28), (63, 658), (15, 77), (1230, 35), (94, 312), (55, 857), (1072, 865)]",[],"[0, 0, 0, 0, 0, 0, 0, 0, 1]",[],horizontal,"(890.0, 762.0)",,fix_phase,0,3951.788
2,36,catch,"[(97, 46), (950, 31), (78, 67), (698, 105), (1075, 761)]",[],"[0, 0, 0, 0, 1]",[],horizontal,"(890.0, 762.0)",,fix_phase,0,3958.191
2,37,catch,"[(1095, 838)]",[],[1],[],vertical,"(890.0, 262.0)",,fix_phase,0,3960.943
2,38,catch,"[(91, 136), (1027, 82), (944, 404), (756, 90), (87, 87), (11, 87), (1081, 206), (49, 62), (843, 116), (765, 165), (919, 298), (139, 86), (270, 362), (218, 404), (172, 440), (1090, 215), (918, 775), (838, 622), (116, 273), (446, 117), (986, 180), (364, 245), (1042, 123), (1066, 126), (771, 208), (737, 126), (122, 140), (228, 140), (34, 215), (1134, 880)]",[],"[0, 0, 0, 0, 0, 0, 0, 0, 0, 0, 0, 0, 0, 0, 0, 0, 0, 0, 0, 0, 0, 0, 0, 0, 0, 0, 0, 0, 0, 1]",[],vertical,"(890.0, 262.0)",,fix_phase,0,3962.421
2,39,catch,"[(1130, 868)]",[],[1],[],horizontal,"(890.0, 262.0)",,fix_phase,0,3989.907
2,40,catch,"[(930, 651), (1081, 876)]","[(1076, 885)]","[0, 1]",[0.0],vertical,"(890.0, 262.0)",,bar_phase,0,3992.194
2,41,catch,"[(1095, 893)]",[],[1],[],vertical,"(390.0, 762.0)",,cti_phase,0,3995.176
2,42,catch,"[(1106, 881)]",[],[1],[],vertical,"(890.0, 762.0)",,fix_phase,0,3999.581
2,43,catch,"[(1073, 909)]","[(1076, 912)]",[1],[0.36666666666666664],vertical,"(390.0, 262.0)",,bar_phase,0,4001.68
2,44,catch,"[(486, 165), (1109, 906)]","[(1090, 904)]","[0, 1]",[0.21666666666666667],horizontal,"(390.0, 762.0)",,bar_phase,0,4005.099
2,45,catch,"[(44, 337), (131, 313), (983, 475), (1003, 225), (1107, 875)]",[],"[0, 0, 0, 0, 1]",[0.05],horizontal,"(390.0, 762.0)",0.6,nan,1,4010.06
2,46,catch,"[(1104, 911)]","[(1085, 901)]",[1],[0.13333333333333333],horizontal,"(390.0, 762.0)",,bar_phase,0,4021.959
2,47,catch,"[(141, 229), (1130, 863)]",[],"[0, 1]",[0.05],vertical,"(390.0, 262.0)",0.516666667,nan,1,4024.559
2,48,catch,"[(1119, 900)]",[],[1],[0.05],horizontal,"(890.0, 262.0)",0.816666667,nan,1,4029.98
2,49,catch,"[(1127, 864)]",[],[1],"[0.05, 0.05]",vertical,"(390.0, 762.0)",1.133333333,nan,1,4033.991
2,50,catch,"[(1077, 890)]",[],[1],[0.05],horizontal,"(890.0, 262.0)",0.666666667,nan,1,4040.002
2,51,catch,"[(1025, 904)]",[],[1],[0.05],horizontal,"(890.0, 262.0)",0.733333333,nan,1,4043.859
2,52,catch,"[(1114, 911)]",[],[1],[0.05],vertical,"(890.0, 262.0)",1.083333333,nan,1,4047.9
2,53,catch,"[(974, 911), (1069, 919)]",[],"[0, 1]",[],horizontal,"(390.0, 262.0)",,cti_phase,0,4052.116
2,54,catch,"[(1110, 898)]",[],[1],[0.05],vertical,"(890.0, 262.0)",0.783333333,nan,1,4056.375
2,55,catch,"[(1095, 897)]",[],[1],[],vertical,"(890.0, 762.0)",,cti_phase,0,4060.443
2,56,catch,"[(1075, 278), (1075, 878)]",[],"[0, 1]",[],vertical,"(890.0, 762.0)",,cti_phase,0,4064.675
2,57,catch,"[(1104, 883)]",[],[1],[0.05],vertical,"(890.0, 262.0)",0.733333333,nan,1,4074.544
2,58,catch,"[(1057, 910)]",[],[1],[0.05],horizontal,"(390.0, 762.0)",0.883333333,nan,1,4078.667
2,59,catch,"[(1095, 901)]",[],[1],[0.05],horizontal,"(390.0, 762.0)",1.466666667,nan,1,4082.766
2,60,catch,"[(1123, 902)]",[],[1],[0.05],horizontal,"(390.0, 262.0)",0.85,nan,1,4087.407
2,61,catch,"[(1132, 904)]",[],[1],[],horizontal,"(390.0, 262.0)",,cti_phase,0,4091.677
2,62,catch,"[(1099, 899)]",[],[1],[0.05],vertical,"(890.0, 762.0)",1.15,nan,1,4095.709
2,63,catch,"[(470, 495), (1116, 868)]",[],"[0, 1]",[0.05],vertical,"(890.0, 762.0)",0.566666667,nan,1,4100.099
2,64,catch,"[(968, 401), (1085, 865)]",[],"[0, 1]",[0.05],horizontal,"(890.0, 262.0)",1.266666667,nan,1,4115.768
2,65,catch,"[(1095, 910)]",[],[1],[],horizontal,"(390.0, 262.0)",,cti_phase,0,4121.508
2,66,catch,"[(1123, 878)]",[],[1],[0.05],vertical,"(390.0, 262.0)",1.233333333,nan,1,4126.31
2,67,catch,"[(1137, 907)]",[],[1],[0.05],horizontal,"(890.0, 262.0)",0.55,nan,1,4130.325
2,68,catch,"[(1102, 903)]",[],[1],[],vertical,"(390.0, 762.0)",,cti_phase,0,4133.81
2,69,catch,"[(1122, 892)]",[],[1],[0.05],horizontal,"(890.0, 262.0)",0.716666667,nan,1,4138.766
2,70,catch,"[(1099, 909)]",[],[1],[0.05],horizontal,"(390.0, 762.0)",0.733333333,nan,1,4142.529
2,71,catch,"[(1098, 906)]",[],[1],[0.05],vertical,"(890.0, 262.0)",1.266666667,nan,1,4146.552
2,72,catch,"[(1100, 908)]",[],[1],[],horizontal,"(390.0, 762.0)",,cti_phase,0,4151.009
2,73,catch,"[(1099, 888)]",[],[1],[],horizontal,"(390.0, 262.0)",,cti_phase,0,4155.227
2,74,catch,"[(1095, 887)]",[],[1],[0.05],horizontal,"(890.0, 762.0)",1.3,nan,1,4159.757
2,75,catch,"[(1095, 913)]",[],[1],[0.05],horizontal,"(390.0, 262.0)",0.916666667,nan,1,4164.91
3,76,target,"[(1095, 896)]",[],[1],[0.1],vertical,"(890.0, 262.0)",1.25,0.067,1,4169.04
3,77,target,"[(1108, 906)]",[],[1],[0.85],vertical,"(390.0, 762.0)",1.633333333,nan,0,4173.308
3,78,target,"[(1104, 899)]",[],[1],[0.5666666666666667],horizontal,"(390.0, 262.0)",0.716666667,0.526,1,4178.374
3,79,target,"[(1081, 898)]",[],[1],[],horizontal,"(890.0, 762.0)",,cti_phase,0,4183.108
3,80,target,"[(1114, 896)]",[],[1],[0.4666666666666667],vertical,"(890.0, 262.0)",1.166666667,0.427,1,4187.61
3,81,target,"[(1114, 901)]",[],[1],[0.45],vertical,"(390.0, 762.0)",0.933333333,0.409,1,4192.393
3,82,target,"[(1095, 909)]",[],[1],[0.55],horizontal,"(390.0, 762.0)",0.933333333,0.511,1,4196.627
3,83,target,"[(969, 911), (1088, 880)]",[],"[0, 1]",[],horizontal,"(890.0, 762.0)",,cti_phase,0,4200.911
3,84,target,"[(1085, 881)]",[],[1],[0.6166666666666667],horizontal,"(890.0, 762.0)",1.266666667,0.573,1,4214.106
3,85,target,"[(1105, 906)]",[],[1],[0.6166666666666667],vertical,"(390.0, 262.0)",0.8,0.572,1,4219.26
3,86,target,"[(1104, 905)]",[],[1],[0.5],horizontal,"(390.0, 762.0)",1.083333333,0.456,1,4223.393
3,87,target,"[(1115, 902)]",[],[1],[0.5333333333333333],vertical,"(390.0, 262.0)",0.816666667,0.491,1,4227.854
3,88,target,"[(1095, 909)]",[],[1],[0.5],vertical,"(890.0, 262.0)",0.6,0.457,1,4232.327
3,89,target,"[(1095, 902)]",[],[1],[0.5166666666666666],horizontal,"(390.0, 762.0)",1.266666667,0.479,1,4236.326
3,90,target,"[(1066, 906)]",[],[1],[0.85],horizontal,"(390.0, 762.0)",0.583333333,nan,0,4241.113
3,91,target,"[(1133, 897)]",[],[1],[],horizontal,"(390.0, 762.0)",,cti_phase,0,4245.275
3,92,target,"[(1116, 880)]",[],[1],[0.55],horizontal,"(890.0, 262.0)",0.616666667,0.505,1,4249.809
3,93,target,"[(1104, 906)]",[],[1],[0.5333333333333333],vertical,"(890.0, 262.0)",0.716666667,0.491,1,4254.378
3,94,target,"[(1106, 912)]",[],[1],[0.45],horizontal,"(890.0, 762.0)",1.466666667,0.409,1,4258.916
3,95,target,"[(1100, 909)]",[],[1],[0.5833333333333334],vertical,"(390.0, 262.0)",0.666666667,0.542,1,4263.592
3,96,target,"[(1104, 906)]",[],[1],[0.26666666666666666],horizontal,"(390.0, 262.0)",1.183333333,0.232,1,4267.659
3,97,target,"[(1100, 908)]",[],[1],[0.6166666666666667],vertical,"(390.0, 262.0)",1.033333333,0.572,1,4272.232
3,98,target,"[(1106, 910)]",[],[1],[0.26666666666666666],vertical,"(890.0, 762.0)",1.283333333,0.231,1,4277.149
3,99,target,"[(1109, 910)]",[],[1],[0.5166666666666666],vertical,"(890.0, 262.0)",0.55,0.472,1,4282.004
3,100,target,"[(1100, 906)]",[],[1],[0.55],horizontal,"(390.0, 262.0)",0.683333333,0.505,1,4286.354
4,101,catch,"[(1114, 910)]",[],[1],[0.05],vertical,"(890.0, 762.0)",0.75,nan,1,4290.76
4,102,catch,"[(1105, 893)]",[],[1],[0.05],vertical,"(890.0, 262.0)",1.666666667,nan,1,4294.376
4,103,catch,"[(1102, 894)]",[],[1],[0.05],horizontal,"(390.0, 762.0)",0.516666667,nan,1,4299.244
4,104,catch,"[(1106, 905)]",[],[1],[0.05],horizontal,"(390.0, 762.0)",0.966666667,nan,1,4303.142
4,105,catch,"[(1094, 892)]",[],[1],[0.05],horizontal,"(390.0, 262.0)",1.3,nan,1,4307.52
4,106,catch,"[(1114, 907)]",[],[1],[0.05],vertical,"(390.0, 762.0)",0.683333333,nan,1,4312.378
4,107,catch,"[(1104, 908)]",[],[1],[0.05],vertical,"(390.0, 262.0)",0.95,nan,1,4315.993
4,108,catch,"[(1107, 892)]",[],[1],[],vertical,"(390.0, 262.0)",,cti_phase,0,4320.362
4,109,catch,"[(1129, 893)]",[],[1],[0.05],horizontal,"(890.0, 262.0)",0.75,nan,1,4325.14
4,110,catch,"[(1109, 902)]",[],[1],[0.05],horizontal,"(890.0, 262.0)",1.233333333,nan,1,4329.117
4,111,catch,"[(1095, 897)]",[],[1],[0.05],horizontal,"(390.0, 262.0)",0.6,nan,1,4333.365
4,112,catch,"[(1099, 901)]",[],[1],[],vertical,"(890.0, 262.0)",,cti_phase,0,4337.009
4,113,catch,"[(1129, 897)]",[],[1],[0.05],horizontal,"(890.0, 262.0)",1.666666667,nan,1,4342.006
4,114,catch,"[(1104, 903)]",[],[1],[0.05],horizontal,"(390.0, 262.0)",1.283333333,nan,1,4346.661
4,115,catch,"[(1130, 916)]",[],[1],[0.05],vertical,"(390.0, 762.0)",0.866666667,nan,1,4351.276
4,116,catch,"[(1098, 900)]",[],[1],[0.05],vertical,"(390.0, 762.0)",1.383333333,nan,1,4355.423
4,117,catch,"[(1108, 902)]",[],[1],[0.05],vertical,"(390.0, 762.0)",0.533333333,nan,1,4359.682
4,118,catch,"[(1099, 910)]",[],[1],[0.05],vertical,"(390.0, 762.0)",0.716666667,nan,1,4363.661
4,119,catch,"[(1098, 889)]",[],[1],[0.05],horizontal,"(390.0, 762.0)",0.7,nan,1,4368.199
4,120,catch,"[(1090, 899)]",[],[1],[0.05],vertical,"(390.0, 262.0)",0.616666667,nan,1,4372.145
4,121,catch,"[(1102, 902)]",[],[1],[0.05],horizontal,"(390.0, 262.0)",0.5,nan,1,4376.066
4,122,catch,"[(1107, 907)]",[],[1],[0.05],horizontal,"(890.0, 262.0)",0.916666667,nan,1,4380.227
4,123,catch,"[(1097, 899)]",[],[1],[],vertical,"(890.0, 762.0)",,cti_phase,0,4384.476
4,124,catch,"[(1109, 897)]",[],[1],[0.05],vertical,"(890.0, 262.0)",1.066666667,nan,1,4388.526
4,125,catch,"[(1100, 917)]",[],[1],[0.05],vertical,"(890.0, 762.0)",1.1,nan,1,4393.01
4,126,catch,"[(1095, 909)]",[],[1],[0.05],horizontal,"(890.0, 262.0)",1.233333333,nan,1,4397.322
4,127,catch,"[(1110, 898)]",[],[1],[0.05],vertical,"(890.0, 262.0)",0.95,nan,1,4401.393
4,128,catch,"[(1100, 902)]",[],[1],[0.05],horizontal,"(890.0, 762.0)",0.5,nan,1,4405.727
4,129,catch,"[(1104, 899)]",[],[1],[0.05],horizontal,"(390.0, 762.0)",0.716666667,nan,1,4408.926
4,130,catch,"[(1095, 875)]",[],[1],[0.05],horizontal,"(390.0, 762.0)",0.683333333,nan,1,4412.496
4,131,catch,"[(1100, 896)]",[],[1],[0.05],vertical,"(890.0, 762.0)",0.65,nan,1,4416.082
4,132,catch,"[(1108, 906)]",[],[1],[0.05],vertical,"(890.0, 762.0)",0.983333333,nan,1,4420.292
4,133,catch,"[(1104, 915)]",[],[1],[],vertical,"(890.0, 262.0)",,cti_phase,0,4424.311
4,134,catch,"[(1095, 911)]",[],[1],[0.05],vertical,"(890.0, 762.0)",0.783333333,nan,1,4428.277
4,135,catch,"[(1100, 908)]",[],[1],[0.05],vertical,"(890.0, 762.0)",0.95,nan,1,4431.862
4,136,catch,"[(1114, 878)]",[],[1],[0.05],horizontal,"(890.0, 262.0)",0.7,nan,1,4436.299
4,137,catch,"[(1108, 912)]",[],[1],[],vertical,"(390.0, 262.0)",,cti_phase,0,4439.777
4,138,catch,"[(1114, 897)]",[],[1],[0.05],vertical,"(890.0, 762.0)",1.133333333,nan,1,4444.561
4,139,catch,"[(1115, 893)]",[],[1],[0.05],horizontal,"(390.0, 262.0)",0.883333333,nan,1,4449.076
4,140,catch,"[(1128, 911)]",[],[1],[],vertical,"(890.0, 762.0)",,cti_phase,0,4453.378
4,141,catch,"[(1104, 873)]",[],[1],[0.05],vertical,"(390.0, 762.0)",1.316666667,nan,1,4457.416
4,142,catch,"[(1109, 915)]",[],[1],[0.05],horizontal,"(390.0, 762.0)",0.516666667,nan,1,4461.857
4,143,catch,"[(1105, 915)]",[],[1],[0.05],horizontal,"(390.0, 262.0)",0.983333333,nan,1,4465.876
4,144,catch,"[(1104, 914)]",[],[1],[0.05],horizontal,"(890.0, 262.0)",1.083333333,nan,1,4470.048
4,145,catch,"[(1097, 902)]",[],[1],[],horizontal,"(890.0, 762.0)",,cti_phase,0,4474.31
4,146,catch,"[(1104, 898)]",[],[1],[0.05],horizontal,"(890.0, 262.0)",0.833333333,nan,1,4478.523
4,147,catch,"[(1097, 888)]",[],[1],[],horizontal,"(890.0, 762.0)",,cti_phase,0,4482.444
4,148,catch,"[(1121, 894)]",[],[1],[0.05],horizontal,"(890.0, 762.0)",0.583333333,nan,1,4486.766
4,149,catch,"[(1097, 901)]",[],[1],[],horizontal,"(390.0, 262.0)",,cti_phase,0,4490.565
4,150,catch,"[(1118, 886)]",[],[1],[0.05],horizontal,"(890.0, 762.0)",0.933333333,nan,1,4495.361
5,151,target,"[(1097, 908)]",[],[1],[0.55],vertical,"(890.0, 762.0)",0.583333333,0.513,1,4499.573
5,152,target,"[(1100, 898)]",[],[1],[0.55],vertical,"(390.0, 762.0)",0.6,0.507,1,4503.886
5,153,target,"[(1095, 899)]",[],[1],[],horizontal,"(390.0, 262.0)",,cti_phase,0,4508.095
5,154,target,"[(1116, 888)]",[],[1],[],horizontal,"(390.0, 762.0)",,cti_phase,0,4512.676
5,155,target,"[(1110, 876)]",[],[1],[0.45],horizontal,"(390.0, 762.0)",1.283333333,0.41,1,4516.936
5,156,target,"[(1109, 908)]",[],[1],[0.11666666666666667],horizontal,"(890.0, 262.0)",1.533333333,0.082,1,4521.809
5,157,target,"[(1114, 908)]",[],[1],[],vertical,"(390.0, 762.0)",,cti_phase,0,4526.429
5,158,target,"[(1119, 893)]",[],[1],[0.06666666666666667],vertical,"(390.0, 762.0)",1.383333333,0.036,1,4530.448
5,159,target,"[(1098, 892)]",[],[1],[0.23333333333333334],vertical,"(390.0, 262.0)",1.533333333,0.201,1,4535.143
5,160,target,"[(1105, 898)]",[],[1],[],vertical,"(890.0, 762.0)",,cti_phase,0,4539.878
5,161,target,"[(1107, 896)]",[],[1],[0.7166666666666667],vertical,"(890.0, 262.0)",0.633333333,0.667,1,4544.071
5,162,target,"[(1113, 885)]",[],[1],[0.5],horizontal,"(890.0, 262.0)",0.8,0.45,1,4548.434
5,163,target,"[(1097, 906)]",[],[1],[0.5],vertical,"(890.0, 262.0)",0.75,0.462,1,4552.644
5,164,target,"[(1098, 903)]",[],[1],[0.45],vertical,"(890.0, 762.0)",1.016666667,0.405,1,4557.178
5,165,target,"[(1134, 906)]",[],[1],[0.5833333333333334],vertical,"(890.0, 262.0)",0.983333333,0.541,1,4561.961
5,166,target,"[(1098, 905)]",[],[1],[0.5166666666666666],horizontal,"(890.0, 262.0)",0.983333333,0.477,1,4566.529
5,167,target,"[(1104, 906)]",[],[1],[0.5333333333333333],vertical,"(890.0, 762.0)",0.95,0.489,1,4570.862
5,168,target,"[(1075, 894)]",[],[1],[0.55],vertical,"(390.0, 762.0)",0.983333333,0.507,1,4575.173
5,169,target,"[(1112, 907)]",[],[1],[0.45],vertical,"(390.0, 762.0)",1.35,0.405,1,4579.436
5,170,target,"[(1105, 901)]",[],[1],[0.55],vertical,"(390.0, 762.0)",0.95,0.516,1,4583.95
5,171,target,"[(1115, 906)]",[],[1],[0.5166666666666666],horizontal,"(390.0, 762.0)",1.133333333,0.474,1,4588.42
5,172,target,"[(1111, 894)]",[],[1],[0.5333333333333333],horizontal,"(890.0, 762.0)",0.883333333,0.49,1,4593.206
5,173,target,"[(1095, 902)]",[],[1],[0.5166666666666666],vertical,"(890.0, 262.0)",0.583333333,0.475,1,4597.687
5,174,target,"[(1097, 896)]",[],[1],[],horizontal,"(890.0, 762.0)",,cti_phase,0,4601.96
5,175,target,"[(1086, 896)]",[],[1],[0.5],horizontal,"(390.0, 262.0)",1.6,0.46,1,4606.678
6,176,catch,"[(1095, 886)]",[],[1],[0.05],horizontal,"(390.0, 262.0)",1.066666667,nan,1,4612.224
6,177,catch,"[(1107, 897)]",[],[1],[0.05],horizontal,"(890.0, 262.0)",0.866666667,nan,1,4616.382
6,178,catch,"[(1102, 893)]",[],[1],[0.05],horizontal,"(890.0, 262.0)",1.133333333,nan,1,4620.778
6,179,catch,"[(1104, 905)]",[],[1],[0.05],vertical,"(890.0, 762.0)",0.55,nan,1,4625.194
6,180,catch,"[(1095, 893)]",[],[1],[0.05],horizontal,"(890.0, 262.0)",1.4,nan,1,4629.193
6,181,catch,"[(1098, 908)]",[],[1],[0.05],vertical,"(390.0, 762.0)",0.983333333,nan,1,4633.627
6,182,catch,"[(1097, 903)]",[],[1],[0.05],horizontal,"(390.0, 762.0)",0.55,nan,1,4637.862
6,183,catch,"[(1098, 884)]",[],[1],[],horizontal,"(390.0, 762.0)",,cti_phase,0,4641.683
6,184,catch,"[(1130, 879)]",[],[1],[0.05],horizontal,"(390.0, 762.0)",0.616666667,nan,1,4645.983
6,185,catch,"[(1107, 876)]",[],[1],[0.05],horizontal,"(390.0, 762.0)",0.733333333,nan,1,4649.261
6,186,catch,"[(1098, 898)]",[],[1],[0.05],horizontal,"(390.0, 762.0)",0.883333333,nan,1,4653.545
6,187,catch,"[(1097, 909)]",[],[1],[0.05],vertical,"(890.0, 262.0)",1.166666667,nan,1,4658.076
6,188,catch,"[(1098, 902)]",[],[1],[0.05],horizontal,"(890.0, 262.0)",1.283333333,nan,1,4662.427
6,189,catch,"[(1113, 912)]",[],[1],[],vertical,"(890.0, 762.0)",,cti_phase,0,4666.993
6,190,catch,"[(1097, 909)]",[],[1],[0.05],vertical,"(390.0, 262.0)",1.016666667,nan,1,4671.305
6,191,catch,"[(1104, 903)]",[],[1],[],horizontal,"(390.0, 762.0)",,cti_phase,0,4675.645
6,192,catch,"[(1129, 904)]",[],[1],[0.05],horizontal,"(890.0, 262.0)",1.666666667,nan,1,4680.127
6,193,catch,"[(1104, 908)]",[],[1],[0.05],vertical,"(890.0, 262.0)",1.6,nan,1,4685.064
6,194,catch,"[(1095, 904)]",[],[1],[0.05],horizontal,"(390.0, 262.0)",1.233333333,nan,1,4689.528
6,195,catch,"[(1108, 892)]",[],[1],[0.05],vertical,"(390.0, 262.0)",1.183333333,nan,1,4693.895
6,196,catch,"[(1100, 905)]",[],[1],[0.05],horizontal,"(890.0, 262.0)",0.766666667,nan,1,4698.291
6,197,catch,"[(1107, 907)]",[],[1],[0.05],horizontal,"(890.0, 262.0)",1.383333333,nan,1,4702.462
6,198,catch,"[(1110, 909)]",[],[1],[],horizontal,"(390.0, 762.0)",,cti_phase,0,4707.064
6,199,catch,"[(1104, 897)]",[],[1],[0.05],horizontal,"(390.0, 762.0)",0.966666667,nan,1,4712.761
6,200,catch,"[(1100, 892)]",[],[1],[0.05],horizontal,"(390.0, 262.0)",0.866666667,nan,1,4717.056
6,201,catch,"[(1076, 920)]",[],[1],[0.05],vertical,"(890.0, 762.0)",0.55,nan,1,4721.012
6,202,catch,"[(1098, 905)]",[],[1],[0.05],vertical,"(890.0, 262.0)",0.683333333,nan,1,4725.112
6,203,catch,"[(1128, 908)]",[],[1],[0.05],vertical,"(390.0, 762.0)",1.266666667,nan,1,4729.081
6,204,catch,"[(1115, 914)]",[],[1],[0.05],horizontal,"(390.0, 762.0)",1.3,nan,1,4786.861
6,205,catch,"[(1090, 934)]",[],[1],[0.05],vertical,"(390.0, 262.0)",1.216666667,nan,1,4791.586
6,206,catch,"[(1085, 941)]",[],[1],[],horizontal,"(390.0, 762.0)",,cti_phase,0,4795.75
6,207,catch,"[(1096, 889)]",[],[1],[0.05],horizontal,"(890.0, 262.0)",1.233333333,nan,1,4800.042
6,208,catch,"[(1093, 887)]",[],[1],[0.05],vertical,"(390.0, 262.0)",1.066666667,nan,1,4804.544
6,209,catch,"[(1123, 899)]",[],[1],[0.05],vertical,"(390.0, 762.0)",0.883333333,nan,1,4810.482
6,210,catch,"[(1095, 892)]",[],[1],[0.05],horizontal,"(390.0, 262.0)",0.55,nan,1,4817.388
6,211,catch,"[(1104, 908)]",[],[1],[0.05],horizontal,"(890.0, 262.0)",0.733333333,nan,1,4821.464
6,212,catch,"[(1125, 912)]",[],[1],[0.05],horizontal,"(390.0, 762.0)",1.183333333,nan,1,4825.244
6,213,catch,"[(1131, 911)]",[],[1],[],horizontal,"(390.0, 262.0)",,cti_phase,0,4829.395
6,214,catch,"[(1131, 897)]",[],[1],[0.05],vertical,"(890.0, 262.0)",0.75,nan,1,4833.599
6,215,catch,"[(1095, 927)]",[],[1],[0.05],horizontal,"(390.0, 262.0)",0.783333333,nan,1,4837.466
6,216,catch,"[(1095, 932)]",[],[1],[],vertical,"(890.0, 262.0)",,cti_phase,0,4841.697
6,217,catch,"[(1104, 899)]",[],[1],[0.05],vertical,"(890.0, 262.0)",1.033333333,nan,1,4846.023
6,218,catch,"[(1098, 935)]",[],[1],[0.05],vertical,"(390.0, 762.0)",0.766666667,nan,1,4849.946
6,219,catch,"[(1130, 916)]",[],[1],[],horizontal,"(890.0, 262.0)",,cti_phase,0,4853.973
6,220,catch,"[(1114, 902)]",[],[1],[0.05],vertical,"(890.0, 762.0)",0.983333333,nan,1,4858.595
6,221,catch,"[(1105, 907)]",[],[1],[0.05],vertical,"(890.0, 262.0)",1.416666667,nan,1,4862.691
6,222,catch,"[(1127, 923)]",[],[1],[],vertical,"(890.0, 762.0)",,cti_phase,0,4867.538
6,223,catch,"[(1124, 922)]",[],[1],[],horizontal,"(390.0, 262.0)",,cti_phase,0,4871.781
6,224,catch,"[(1097, 911)]",[],[1],[0.05],vertical,"(390.0, 762.0)",0.8,nan,1,4875.979
6,225,catch,"[(1105, 921)]",[],[1],[],vertical,"(890.0, 762.0)",,cti_phase,0,4880.13
7,226,target,"[(1129, 902)]",[],[1],[0.6],horizontal,"(390.0, 762.0)",0.833333333,0.56,1,4884.851
7,227,target,"[(1100, 909)]",[],[1],[0.15],vertical,"(390.0, 262.0)",1.683333333,0.118,1,4889.03
7,228,target,"[(1100, 925)]",[],[1],[],horizontal,"(390.0, 262.0)",,cti_phase,0,4893.875
7,229,target,"[(1133, 887)]",[],[1],[0.5666666666666667],vertical,"(390.0, 762.0)",0.866666667,0.534,1,4898.462
7,230,target,"[(1109, 929)]",[],[1],[0.55],vertical,"(390.0, 262.0)",1.033333333,0.513,1,4902.686
7,231,target,"[(1114, 895)]",[],[1],[0.5666666666666667],horizontal,"(890.0, 762.0)",0.7,0.528,1,4907.184
7,232,target,"[(1113, 918)]",[],[1],[0.5166666666666666],vertical,"(390.0, 762.0)",0.933333333,0.474,1,4911.396
7,233,target,"[(1100, 902)]",[],[1],[0.31666666666666665],vertical,"(890.0, 262.0)",1.666666667,0.279,1,4916.019
7,234,target,"[(1097, 898)]",[],[1],[0.5166666666666666],vertical,"(890.0, 262.0)",0.583333333,0.479,1,4920.934
7,235,target,"[(1101, 902)]",[],[1],[0.5333333333333333],horizontal,"(390.0, 762.0)",1.133333333,0.498,1,4925.012
7,236,target,"[(1134, 915)]",[],[1],[],horizontal,"(390.0, 262.0)",,cti_phase,0,4929.846
7,237,target,"[(1127, 910)]",[],[1],[0.5],vertical,"(390.0, 762.0)",1.533333333,0.458,1,4934.374
7,238,target,"[(1105, 916)]",[],[1],[0.5],horizontal,"(390.0, 762.0)",1.233333333,0.464,1,4939.313
7,239,target,"[(1114, 905)]",[],[1],[0.25],horizontal,"(390.0, 262.0)",1.616666667,0.215,1,4944.512
7,240,target,"[(1110, 906)]",[],[1],[0.5666666666666667],horizontal,"(390.0, 262.0)",0.733333333,0.525,1,4948.945
7,241,target,"[(1104, 912)]",[],[1],[0.11666666666666667],horizontal,"(390.0, 762.0)",1.6,0.082,1,4952.945
7,242,target,"[(1116, 910)]",[],[1],[0.5166666666666666],vertical,"(890.0, 762.0)",0.566666667,0.476,1,4957.812
7,243,target,"[(1099, 903)]",[],[1],[0.26666666666666666],horizontal,"(390.0, 262.0)",1.316666667,0.232,1,4961.564
7,244,target,"[(1124, 909)]",[],[1],[0.65],horizontal,"(390.0, 762.0)",0.666666667,0.607,1,4966.378
7,245,target,"[(1095, 894)]",[],[1],[0.5],vertical,"(890.0, 762.0)",0.55,0.458,1,4970.529
7,246,target,"[(1110, 905)]",[],[1],[0.5],vertical,"(390.0, 762.0)",1.483333333,0.457,1,4974.447
7,247,target,"[(1095, 902)]",[],[1],[0.4166666666666667],horizontal,"(890.0, 762.0)",1.216666667,0.376,1,4979.314
7,248,target,"[(1100, 910)]",[],[1],[0.85],vertical,"(890.0, 262.0)",1.666666667,cti_phase,0,4983.809
7,249,target,"[(1102, 911)]",[],[1],[],vertical,"(890.0, 762.0)",,cti_phase,0,4989.526
7,250,target,"[(1096, 875)]",[],[1],[0.5666666666666667],horizontal,"(390.0, 762.0)",0.733333333,0.524,1,4994.208
8,251,catch,"[(1093, 916)]",[],[1],[0.05],horizontal,"(890.0, 762.0)",0.883333333,nan,1,4998.672
8,252,catch,"[(1085, 910)]",[],[1],[0.05],vertical,"(390.0, 262.0)",1.683333333,nan,1,5003.204
8,253,catch,"[(1097, 908)]",[],[1],[0.05],vertical,"(390.0, 762.0)",1.416666667,nan,1,5007.746
8,254,catch,"[(1102, 912)]",[],[1],[0.05],vertical,"(390.0, 262.0)",1.183333333,nan,1,5012.597
8,255,catch,"[(1100, 908)]",[],[1],[0.05],horizontal,"(890.0, 762.0)",1.05,nan,1,5016.78
8,256,catch,"[(1095, 910)]",[],[1],[],horizontal,"(390.0, 762.0)",,cti_phase,0,5021.562
8,257,catch,"[(1100, 902)]",[],[1],[0.05],horizontal,"(890.0, 262.0)",0.783333333,nan,1,5026.203
8,258,catch,"[(1095, 916)]",[],[1],[0.05],vertical,"(890.0, 262.0)",1.3,nan,1,5030.813
8,259,catch,"[(1095, 880)]",[],[1],[0.05],vertical,"(890.0, 262.0)",0.85,nan,1,5035.445
8,260,catch,"[(1110, 931)]",[],[1],[],horizontal,"(890.0, 762.0)",,cti_phase,0,5039.183
8,261,catch,"[(1095, 914)]",[],[1],[0.05],vertical,"(390.0, 762.0)",0.566666667,nan,1,5043.178
8,262,catch,"[(1101, 894)]",[],[1],[0.05],vertical,"(890.0, 762.0)",0.75,nan,1,5047.296
8,263,catch,"[(1096, 905)]",[],[1],[0.05],vertical,"(390.0, 762.0)",0.866666667,nan,1,5051.481
8,264,catch,"[(1098, 904)]",[],[1],[0.05],horizontal,"(390.0, 262.0)",1.516666667,nan,1,5055.784
8,265,catch,"[(1095, 899)]",[],[1],[0.05],vertical,"(390.0, 762.0)",1.2,nan,1,5060.796
8,266,catch,"[(1085, 927)]",[],[1],[0.05],vertical,"(890.0, 762.0)",1.1,nan,1,5065.345
8,267,catch,"[(1095, 927)]",[],[1],[0.05],vertical,"(890.0, 762.0)",0.7,nan,1,5069.864
8,268,catch,"[(1107, 900)]",[],[1],[0.05],horizontal,"(390.0, 262.0)",1.3,nan,1,5074.028
8,269,catch,"[(1095, 913)]",[],[1],[],horizontal,"(890.0, 762.0)",,cti_phase,0,5078.967
8,270,catch,"[(1095, 888)]",[],[1],[0.05],horizontal,"(390.0, 762.0)",1.05,nan,1,5083.429
8,271,catch,"[(1107, 916)]",[],[1],[0.05],horizontal,"(390.0, 762.0)",1.6,nan,1,5087.301
8,272,catch,"[(1119, 908)]",[],[1],[0.05],horizontal,"(390.0, 762.0)",1.25,nan,1,5092.395
8,273,catch,"[(1109, 919)]",[],[1],[0.05],vertical,"(890.0, 262.0)",0.55,nan,1,5096.947
8,274,catch,"[(1098, 911)]",[],[1],[0.05],vertical,"(390.0, 262.0)",1.133333333,nan,1,5101.043
8,275,catch,"[(1116, 898)]",[],[1],[],vertical,"(890.0, 762.0)",,cti_phase,0,5105.43
8,276,catch,"[(1115, 870)]",[],[1],[0.05],horizontal,"(890.0, 262.0)",1.083333333,nan,1,5109.678
8,277,catch,"[(1095, 907)]",[],[1],[],vertical,"(890.0, 762.0)",,cti_phase,0,5113.587
8,278,catch,"[(1100, 872)]",[],[1],[0.05],vertical,"(390.0, 262.0)",1.35,nan,1,5117.832
8,279,catch,"[(1097, 908)]",[],[1],[0.05],horizontal,"(890.0, 762.0)",1.233333333,nan,1,5122.325
8,280,catch,"[(1105, 931)]",[],[1],"[0.05, 0.05]",vertical,"(890.0, 762.0)",1.066666667,nan,1,5126.442
8,281,catch,"[(1096, 877)]",[],[1],[0.05],horizontal,"(890.0, 762.0)",0.65,nan,1,5130.713
8,282,catch,"[(1097, 894)]",[],[1],[0.05],vertical,"(890.0, 262.0)",0.65,nan,1,5134.704
8,283,catch,"[(1100, 907)]",[],[1],[],vertical,"(890.0, 762.0)",,cti_phase,0,5138.526
8,284,catch,"[(1126, 883)]",[],[1],[0.05],vertical,"(390.0, 762.0)",0.733333333,nan,1,5143.463
8,285,catch,"[(1095, 894)]",[],[1],[0.05],horizontal,"(890.0, 762.0)",0.816666667,nan,1,5147.311
8,286,catch,"[(1106, 885)]",[],[1],"[0.05, 0.05]",horizontal,"(390.0, 262.0)",1.35,nan,1,5151.509
8,287,catch,"[(1100, 893)]",[],[1],[0.05],horizontal,"(890.0, 762.0)",0.833333333,nan,1,5156.447
8,288,catch,"[(1095, 893)]",[],[1],[0.05],horizontal,"(390.0, 762.0)",1.5,nan,1,5160.37
8,289,catch,"[(1112, 890)]",[],[1],[],horizontal,"(890.0, 762.0)",,cti_phase,0,5165.157
8,290,catch,"[(1095, 898)]",[],[1],[0.05],horizontal,"(390.0, 762.0)",1.216666667,nan,1,5169.48
8,291,catch,"[(1104, 874)]",[],[1],[0.05],vertical,"(390.0, 762.0)",0.666666667,nan,1,5173.687
8,292,catch,"[(1097, 882)]",[],[1],[0.05],horizontal,"(890.0, 762.0)",1.2,cti_phase,1,5177.76
8,293,catch,"[(1095, 902)]",[],[1],[0.05],vertical,"(390.0, 262.0)",0.95,nan,1,5182.429
8,294,catch,"[(1095, 899)]",[],[1],[0.05],vertical,"(890.0, 262.0)",0.933333333,nan,1,5186.697
8,295,catch,"[(1071, 936)]",[],[1],[0.05],horizontal,"(390.0, 762.0)",0.933333333,nan,1,5190.497
8,296,catch,"[(1066, 916)]",[],[1],[0.05],horizontal,"(890.0, 262.0)",1.233333333,nan,1,5196.364
8,297,catch,"[(1106, 932)]",[],[1],[],vertical,"(890.0, 762.0)",,cti_phase,0,5200.913
8,298,catch,"[(1104, 879)]",[],[1],[0.05],vertical,"(390.0, 762.0)",1.55,nan,1,5207.844
8,299,catch,"[(1071, 927)]",[],[1],[],horizontal,"(390.0, 262.0)",,cti_phase,0,5212.48
8,300,catch,"[(1100, 880)]",[],[1],[0.05],horizontal,"(890.0, 762.0)",1.033333333,nan,1,5217.147
9,301,target,"[(1104, 893)]",[],[1],[0.5666666666666667],horizontal,"(390.0, 762.0)",0.766666667,0.528,1,5221.362
9,302,target,"[(1099, 892)]",[],[1],[0.55],vertical,"(390.0, 262.0)",0.6,0.506,1,5226.247
9,303,target,"[(1095, 897)]",[],[1],[0.43333333333333335],vertical,"(890.0, 262.0)",1.3,0.398,1,5230.481
9,304,target,"[(1121, 912)]",[],[1],[0.5666666666666667],horizontal,"(390.0, 762.0)",0.85,0.527,1,5235.256
9,305,target,"[(1099, 906)]",[],[1],[0.5333333333333333],vertical,"(390.0, 262.0)",0.583333333,0.494,1,5239.263
9,306,target,"[(1114, 877)]",[],[1],[0.2],vertical,"(890.0, 262.0)",1.6,0.166,1,5243.765
9,307,target,"[(1098, 901)]",[],[1],[0.3333333333333333],horizontal,"(890.0, 762.0)",1.45,0.302,1,5248.329
9,308,target,"[(1095, 906)]",[],[1],[0.6],vertical,"(890.0, 262.0)",0.733333333,0.556,1,5253.032
9,309,target,"[(1105, 877)]",[],[1],[0.26666666666666666],horizontal,"(390.0, 762.0)",1.566666667,0.231,1,5257.532
9,310,target,"[(1098, 915)]",[],[1],[0.4166666666666667],vertical,"(390.0, 262.0)",1.433333333,0.378,1,5262.032
9,311,target,"[(1095, 893)]",[],[1],[0.6],vertical,"(390.0, 262.0)",0.983333333,0.557,1,5266.946
9,312,target,"[(1095, 895)]",[],[1],[0.4666666666666667],horizontal,"(390.0, 262.0)",0.566666667,0.428,1,5271.82
9,313,target,"[(1114, 899)]",[],[1],[0.6],vertical,"(390.0, 762.0)",1.116666667,0.564,1,5276.079
9,314,target,"[(1095, 902)]",[],[1],[0.55],vertical,"(390.0, 262.0)",1.1,0.509,1,5280.649
9,315,target,"[(1099, 891)]",[],[1],[0.31666666666666665],vertical,"(390.0, 762.0)",1.216666667,0.282,1,5285.465
9,316,target,"[(1075, 909)]",[],[1],[0.5333333333333333],vertical,"(890.0, 262.0)",1.1,0.501,1,5289.957
9,317,target,"[(1095, 876)]",[],[1],[0.5833333333333334],vertical,"(890.0, 762.0)",0.583333333,0.541,1,5294.231
9,318,target,"[(1100, 897)]",[],[1],[0.35],horizontal,"(890.0, 762.0)",1,0.312,1,5298.363
9,319,target,"[(1105, 902)]",[],[1],[0.08333333333333333],vertical,"(390.0, 262.0)",1.533333333,0.051,1,5302.498
9,320,target,"[(1105, 901)]",[],[1],[0.35],vertical,"(890.0, 262.0)",1.616666667,0.311,1,5307.381
9,321,target,"[(1104, 898)]",[],[1],[0.5666666666666667],horizontal,"(390.0, 762.0)",0.95,0.528,1,5312.28
9,322,target,"[(1119, 903)]",[],[1],[0.55],vertical,"(390.0, 262.0)",1.116666667,0.513,1,5316.796
9,323,target,"[(1104, 885)]",[],[1],[],vertical,"(390.0, 762.0)",,cti_phase,0,5321.666
9,324,target,"[(1097, 892)]",[],[1],[0.23333333333333334],vertical,"(890.0, 762.0)",1.216666667,0.202,1,5326.216
9,325,target,"[(1067, 892)]",[],[1],[0.48333333333333334],horizontal,"(890.0, 262.0)",0.8,0.445,1,5330.948
10,326,catch,"[(1095, 872)]",[],[1],[0.05],horizontal,"(390.0, 762.0)",0.533333333,nan,1,5335.423
10,327,catch,"[(1071, 912)]",[],[1],[],vertical,"(890.0, 762.0)",,cti_phase,0,5338.581
10,328,catch,"[(1120, 881)]",[],[1],[0.05],vertical,"(890.0, 762.0)",0.833333333,nan,1,5343.646
10,329,catch,"[(1104, 877)]",[],[1],[0.05],vertical,"(890.0, 262.0)",1.616666667,nan,1,5347.482
10,330,catch,"[(1110, 897)]",[],[1],[],horizontal,"(390.0, 262.0)",,cti_phase,0,5352.131
10,331,catch,"[(1097, 869)]",[],[1],[0.05],horizontal,"(390.0, 762.0)",1.033333333,nan,1,5359.298
10,332,catch,"[(1096, 868)]",[],[1],[],vertical,"(890.0, 762.0)",,cti_phase,0,5363.025
10,333,catch,"[(1119, 899)]",[],[1],[0.05],horizontal,"(390.0, 262.0)",0.783333333,nan,1,5366.614
10,334,catch,"[(1068, 918)]",[],[1],[0.05],horizontal,"(890.0, 762.0)",0.616666667,nan,1,5370.631
10,335,catch,"[(1112, 899)]",[],[1],[0.05],horizontal,"(890.0, 262.0)",0.6,nan,1,5374.847
10,336,catch,"[(1124, 912)]",[],[1],[],horizontal,"(390.0, 262.0)",,cti_phase,0,5378.669
10,337,catch,"[(776, 686), (1124, 873)]",[],"[0, 1]",[],vertical,"(390.0, 762.0)",,cti_phase,0,5382.181
10,338,catch,"[(1109, 897)]",[],[1],[0.05],horizontal,"(390.0, 262.0)",1.583333333,nan,1,5386.53
10,339,catch,"[(1120, 888)]",[],[1],[],vertical,"(390.0, 762.0)",,cti_phase,0,5391.115
10,340,catch,"[(790, 847), (1047, 906)]",[],"[0, 1]",[],horizontal,"(890.0, 762.0)",,fix_phase,0,5395.65
10,341,catch,"[(1133, 896)]",[],[1],[0.05],horizontal,"(890.0, 262.0)",0.916666667,nan,1,5398.099
10,342,catch,"[(1110, 905)]",[],[1],[0.05],horizontal,"(890.0, 762.0)",0.933333333,nan,1,5401.913
10,343,catch,"[(833, 704), (1103, 894)]",[],"[0, 1]",[0.05],horizontal,"(390.0, 762.0)",0.8,nan,1,5406.281
10,344,catch,"[(722, 898), (1129, 854)]",[],"[0, 1]",[0.05],horizontal,"(890.0, 762.0)",1.2,nan,1,5410.15
10,345,catch,"[(1100, 900)]",[],[1],[],horizontal,"(390.0, 762.0)",,cti_phase,0,5416.007
10,346,catch,"[(1124, 878)]",[],[1],[0.05],vertical,"(890.0, 262.0)",0.5,nan,1,5420.283
10,347,catch,"[(1063, 922)]",[],[1],[0.05],vertical,"(890.0, 762.0)",0.516666667,nan,1,5423.955
10,348,catch,"[(1099, 898)]",[],[1],[0.05],vertical,"(890.0, 762.0)",0.65,nan,1,5427.544
10,349,catch,"[(901, 750), (1122, 873)]",[],"[0, 1]",[],horizontal,"(890.0, 762.0)",,cti_phase,0,5431.772
10,350,catch,"[(136, 401), (211, 277), (165, 522), (756, 622), (620, 538), (180, 522), (807, 288), (708, 357), (809, 637), (117, 578), (635, 551), (334, 465), (299, 417), (78, 446), (629, 308), (204, 347), (349, 444), (571, 357), (107, 391), (185, 550), (340, 399), (301, 642), (688, 401), (1164, 885)]",[],"[0, 0, 0, 0, 0, 0, 0, 0, 0, 0, 0, 0, 0, 0, 0, 0, 0, 0, 0, 0, 0, 0, 0, 1]",[],horizontal,"(390.0, 262.0)",,fix_phase,0,5437.786
10,351,catch,"[(1119, 899)]","[(1068, 907)]",[1],[0.43333333333333335],horizontal,"(890.0, 262.0)",,bar_phase,0,5452.166
10,352,catch,"[(190, 902), (1071, 901)]",[],"[0, 1]",[],horizontal,"(390.0, 262.0)",,fix_phase,0,5454.886
10,353,catch,"[(1153, 868)]","[(1097, 886)]",[1],[0.3],horizontal,"(390.0, 262.0)",,bar_phase,0,5457.077
10,354,catch,"[(1158, 873)]",[],[1],[],vertical,"(890.0, 762.0)",,fix_phase,0,5459.664
10,355,catch,"[(1075, 895)]",[],[1],[],vertical,"(890.0, 762.0)",,fix_phase,0,5461.93
10,356,catch,"[(673, 873), (1071, 904)]",[],"[0, 1]",[0.05],vertical,"(890.0, 262.0)",1.05,fix_phase,1,5463.999
10,357,catch,"[(354, 445), (1070, 898)]",[],"[0, 1]",[],horizontal,"(890.0, 762.0)",,cti_phase,0,5468.232
10,358,catch,"[(1129, 899)]",[],[1],[],vertical,"(890.0, 262.0)",,cti_phase,0,5472.782
10,359,catch,"[(1129, 866)]",[],[1],[0.05],vertical,"(390.0, 762.0)",0.983333333,nan,1,5476.647
10,360,catch,"[(1129, 897)]",[],[1],[],horizontal,"(390.0, 762.0)",,cti_phase,0,5480.979
10,361,catch,"[(746, 607), (1066, 898)]",[],"[0, 1]",[],horizontal,"(390.0, 762.0)",,fix_phase,0,5484.747
10,362,catch,"[(1170, 868)]",[],[1],[0.05],horizontal,"(890.0, 262.0)",1.166666667,nan,1,5486.618
10,363,catch,"[(1100, 881)]","[(1072, 883)]",[1],[0.2],vertical,"(890.0, 762.0)",,bar_phase,0,5491.077
10,364,catch,"[(1155, 880)]",[],[1],[],horizontal,"(890.0, 762.0)",,cti_phase,0,5493.632
10,365,catch,"[(742, 411), (1172, 863)]",[],"[0, 1]",[],vertical,"(390.0, 262.0)",,cti_phase,0,5497.497
10,366,catch,"[(1124, 879)]",[],[1],[0.05],horizontal,"(890.0, 262.0)",1.383333333,nan,1,5503.564
10,367,catch,"[(1104, 883)]",[],[1],[0.05],vertical,"(890.0, 262.0)",0.7,nan,1,5508.297
10,368,catch,"[(1104, 902)]",[],[1],[0.05],horizontal,"(390.0, 262.0)",0.533333333,nan,1,5512.507
10,369,catch,"[(1104, 894)]",[],[1],[],horizontal,"(890.0, 262.0)",,cti_phase,0,5516.014
10,370,catch,"[(1125, 880)]","[(1078, 884)]",[1],[0.15],horizontal,"(890.0, 762.0)",,bar_phase,0,5520.766
10,371,catch,"[(891, 593), (1115, 872)]",[],"[0, 1]",[0.05],horizontal,"(390.0, 762.0)",1.433333333,cti_phase,1,5523.115
10,372,catch,"[(1123, 875)]",[],[1],[0.05],vertical,"(890.0, 262.0)",1.233333333,nan,1,5528.154
10,373,catch,"[(1062, 932)]",[],[1],[0.05],horizontal,"(390.0, 762.0)",0.766666667,nan,1,5534.632
10,374,catch,"[(1104, 883)]",[],[1],[0.05],horizontal,"(390.0, 262.0)",1.133333333,nan,1,5538.781
10,375,catch,"[(1116, 878)]",[],[1],[0.05],vertical,"(890.0, 262.0)",0.7,nan,1,5542.93
11,376,target,"[(1134, 859)]",[],[1],[],vertical,"(890.0, 762.0)",,cti_phase,0,5546.808
11,377,target,"[(1112, 876)]",[],[1],[0.6],horizontal,"(890.0, 762.0)",1.066666667,0.557,1,5553.03
11,378,target,"[(1129, 882)]",[],[1],[0.5333333333333333],vertical,"(390.0, 262.0)",0.85,0.496,1,5557.265
11,379,target,"[(1124, 906)]",[],[1],[0.4166666666666667],vertical,"(890.0, 762.0)",0.683333333,0.372,1,5561.548
11,380,target,"[(1129, 876)]",[],[1],[0.6333333333333333],horizontal,"(390.0, 262.0)",0.816666667,0.592,1,5565.847
11,381,target,"[(1127, 896)]",[],[1],[],vertical,"(890.0, 762.0)",,cti_phase,0,5570.214
11,382,target,"[(1130, 878)]",[],[1],[0.5333333333333333],vertical,"(390.0, 262.0)",0.616666667,0.491,1,5574.615
11,383,target,"[(1103, 892)]",[],[1],[0.45],horizontal,"(890.0, 262.0)",1.666666667,0.411,1,5578.748
11,384,target,"[(1129, 892)]",[],[1],[0.5166666666666666],vertical,"(390.0, 762.0)",1.55,0.479,1,5583.58
11,385,target,"[(1124, 902)]",[],[1],[0.25],vertical,"(890.0, 262.0)",1.383333333,0.221,1,5588.631
11,386,target,"[(1105, 914)]",[],[1],[0.4166666666666667],horizontal,"(890.0, 262.0)",1.35,0.376,1,5593.302
11,387,target,"[(1126, 902)]",[],[1],[0.85],vertical,"(890.0, 762.0)",1.166666667,nan,0,5598.368
11,388,target,"[(1129, 883)]",[],[1],[0.5],horizontal,"(890.0, 262.0)",0.966666667,0.459,1,5603.135
11,389,target,"[(1100, 895)]",[],[1],[0.45],horizontal,"(890.0, 762.0)",1.066666667,0.41,1,5607.642
11,390,target,"[(1102, 902)]",[],[1],[0.48333333333333334],vertical,"(890.0, 262.0)",0.616666667,0.446,1,5612.468
11,391,target,"[(1105, 892)]",[],[1],[0.3833333333333333],vertical,"(390.0, 262.0)",1.333333333,0.347,1,5616.998
11,392,target,"[(1105, 892)]",[],[1],[0.3],horizontal,"(890.0, 262.0)",1.15,0.268,1,5621.784
11,393,target,"[(1125, 888)]",[],[1],[0.65],vertical,"(890.0, 262.0)",0.7,0.604,1,5626.347
11,394,target,"[(1138, 878)]",[],[1],[0.48333333333333334],vertical,"(890.0, 262.0)",1.35,0.446,1,5631.032
11,395,target,"[(1100, 872)]",[],[1],[0.5833333333333334],horizontal,"(390.0, 762.0)",0.816666667,0.538,1,5635.748
11,396,target,"[(1100, 889)]",[],[1],[0.5166666666666666],vertical,"(890.0, 262.0)",0.683333333,0.474,1,5640.137
11,397,target,"[(1061, 889)]",[],[1],[0.85],horizontal,"(890.0, 762.0)",1.333333333,nan,0,5644.582
11,398,target,"[(1127, 897)]",[],[1],[0.5333333333333333],vertical,"(890.0, 762.0)",0.716666667,0.494,1,5649.948
11,399,target,"[(1128, 898)]",[],[1],[0.85],vertical,"(390.0, 762.0)",1.666666667,nan,0,5654.303
11,400,target,"[(1071, 905)]",[],[1],[0.5833333333333334],horizontal,"(390.0, 262.0)",0.683333333,0.547,1,5659.587
12,401,catch,"[(1103, 903)]",[],[1],[0.05],vertical,"(390.0, 262.0)",0.666666667,nan,1,5666.732
12,402,catch,"[(1100, 887)]",[],[1],[0.05],horizontal,"(890.0, 262.0)",1.3,nan,1,5670.282
12,403,catch,"[(1100, 893)]",[],[1],[0.05],vertical,"(390.0, 762.0)",1.2,nan,1,5675.188
12,404,catch,"[(807, 618), (1073, 885)]",[],"[0, 1]",[0.05],horizontal,"(390.0, 762.0)",0.616666667,nan,1,5679.798
12,405,catch,"[(1103, 882)]",[],[1],[0.05],horizontal,"(890.0, 262.0)",1.283333333,nan,1,5685.683
12,406,catch,"[(1100, 897)]",[],[1],[0.05],horizontal,"(390.0, 762.0)",1.416666667,nan,1,5690.668
12,407,catch,"[(1119, 878)]",[],[1],[0.05],vertical,"(890.0, 762.0)",0.566666667,nan,1,5695.392
12,408,catch,"[(1104, 892)]",[],[1],[0.05],vertical,"(890.0, 262.0)",1.466666667,nan,1,5704.261
12,409,catch,"[(1085, 867)]",[],[1],[0.05],horizontal,"(390.0, 762.0)",1.483333333,nan,1,5709.026
12,410,catch,"[(1110, 902)]",[],[1],[0.05],horizontal,"(890.0, 762.0)",0.8,nan,1,5715.079
12,411,catch,"[(1100, 892)]",[],[1],[0.05],vertical,"(890.0, 262.0)",0.5,nan,1,5718.781
12,412,catch,"[(1100, 880)]",[],[1],[0.05],horizontal,"(890.0, 262.0)",0.766666667,nan,1,5722.512
12,413,catch,"[(838, 907), (1123, 897)]",[],"[0, 1]",[],horizontal,"(890.0, 762.0)",,cti_phase,0,5726.304
12,414,catch,"[(1104, 898)]",[],[1],[0.05],horizontal,"(890.0, 762.0)",0.683333333,nan,1,5737.617
12,415,catch,"[(354, 220), (117, 258), (242, 329), (34, 532), (364, 293), (592, 141), (1071, 882)]","[(1075, 896)]","[0, 0, 0, 0, 0, 0, 1]",[0.2],horizontal,"(890.0, 262.0)",,bar_phase,0,5741.266
12,416,catch,"[(122, 375), (1118, 907)]",[],"[0, 1]",[],vertical,"(390.0, 762.0)",,cti_phase,0,5750.317
12,417,catch,"[(73, 260), (504, 514), (1179, 371), (644, 314), (1150, 840)]",[],"[0, 0, 0, 0, 1]",[],vertical,"(390.0, 762.0)",,fix_phase,0,5753.44
12,418,catch,"[(276, 175), (262, 209), (1075, 884)]",[],"[0, 0, 1]",[],vertical,"(890.0, 262.0)",,fix_phase,0,5757.25
12,419,catch,"[(1121, 854)]","[(1071, 866)]",[1],[0.5333333333333333],horizontal,"(890.0, 262.0)",,bar_phase,0,5760.057
12,420,catch,"[(751, 411), (1115, 896)]",[],"[0, 1]",[0.05],vertical,"(890.0, 762.0)",0.5,nan,1,5762.949
12,421,catch,"[(136, 190), (1110, 898)]",[],"[0, 1]",[0.05],horizontal,"(890.0, 262.0)",1.333333333,nan,1,5766.462
12,422,catch,"[(1126, 884)]","[(1076, 892)]",[1],[0.2833333333333333],horizontal,"(890.0, 762.0)",,bar_phase,0,5771.008
12,423,catch,"[(1121, 904)]","[(1084, 906)]",[1],[0.7166666666666667],vertical,"(890.0, 762.0)",,bar_phase,0,5773.441
12,424,catch,"[(1105, 898)]",[],[1],[0.05],vertical,"(890.0, 262.0)",0.733333333,nan,1,5776.367
12,425,catch,"[(1104, 897)]",[],[1],[],horizontal,"(890.0, 762.0)",,cti_phase,0,5780.143
12,426,catch,"[(1009, 627), (1134, 898)]",[],"[0, 1]",[],horizontal,"(890.0, 762.0)",,cti_phase,0,5783.782
12,427,catch,"[(1127, 894)]",[],[1],[],vertical,"(390.0, 262.0)",,cti_phase,0,5788.133
12,428,catch,"[(1124, 917)]",[],[1],[0.05],horizontal,"(890.0, 762.0)",0.6,nan,1,5790.983
12,429,catch,"[(737, 255), (1104, 893)]",[],"[0, 1]",[0.05],horizontal,"(390.0, 262.0)",0.666666667,nan,1,5794.402
12,430,catch,"[(872, 308), (1104, 894)]",[],"[0, 1]",[0.05],vertical,"(890.0, 262.0)",1.266666667,cti_phase,1,5798.537
12,431,catch,"[(1110, 894)]",[],[1],[0.05],vertical,"(890.0, 762.0)",0.966666667,nan,1,5803.2
12,432,catch,"[(580, 696), (1135, 851)]",[],"[0, 1]",[0.05],horizontal,"(390.0, 262.0)",1.116666667,nan,1,5807.455
12,433,catch,"[(1104, 892)]",[],[1],[0.05],horizontal,"(890.0, 762.0)",1.066666667,nan,1,5812.852
12,434,catch,"[(1075, 916)]","[(1067, 905)]",[1],[0.75],vertical,"(390.0, 762.0)",,bar_phase,0,5817.332
12,435,catch,"[(1075, 898)]","[(1075, 898)]",[1],[0.6333333333333333],vertical,"(390.0, 762.0)",,bar_phase,0,5820.316
12,436,catch,"[(1099, 881)]",[],[1],[],horizontal,"(890.0, 262.0)",,cti_phase,0,5823.149
12,437,catch,"[(1104, 880)]",[],[1],[0.05],horizontal,"(390.0, 762.0)",0.783333333,nan,1,5827.3
12,438,catch,"[(1110, 880)]",[],[1],[0.05],vertical,"(390.0, 262.0)",0.516666667,nan,1,5831.101
12,439,catch,"[(1104, 897)]",[],[1],[],vertical,"(890.0, 262.0)",,cti_phase,0,5834.599
12,440,catch,"[(1100, 890)]",[],[1],[0.05],vertical,"(390.0, 262.0)",1.1,nan,1,5838.549
12,441,catch,"[(1119, 906)]",[],[1],[0.05],vertical,"(390.0, 262.0)",0.883333333,nan,1,5843.048
12,442,catch,"[(1109, 885)]",[],[1],[],vertical,"(890.0, 262.0)",,cti_phase,0,5846.877
12,443,catch,"[(1105, 892)]",[],[1],[0.05],vertical,"(390.0, 262.0)",0.866666667,nan,1,5851.5
12,444,catch,"[(1107, 890)]",[],[1],[0.05],vertical,"(390.0, 262.0)",0.65,nan,1,5855.317
12,445,catch,"[(1090, 890)]",[],[1],[0.05],horizontal,"(390.0, 262.0)",0.65,nan,1,5859.074
12,446,catch,"[(1104, 907)]",[],[1],[0.05],horizontal,"(890.0, 262.0)",0.866666667,nan,1,5863.166
12,447,catch,"[(1104, 896)]",[],[1],[0.05],vertical,"(390.0, 762.0)",1,nan,1,5867.717
12,448,catch,"[(1101, 908)]",[],[1],[0.05],vertical,"(890.0, 762.0)",0.816666667,nan,1,5872.288
12,449,catch,"[(1108, 903)]",[],[1],[0.05],horizontal,"(390.0, 262.0)",0.883333333,nan,1,5876.318
12,450,catch,"[(1104, 877)]",[],[1],[],vertical,"(890.0, 262.0)",,cti_phase,0,5880.079
13,451,target,"[(1124, 885)]",[],[1],[0.7],horizontal,"(390.0, 762.0)",0.65,0.658,1,5884.465
13,452,target,"[(1109, 910)]",[],[1],[],horizontal,"(390.0, 262.0)",,cti_phase,0,5889.438
13,453,target,"[(1109, 898)]",[],[1],[0.35],vertical,"(890.0, 762.0)",0.8,0.318,1,5893.534
13,454,target,"[(1108, 897)]",[],[1],[0.7],vertical,"(390.0, 262.0)",1,0.66,1,5897.556
13,455,target,"[(1109, 917)]",[],[1],[0.48333333333333334],vertical,"(890.0, 262.0)",1,0.451,1,5902.234
13,456,target,"[(1103, 898)]",[],[1],[0.6833333333333333],vertical,"(890.0, 262.0)",0.55,0.645,1,5906.583
13,457,target,"[(1104, 903)]",[],[1],[0.13333333333333333],vertical,"(890.0, 762.0)",1.266666667,0.105,1,5911.148
13,458,target,"[(1104, 899)]",[],[1],[0.5],horizontal,"(390.0, 262.0)",0.633333333,0.46,1,5915.351
13,459,target,"[(1104, 897)]",[],[1],[0.85],vertical,"(890.0, 762.0)",0.866666667,nan,0,5919.748
13,460,target,"[(1104, 899)]",[],[1],[0.5333333333333333],horizontal,"(390.0, 262.0)",0.716666667,0.495,1,5924.633
13,461,target,"[(1104, 888)]",[],[1],[0.6333333333333333],vertical,"(890.0, 762.0)",0.55,0.588,1,5936.651
13,462,target,"[(1104, 896)]",[],[1],[0.5],horizontal,"(890.0, 262.0)",1.083333333,0.459,1,5941.232
13,463,target,"[(1091, 871)]",[],[1],[],horizontal,"(390.0, 762.0)",,cti_phase,0,5945.75
13,464,target,"[(1104, 894)]",[],[1],[0.48333333333333334],horizontal,"(390.0, 262.0)",0.966666667,0.442,1,5950.503
13,465,target,"[(1104, 897)]",[],[1],[0.45],horizontal,"(390.0, 762.0)",1.283333333,0.407,1,5954.933
13,466,target,"[(1102, 887)]",[],[1],[0.45],horizontal,"(390.0, 262.0)",0.666666667,0.413,1,5959.75
13,467,target,"[(1106, 909)]",[],[1],[0.5666666666666667],horizontal,"(890.0, 762.0)",0.633333333,0.522,1,5964.082
13,468,target,"[(1105, 909)]",[],[1],[0.55],vertical,"(890.0, 762.0)",0.533333333,0.505,1,5968.334
13,469,target,"[(1110, 897)]",[],[1],[0.5666666666666667],vertical,"(890.0, 762.0)",0.55,0.527,1,5972.749
13,470,target,"[(1104, 922)]",[],[1],[0.5333333333333333],horizontal,"(390.0, 762.0)",0.966666667,0.5,1,5976.833
13,471,target,"[(1105, 901)]",[],[1],[0.5333333333333333],horizontal,"(390.0, 762.0)",0.95,0.494,1,5981.183
13,472,target,"[(1090, 902)]",[],[1],[0.55],vertical,"(390.0, 762.0)",0.883333333,0.509,1,5985.601
13,473,target,"[(1105, 907)]",[],[1],[0.6166666666666667],vertical,"(890.0, 762.0)",0.6,0.574,1,5990.151
13,474,target,"[(1104, 908)]",[],[1],[0.5333333333333333],horizontal,"(890.0, 762.0)",0.833333333,0.494,1,5994.116
13,475,target,"[(1108, 909)]",[],[1],[0.55],vertical,"(390.0, 762.0)",1.016666667,0.513,1,5998.634
14,476,catch,"[(1125, 901)]",[],[1],[0.05],vertical,"(390.0, 262.0)",0.5,nan,1,6002.896
14,477,catch,"[(1109, 884)]",[],[1],[0.05],horizontal,"(890.0, 262.0)",1.35,nan,1,6006.434
14,478,catch,"[(1104, 873)]",[],[1],[0.05],vertical,"(890.0, 262.0)",1.483333333,nan,1,6010.532
14,479,catch,"[(1104, 897)]",[],[1],[],vertical,"(390.0, 762.0)",,cti_phase,0,6016.116
14,480,catch,"[(1102, 897)]",[],[1],[0.05],horizontal,"(890.0, 762.0)",0.933333333,nan,1,6020.823
14,481,catch,"[(1104, 924)]",[],[1],[0.05],vertical,"(890.0, 262.0)",0.75,nan,1,6024.716
14,482,catch,"[(1104, 919)]",[],[1],[0.05],horizontal,"(890.0, 762.0)",1.033333333,nan,1,6029.017
14,483,catch,"[(1128, 902)]",[],[1],[0.05],horizontal,"(890.0, 762.0)",0.716666667,nan,1,6033.333
14,484,catch,"[(1095, 899)]",[],[1],[],horizontal,"(390.0, 262.0)",,cti_phase,0,6037.089
14,485,catch,"[(1104, 898)]",[],[1],[0.05],horizontal,"(390.0, 262.0)",0.683333333,nan,1,6041.383
14,486,catch,"[(1104, 904)]",[],[1],[0.05],horizontal,"(890.0, 762.0)",1.083333333,nan,1,6048.35
14,487,catch,"[(1104, 894)]",[],[1],[],horizontal,"(390.0, 262.0)",,cti_phase,0,6053.1
14,488,catch,"[(1109, 866)]",[],[1],[0.05],horizontal,"(390.0, 262.0)",1.683333333,nan,1,6057.787
14,489,catch,"[(1124, 893)]",[],[1],[0.05],horizontal,"(390.0, 262.0)",1.1,nan,1,6063.811
14,490,catch,"[(1104, 898)]",[],[1],[],vertical,"(390.0, 762.0)",,cti_phase,0,6068.134
14,491,catch,"[(1124, 893)]",[],[1],[],vertical,"(890.0, 762.0)",,cti_phase,0,6072.602
14,492,catch,"[(1129, 880)]",[],[1],[0.05],vertical,"(390.0, 762.0)",1.533333333,nan,1,6077.151
14,493,catch,"[(1104, 889)]",[],[1],[0.05],horizontal,"(390.0, 762.0)",0.7,nan,1,6081.823
14,494,catch,"[(1108, 879)]",[],[1],[0.05],vertical,"(890.0, 262.0)",1.166666667,nan,1,6085.963
14,495,catch,"[(1123, 897)]",[],[1],[0.05],vertical,"(890.0, 762.0)",0.716666667,nan,1,6090.502
14,496,catch,"[(1107, 897)]",[],[1],[0.05],horizontal,"(890.0, 762.0)",0.95,nan,1,6094.637
14,497,catch,"[(1105, 909)]",[],[1],[0.05],horizontal,"(390.0, 762.0)",1.25,nan,1,6098.799
14,498,catch,"[(1110, 902)]",[],[1],[0.05],vertical,"(390.0, 262.0)",1.066666667,nan,1,6103.4
14,499,catch,"[(1104, 900)]",[],[1],[0.05],vertical,"(390.0, 762.0)",0.666666667,nan,1,6107.8
14,500,catch,"[(1104, 893)]",[],[1],[],vertical,"(890.0, 762.0)",,cti_phase,0,6111.435
14,501,catch,"[(1122, 876)]",[],[1],[],horizontal,"(390.0, 262.0)",,cti_phase,0,6115.484
14,502,catch,"[(1143, 898)]",[],[1],[],horizontal,"(390.0, 262.0)",,cti_phase,0,6120.017
14,503,catch,"[(1109, 897)]",[],[1],[0.05],horizontal,"(390.0, 262.0)",1.166666667,nan,1,6124.267
14,504,catch,"[(1104, 900)]",[],[1],[0.05],horizontal,"(390.0, 262.0)",1.666666667,nan,1,6128.483
14,505,catch,"[(1115, 903)]",[],[1],[0.05],vertical,"(390.0, 762.0)",1.383333333,nan,1,6133.133
14,506,catch,"[(1104, 893)]",[],[1],[],horizontal,"(390.0, 762.0)",,cti_phase,0,6137.717
14,507,catch,"[(1104, 889)]",[],[1],[0.05],vertical,"(390.0, 262.0)",0.766666667,nan,1,6142.201
14,508,catch,"[(1110, 870)]",[],[1],[0.05],vertical,"(890.0, 262.0)",1.566666667,nan,1,6146.202
14,509,catch,"[(1104, 902)]",[],[1],[0.05],horizontal,"(890.0, 762.0)",0.7,nan,1,6150.893
14,510,catch,"[(1108, 889)]",[],[1],[0.05],horizontal,"(390.0, 762.0)",1.183333333,nan,1,6154.651
14,511,catch,"[(1104, 903)]",[],[1],[0.05],horizontal,"(890.0, 262.0)",1.133333333,nan,1,6159.016
14,512,catch,"[(1104, 902)]",[],[1],[0.05],vertical,"(390.0, 262.0)",0.8,nan,1,6163.433
14,513,catch,"[(1103, 911)]",[],[1],[],horizontal,"(390.0, 262.0)",,cti_phase,0,6167.521
14,514,catch,"[(1104, 891)]",[],[1],[0.05],horizontal,"(390.0, 762.0)",0.616666667,nan,1,6172.059
14,515,catch,"[(1104, 889)]",[],[1],[],vertical,"(890.0, 762.0)",,cti_phase,0,6176.05
14,516,catch,"[(1109, 875)]",[],[1],[0.05],horizontal,"(390.0, 762.0)",0.65,nan,1,6180.567
14,517,catch,"[(1110, 876)]",[],[1],[0.05],vertical,"(390.0, 262.0)",1.05,nan,1,6184.557
14,518,catch,"[(1104, 906)]",[],[1],[0.05],horizontal,"(890.0, 762.0)",0.683333333,nan,1,6189.267
14,519,catch,"[(1104, 897)]",[],[1],[],horizontal,"(390.0, 762.0)",,cti_phase,0,6193.287
14,520,catch,"[(1104, 894)]",[],[1],[0.05],horizontal,"(890.0, 262.0)",1.566666667,nan,1,6198.033
14,521,catch,"[(1104, 889)]",[],[1],[0.05],horizontal,"(390.0, 262.0)",1.066666667,nan,1,6202.732
14,522,catch,"[(1104, 905)]",[],[1],[],horizontal,"(390.0, 262.0)",,cti_phase,0,6206.584
14,523,catch,"[(1105, 869)]",[],[1],[0.05],horizontal,"(890.0, 762.0)",1.116666667,cti_phase,1,6211
14,524,catch,"[(1101, 883)]",[],[1],[0.05],vertical,"(890.0, 262.0)",0.616666667,nan,1,6215.256
14,525,catch,"[(1105, 898)]",[],[1],[0.05],vertical,"(390.0, 762.0)",1.216666667,nan,1,6219.101
15,526,target,"[(1104, 898)]",[],[1],[0.4666666666666667],vertical,"(890.0, 262.0)",0.65,0.428,1,6223.384
15,527,target,"[(1104, 888)]",[],[1],[0.6],vertical,"(890.0, 762.0)",0.6,0.556,1,6227.934
15,528,target,"[(1117, 909)]",[],[1],[0.5166666666666666],horizontal,"(390.0, 762.0)",0.95,0.476,1,6232.033
15,529,target,"[(1125, 909)]",[],[1],[0.85],vertical,"(390.0, 762.0)",1.216666667,cti_phase,0,6236.584
15,530,target,"[(1104, 865)]",[],[1],[0.43333333333333335],horizontal,"(890.0, 262.0)",1.666666667,0.396,1,6241.702
15,531,target,"[(1105, 894)]",[],[1],[0.5666666666666667],vertical,"(390.0, 262.0)",1.016666667,0.524,1,6246.516
15,532,target,"[(1108, 887)]",[],[1],[0.48333333333333334],horizontal,"(890.0, 762.0)",0.716666667,0.441,1,6251.064
15,533,target,"[(1104, 903)]",[],[1],[0.18333333333333332],vertical,"(890.0, 762.0)",1.216666667,0.148,1,6255.668
15,534,target,"[(1104, 902)]",[],[1],[0.11666666666666667],horizontal,"(890.0, 762.0)",1.466666667,0.085,1,6260.096
15,535,target,"[(1108, 901)]",[],[1],[0.06666666666666667],horizontal,"(390.0, 262.0)",1.583333333,0.036,1,6264.333
15,536,target,"[(1105, 897)]",[],[1],[0.5333333333333333],horizontal,"(390.0, 262.0)",0.516666667,0.494,1,6268.868
15,537,target,"[(1086, 896)]",[],[1],[0.5],vertical,"(890.0, 262.0)",0.916666667,0.462,1,6273.085
15,538,target,"[(1104, 903)]",[],[1],[0.7333333333333333],horizontal,"(390.0, 262.0)",0.933333333,0.692,1,6277.612
15,539,target,"[(1076, 916)]",[],[1],[],horizontal,"(390.0, 262.0)",,cti_phase,0,6282.101
15,540,target,"[(1104, 896)]",[],[1],[0.5666666666666667],vertical,"(390.0, 762.0)",1.05,0.524,1,6286.551
15,541,target,"[(1106, 898)]",[],[1],[0.7666666666666666],vertical,"(390.0, 262.0)",0.616666667,0.725,1,6290.908
15,542,target,"[(1104, 908)]",[],[1],[0.3],horizontal,"(390.0, 762.0)",1.316666667,0.265,1,6295.186
15,543,target,"[(1110, 915)]",[],[1],[0.18333333333333332],horizontal,"(390.0, 762.0)",1.633333333,0.151,1,6299.637
15,544,target,"[(1110, 914)]",[],[1],[],vertical,"(890.0, 762.0)",,cti_phase,0,6304.118
15,545,target,"[(1104, 897)]",[],[1],[0.5],horizontal,"(390.0, 262.0)",1,0.452,1,6308.596
15,546,target,"[(1095, 894)]",[],[1],[0.18333333333333332],horizontal,"(390.0, 262.0)",1.466666667,0.148,1,6313.185
15,547,target,"[(1085, 901)]",[],[1],[0.5833333333333334],vertical,"(390.0, 762.0)",0.533333333,0.546,1,6317.922
15,548,target,"[(1104, 922)]",[],[1],[0.5],vertical,"(390.0, 262.0)",1.033333333,0.464,1,6322.346
15,549,target,"[(1086, 907)]",[],[1],[0.36666666666666664],horizontal,"(890.0, 762.0)",1.283333333,0.334,1,6327.236
15,550,target,"[(1104, 907)]",[],[1],[0.5166666666666666],vertical,"(390.0, 262.0)",0.95,0.478,1,6332.081
16,551,catch,"[(1110, 924)]",[],[1],[0.05],vertical,"(390.0, 762.0)",0.883333333,nan,1,6336.606
16,552,catch,"[(1104, 880)]",[],[1],[0.05],vertical,"(390.0, 262.0)",0.7,nan,1,6340.401
16,553,catch,"[(1104, 891)]",[],[1],[0.05],vertical,"(390.0, 262.0)",0.95,nan,1,6344.09
16,554,catch,"[(1108, 890)]",[],[1],[],horizontal,"(390.0, 762.0)",,cti_phase,0,6348.617
16,555,catch,"[(1105, 898)]",[],[1],[0.05],horizontal,"(390.0, 262.0)",0.5,nan,1,6353.108
16,556,catch,"[(1104, 902)]",[],[1],[0.05],horizontal,"(390.0, 262.0)",0.516666667,nan,1,6356.502
16,557,catch,"[(1105, 920)]",[],[1],[0.05],horizontal,"(390.0, 762.0)",0.966666667,nan,1,6360.051
16,558,catch,"[(1100, 912)]",[],[1],[0.05],horizontal,"(390.0, 262.0)",0.6,nan,1,6364.324
16,559,catch,"[(1104, 908)]",[],[1],[0.05],horizontal,"(390.0, 762.0)",0.533333333,nan,1,6368.086
16,560,catch,"[(1105, 902)]",[],[1],[0.05],vertical,"(390.0, 262.0)",0.533333333,nan,1,6372.356
16,561,catch,"[(1104, 893)]",[],[1],[0.05],vertical,"(890.0, 262.0)",0.8,nan,1,6376.086
16,562,catch,"[(1117, 922)]",[],[1],[0.05],horizontal,"(390.0, 262.0)",0.616666667,nan,1,6380.367
16,563,catch,"[(1104, 911)]",[],[1],[],horizontal,"(890.0, 262.0)",,cti_phase,0,6384.306
16,564,catch,"[(1106, 901)]",[],[1],[0.05],horizontal,"(390.0, 262.0)",0.766666667,nan,1,6388.635
16,565,catch,"[(1102, 898)]",[],[1],[0.05],horizontal,"(890.0, 262.0)",0.9,nan,1,6392.623
16,566,catch,"[(1100, 898)]",[],[1],[0.05],horizontal,"(890.0, 262.0)",0.733333333,nan,1,6396.768
16,567,catch,"[(1101, 897)]",[],[1],[],horizontal,"(890.0, 262.0)",,cti_phase,0,6400.453
16,568,catch,"[(1104, 907)]",[],[1],[0.05],horizontal,"(390.0, 262.0)",1.55,nan,1,6405.134
16,569,catch,"[(1119, 907)]",[],[1],[0.05],horizontal,"(890.0, 262.0)",1.416666667,nan,1,6409.533
16,570,catch,"[(1106, 912)]",[],[1],[0.05],horizontal,"(390.0, 262.0)",1.25,nan,1,6413.568
16,571,catch,"[(1104, 922)]",[],[1],[0.05],vertical,"(890.0, 762.0)",0.933333333,nan,1,6417.702
16,572,catch,"[(1104, 919)]",[],[1],[0.05],vertical,"(390.0, 262.0)",0.6,nan,1,6421.868
16,573,catch,"[(1083, 895)]",[],[1],[0.05],horizontal,"(890.0, 262.0)",0.966666667,nan,1,6425.96
16,574,catch,"[(1103, 899)]",[],[1],[0.05],vertical,"(890.0, 762.0)",0.816666667,nan,1,6430.696
16,575,catch,"[(1104, 903)]",[],[1],[],horizontal,"(390.0, 762.0)",,cti_phase,0,6434.347
16,576,catch,"[(1123, 898)]",[],[1],[0.05],vertical,"(390.0, 762.0)",0.55,nan,1,6438.719
16,577,catch,"[(1104, 884)]",[],[1],[0.05],vertical,"(890.0, 262.0)",1.55,nan,1,6442.757
16,578,catch,"[(1086, 897)]",[],[1],[],horizontal,"(390.0, 262.0)",,cti_phase,0,6447.537
16,579,catch,"[(1104, 876)]",[],[1],[0.05],horizontal,"(890.0, 262.0)",1.366666667,nan,1,6451.802
16,580,catch,"[(1085, 903)]",[],[1],[0.05],horizontal,"(890.0, 262.0)",1.15,nan,1,6456.292
16,581,catch,"[(1104, 907)]",[],[1],[0.05],horizontal,"(390.0, 762.0)",1.466666667,nan,1,6460.68
16,582,catch,"[(1104, 896)]",[],[1],[0.05],vertical,"(390.0, 762.0)",1.033333333,nan,1,6465.434
16,583,catch,"[(1101, 893)]",[],[1],"[0.05, 0.05]",vertical,"(890.0, 762.0)",1,nan,1,6469.619
16,584,catch,"[(1104, 903)]",[],[1],[0.05],horizontal,"(890.0, 762.0)",0.733333333,nan,1,6473.676
16,585,catch,"[(1081, 907)]",[],[1],[0.05],horizontal,"(390.0, 762.0)",1.25,nan,1,6477.278
16,586,catch,"[(1104, 903)]",[],[1],[],horizontal,"(390.0, 262.0)",,cti_phase,0,6481.886
16,587,catch,"[(1126, 879)]",[],[1],[],vertical,"(890.0, 762.0)",,cti_phase,0,6486.444
16,588,catch,"[(1104, 875)]",[],[1],[0.05],vertical,"(390.0, 262.0)",1.1,nan,1,6490.661
16,589,catch,"[(1104, 917)]",[],[1],[0.05],horizontal,"(390.0, 762.0)",0.9,nan,1,6494.736
16,590,catch,"[(1104, 898)]",[],[1],[],horizontal,"(390.0, 262.0)",,cti_phase,0,6498.969
16,591,catch,"[(1127, 879)]",[],[1],[],horizontal,"(390.0, 262.0)",,cti_phase,0,6503.502
16,592,catch,"[(1104, 883)]",[],[1],[0.05],horizontal,"(390.0, 762.0)",0.983333333,nan,1,6508.107
16,593,catch,"[(1104, 906)]",[],[1],[0.05],horizontal,"(390.0, 262.0)",1.266666667,nan,1,6512.271
16,594,catch,"[(1104, 881)]",[],[1],[0.05],vertical,"(390.0, 762.0)",0.983333333,nan,1,6516.852
16,595,catch,"[(1104, 886)]",[],[1],[],horizontal,"(390.0, 762.0)",,cti_phase,0,6521.312
16,596,catch,"[(1104, 894)]",[],[1],[0.05],vertical,"(890.0, 262.0)",1.683333333,nan,1,6525.91
16,597,catch,"[(1107, 878)]",[],[1],[],vertical,"(890.0, 762.0)",,cti_phase,0,6530.539
16,598,catch,"[(1104, 872)]",[],[1],[0.05],vertical,"(890.0, 262.0)",1.133333333,nan,1,6534.805
16,599,catch,"[(1104, 902)]",[],[1],[0.05],horizontal,"(390.0, 262.0)",1.2,nan,1,6538.652
16,600,catch,"[(1104, 917)]",[],[1],[0.05],vertical,"(890.0, 262.0)",0.65,nan,1,6543.322
17,601,target,"[(1138, 465), (590, 493), (1109, 573), (1206, 513), (1056, 912)]","[(1070, 920)]","[0, 0, 0, 0, 1]",[0.21666666666666667],vertical,"(390.0, 762.0)",,bar_phase,0,6546.791
17,602,target,"[(1073, 913)]","[(1083, 923)]",[1],[0.2],vertical,"(890.0, 262.0)",,bar_phase,0,6664.04
17,603,target,"[(1242, 514), (1109, 594), (1177, 498), (1163, 874)]","[(1076, 910)]","[0, 0, 0, 1]",[0.5666666666666667],horizontal,"(390.0, 762.0)",,bar_phase,0,6666.582
17,604,target,"[(1070, 905)]",[],[1],[],vertical,"(390.0, 262.0)",,fix_phase,0,6670.887
17,605,target,"[(1068, 894)]",[],[1],[],horizontal,"(390.0, 262.0)",,fix_phase,0,6672.855
17,606,target,"[(1078, 892)]","[(1081, 905)]",[1],[0.4166666666666667],vertical,"(890.0, 262.0)",,bar_phase,0,6676.032
17,607,target,"[(1201, 593), (1138, 868)]",[],"[0, 1]",[],horizontal,"(390.0, 762.0)",,cti_phase,0,6678.776
17,608,target,"[(1071, 909)]",[],[1],[],horizontal,"(890.0, 762.0)",,fix_phase,0,6684.44
17,609,target,"[(1077, 892)]",[],[1],[0.26666666666666666],vertical,"(390.0, 762.0)",1.233333333,0.231,1,6686.287
17,610,target,"[(1065, 912)]",[],[1],[0.5166666666666666],horizontal,"(390.0, 262.0)",0.683333333,0.478,1,6690.764
17,611,target,"[(1104, 910)]",[],[1],[],vertical,"(390.0, 262.0)",,cti_phase,0,6694.853
17,612,target,"[(1127, 885)]","[(1075, 902)]",[1],[0.05],vertical,"(390.0, 262.0)",,bar_phase,0,6699.28
17,613,target,"[(1154, 898)]",[],[1],[0.85],horizontal,"(390.0, 762.0)",0.666666667,nan,0,6701.703
17,614,target,"[(1154, 861)]",[],[1],[0.85],vertical,"(890.0, 762.0)",1.2,cti_phase,0,6706.19
17,615,target,"[(1250, 657), (1110, 868)]",[],"[0, 1]",[],horizontal,"(390.0, 762.0)",,fix_phase,0,6711.003
17,616,target,"[(1133, 687), (1075, 896)]",[],"[0, 1]",[],vertical,"(890.0, 762.0)",,cti_phase,0,6719.354
17,617,target,"[(1081, 907)]",[],[1],[0.3],horizontal,"(890.0, 262.0)",1.216666667,0.27,1,6723.354
17,618,target,"[(1080, 898)]",[],[1],[],vertical,"(890.0, 762.0)",,cti_phase,0,6728.504
17,619,target,"[(1104, 707), (1078, 903)]","[(1073, 910)]","[0, 1]",[0.06666666666666667],vertical,"(390.0, 262.0)",,bar_phase,0,6732.536
17,620,target,"[(1127, 710), (1081, 896)]",[],"[0, 1]",[],vertical,"(890.0, 262.0)",,fix_phase,0,6734.853
17,621,target,"[(1083, 892)]",[],[1],[],horizontal,"(890.0, 762.0)",,fix_phase,0,6736.954
17,622,target,"[(1163, 858)]",[],[1],[0.18333333333333332],horizontal,"(390.0, 262.0)",1.4,0.15,1,6738.82
17,623,target,"[(1131, 714), (1082, 912)]",[],"[0, 1]",[0.15],horizontal,"(390.0, 262.0)",0.833333333,0.119,1,6743.319
17,624,target,"[(1075, 902)]",[],[1],[],vertical,"(390.0, 762.0)",,fix_phase,0,6747.025
17,625,target,"[(1168, 873)]",[],[1],[],vertical,"(890.0, 762.0)",,cti_phase,0,6749.154
18,626,catch,"[(1120, 898)]",[],[1],[0.05],horizontal,"(890.0, 262.0)",1.683333333,nan,1,6753.478
18,627,catch,"[(1105, 898)]",[],[1],[0.05],vertical,"(390.0, 762.0)",1.65,nan,1,6757.969
18,628,catch,"[(1129, 901)]",[],[1],[0.05],horizontal,"(390.0, 262.0)",0.583333333,nan,1,6762.612
18,629,catch,"[(1104, 898)]",[],[1],[0.05],horizontal,"(890.0, 262.0)",1.133333333,nan,1,6766.095
18,630,catch,"[(1126, 902)]",[],[1],[0.05],horizontal,"(390.0, 262.0)",1.416666667,nan,1,6770.335
18,631,catch,"[(1109, 917)]",[],[1],[0.05],vertical,"(890.0, 262.0)",0.866666667,nan,1,6774.918
18,632,catch,"[(1127, 917)]",[],[1],[],horizontal,"(890.0, 762.0)",,cti_phase,0,6779.37
18,633,catch,"[(1124, 872)]",[],[1],[0.05],horizontal,"(890.0, 262.0)",1.55,nan,1,6783.836
18,634,catch,"[(1080, 894)]",[],[1],[0.05],vertical,"(890.0, 762.0)",1.366666667,nan,1,6788.209
18,635,catch,"[(1104, 887)]",[],[1],[0.05],vertical,"(390.0, 762.0)",0.583333333,nan,1,6793.065
18,636,catch,"[(1108, 902)]",[],[1],[0.05],vertical,"(390.0, 762.0)",1.233333333,nan,1,6796.903
18,637,catch,"[(1104, 897)]",[],[1],[],horizontal,"(890.0, 262.0)",,cti_phase,0,6801.152
18,638,catch,"[(1124, 884)]",[],[1],[],vertical,"(890.0, 762.0)",,cti_phase,0,6805.698
18,639,catch,"[(1119, 882)]",[],[1],[0.05],vertical,"(390.0, 762.0)",1.7,cti_phase,1,6810.37
18,640,catch,"[(1103, 893)]",[],[1],[0.05],horizontal,"(890.0, 762.0)",1.433333333,cti_phase,1,6815.377
18,641,catch,"[(1128, 917)]",[],[1],[0.05],horizontal,"(890.0, 762.0)",0.916666667,nan,1,6820.052
18,642,catch,"[(1127, 915)]",[],[1],[0.05],vertical,"(390.0, 262.0)",1.583333333,nan,1,6823.887
18,643,catch,"[(1105, 904)]",[],[1],[0.05],vertical,"(390.0, 262.0)",1.566666667,nan,1,6828.854
18,644,catch,"[(1105, 904)]",[],[1],[],horizontal,"(390.0, 762.0)",,cti_phase,0,6833.503
18,645,catch,"[(1127, 878)]",[],[1],[0.05],horizontal,"(890.0, 762.0)",1.033333333,nan,1,6837.576
18,646,catch,"[(1127, 903)]",[],[1],[0.05],vertical,"(890.0, 262.0)",1.45,nan,1,6841.592
18,647,catch,"[(1106, 905)]",[],[1],[0.05],horizontal,"(890.0, 762.0)",1.216666667,nan,1,6846.103
18,648,catch,"[(1105, 898)]",[],[1],[0.05],horizontal,"(390.0, 262.0)",1.233333333,nan,1,6850.563
18,649,catch,"[(1102, 910)]",[],[1],[],vertical,"(890.0, 262.0)",,cti_phase,0,6854.637
18,650,catch,"[(1134, 876)]",[],[1],[0.05],vertical,"(890.0, 762.0)",0.816666667,nan,1,6859.437
18,651,catch,"[(1105, 900)]",[],[1],[0.05],horizontal,"(890.0, 262.0)",1.283333333,nan,1,6863.071
18,652,catch,"[(1110, 901)]",[],[1],[],horizontal,"(390.0, 762.0)",,cti_phase,0,6867.487
18,653,catch,"[(1129, 892)]",[],[1],[0.05],vertical,"(390.0, 262.0)",0.516666667,nan,1,6872.421
18,654,catch,"[(1101, 898)]",[],[1],[],horizontal,"(890.0, 762.0)",,cti_phase,0,6876.254
18,655,catch,"[(1129, 871)]",[],[1],[0.05],horizontal,"(890.0, 262.0)",0.95,nan,1,6881.145
18,656,catch,"[(1104, 910)]",[],[1],[],vertical,"(890.0, 762.0)",,cti_phase,0,6884.987
18,657,catch,"[(1129, 897)]",[],[1],[0.05],horizontal,"(390.0, 262.0)",1.033333333,nan,1,6889.889
18,658,catch,"[(1103, 898)]",[],[1],[0.05],horizontal,"(390.0, 762.0)",1.333333333,nan,1,6894.288
18,659,catch,"[(1105, 902)]",[],[1],[],horizontal,"(890.0, 762.0)",,cti_phase,0,6899.02
18,660,catch,"[(1129, 897)]",[],[1],[0.05],horizontal,"(890.0, 762.0)",0.633333333,nan,1,6903.377
18,661,catch,"[(1105, 895)]",[],[1],[0.05],horizontal,"(390.0, 262.0)",0.6,nan,1,6907.437
18,662,catch,"[(1120, 915)]",[],[1],[0.05],horizontal,"(390.0, 762.0)",1.4,nan,1,6911.167
18,663,catch,"[(1110, 906)]",[],[1],[],horizontal,"(890.0, 262.0)",,cti_phase,0,6915.752
18,664,catch,"[(1117, 870)]",[],[1],[0.05],horizontal,"(390.0, 762.0)",1.3,nan,1,6920.57
18,665,catch,"[(1104, 890)]",[],[1],[0.05],horizontal,"(890.0, 762.0)",0.75,nan,1,6925.136
18,666,catch,"[(1104, 890)]",[],[1],[0.05],horizontal,"(890.0, 762.0)",1.366666667,nan,1,6929.254
18,667,catch,"[(1105, 900)]",[],[1],[],vertical,"(890.0, 262.0)",,cti_phase,0,6933.865
18,668,catch,"[(1105, 876)]",[],[1],[0.05],horizontal,"(390.0, 762.0)",0.666666667,nan,1,6938.4
18,669,catch,"[(1132, 898)]",[],[1],[],horizontal,"(390.0, 762.0)",,cti_phase,0,6942.337
18,670,catch,"[(1103, 879)]",[],[1],[0.05],vertical,"(890.0, 262.0)",0.916666667,nan,1,6946.97
18,671,catch,"[(1110, 901)]",[],[1],[0.05],horizontal,"(390.0, 262.0)",0.883333333,nan,1,6950.76
18,672,catch,"[(1100, 894)]",[],[1],[],vertical,"(390.0, 762.0)",,cti_phase,0,6954.82
18,673,catch,"[(1132, 866)]",[],[1],[0.05],vertical,"(390.0, 762.0)",1.066666667,nan,1,6959.621
18,674,catch,"[(1125, 908)]",[],[1],[0.05],vertical,"(390.0, 762.0)",0.733333333,nan,1,6963.555
18,675,catch,"[(1105, 898)]",[],[1],[],horizontal,"(890.0, 762.0)",,cti_phase,0,6967.523
19,676,target,"[(1104, 887)]",[],[1],[0.6],vertical,"(390.0, 762.0)",1,0.559,1,6971.76
19,677,target,"[(1129, 917)]",[],[1],[0.25],vertical,"(890.0, 262.0)",1.116666667,0.216,1,6976.155
19,678,target,"[(1110, 903)]",[],[1],[],vertical,"(890.0, 762.0)",,cti_phase,0,6980.904
19,679,target,"[(1100, 897)]",[],[1],[0.5333333333333333],vertical,"(390.0, 262.0)",1,0.497,1,6984.888
19,680,target,"[(1130, 917)]",[],[1],[0.6333333333333333],vertical,"(390.0, 762.0)",0.616666667,0.589,1,6989.554
19,681,target,"[(1104, 901)]",[],[1],[],horizontal,"(390.0, 262.0)",,cti_phase,0,6993.684
19,682,target,"[(1104, 896)]",[],[1],[0.08333333333333333],horizontal,"(390.0, 262.0)",1.133333333,0.053,1,6998.403
19,683,target,"[(1132, 927)]",[],[1],[0.85],horizontal,"(890.0, 762.0)",1.05,cti_phase,0,7003.175
19,684,target,"[(1104, 883)]",[],[1],[0.36666666666666664],vertical,"(890.0, 762.0)",1.216666667,0.327,1,7007.743
19,685,target,"[(1104, 877)]",[],[1],[0.3],horizontal,"(390.0, 762.0)",1.35,0.267,1,7012.587
19,686,target,"[(1131, 903)]",[],[1],[0.5],horizontal,"(890.0, 262.0)",1.116666667,0.459,1,7017.52
19,687,target,"[(1110, 902)]",[],[1],[0.5833333333333334],vertical,"(390.0, 262.0)",1.316666667,0.545,1,7021.869
19,688,target,"[(1104, 904)]",[],[1],[0.25],horizontal,"(890.0, 762.0)",1.283333333,0.22,1,7026.722
19,689,target,"[(1104, 904)]",[],[1],[0.3],vertical,"(390.0, 262.0)",1.683333333,0.27,1,7031.092
19,690,target,"[(1133, 912)]",[],[1],[0.55],horizontal,"(890.0, 762.0)",1.25,0.514,1,7036.105
19,691,target,"[(1110, 907)]",[],[1],[],vertical,"(890.0, 762.0)",,cti_phase,0,7040.832
19,692,target,"[(1104, 887)]",[],[1],[0.5166666666666666],horizontal,"(390.0, 262.0)",1.166666667,0.477,1,7045.632
19,693,target,"[(1127, 922)]",[],[1],[0.55],vertical,"(390.0, 762.0)",0.766666667,0.508,1,7050.155
19,694,target,"[(1104, 889)]",[],[1],[0.5166666666666666],vertical,"(890.0, 262.0)",1.566666667,0.477,1,7054.819
19,695,target,"[(1127, 894)]",[],[1],[0.5666666666666667],vertical,"(890.0, 262.0)",0.75,0.52,1,7059.622
19,696,target,"[(1110, 889)]",[],[1],[],vertical,"(390.0, 262.0)",,cti_phase,0,7063.945
19,697,target,"[(1131, 899)]",[],[1],[0.5],vertical,"(890.0, 262.0)",0.716666667,0.459,1,7068.521
19,698,target,"[(1110, 891)]",[],[1],[0.5333333333333333],vertical,"(390.0, 762.0)",0.65,0.497,1,7072.863
19,699,target,"[(1108, 902)]",[],[1],[0.11666666666666667],vertical,"(890.0, 762.0)",1.466666667,0.086,1,7077.087
19,700,target,"[(1117, 910)]",[],[1],[0.5333333333333333],horizontal,"(890.0, 262.0)",0.766666667,0.489,1,7081.504
20,701,catch,"[(1104, 911)]",[],[1],[0.05],vertical,"(890.0, 262.0)",1.066666667,nan,1,7086.248
20,702,catch,"[(1104, 872)]",[],[1],[0.05],horizontal,"(390.0, 762.0)",0.95,nan,1,7090.424
20,703,catch,"[(1104, 897)]",[],[1],[0.05],horizontal,"(890.0, 262.0)",1.05,nan,1,7094.49
20,704,catch,"[(1132, 898)]",[],[1],[0.05],horizontal,"(390.0, 762.0)",0.566666667,nan,1,7098.612
20,705,catch,"[(1104, 876)]",[],[1],[],horizontal,"(890.0, 762.0)",,cti_phase,0,7102.484
20,706,catch,"[(1128, 878)]",[],[1],[],vertical,"(890.0, 762.0)",,cti_phase,0,7106.87
20,707,catch,"[(1123, 871)]",[],[1],[0.05],vertical,"(390.0, 262.0)",1.033333333,nan,1,7111.37
20,708,catch,"[(1104, 896)]",[],[1],[],horizontal,"(890.0, 762.0)",,cti_phase,0,7115.689
20,709,catch,"[(1118, 873)]",[],[1],[0.05],horizontal,"(890.0, 262.0)",0.8,nan,1,7120.422
20,710,catch,"[(1104, 894)]",[],[1],[],vertical,"(390.0, 762.0)",,cti_phase,0,7124.438
20,711,catch,"[(1104, 879)]",[],[1],[0.05],vertical,"(390.0, 762.0)",0.916666667,nan,1,7129.222
20,712,catch,"[(1104, 879)]",[],[1],[0.05],vertical,"(890.0, 262.0)",0.633333333,nan,1,7133.094
20,713,catch,"[(1104, 866)]",[],[1],[0.05],vertical,"(890.0, 262.0)",0.5,nan,1,7137.02
20,714,catch,"[(1104, 897)]",[],[1],[0.05],vertical,"(390.0, 262.0)",0.566666667,nan,1,7141.203
20,715,catch,"[(1110, 898)]",[],[1],[0.05],horizontal,"(890.0, 762.0)",0.566666667,nan,1,7145.227
20,716,catch,"[(1104, 882)]",[],[1],[],vertical,"(890.0, 762.0)",,cti_phase,0,7149.426
20,717,catch,"[(1108, 894)]",[],[1],[],vertical,"(890.0, 262.0)",,cti_phase,0,7153.52
20,718,catch,"[(1111, 878)]",[],[1],[0.05],vertical,"(390.0, 262.0)",1.35,nan,1,7157.937
20,719,catch,"[(1105, 896)]",[],[1],[0.05],vertical,"(390.0, 262.0)",0.733333333,nan,1,7162.273
20,720,catch,"[(1105, 869)]",[],[1],[0.05],vertical,"(390.0, 262.0)",1.033333333,nan,1,7166.137
20,721,catch,"[(1110, 892)]",[],[1],[],horizontal,"(890.0, 762.0)",,cti_phase,0,7170.643
20,722,catch,"[(1133, 874)]",[],[1],[],vertical,"(890.0, 762.0)",,cti_phase,0,7175.037
20,723,catch,"[(1106, 873)]",[],[1],[0.05],vertical,"(390.0, 762.0)",0.716666667,nan,1,7179.373
20,724,catch,"[(1104, 894)]",[],[1],[],vertical,"(390.0, 262.0)",,cti_phase,0,7183.004
20,725,catch,"[(1133, 879)]",[],[1],[0.05],horizontal,"(390.0, 762.0)",1.283333333,nan,1,7187.666
20,726,catch,"[(1104, 898)]",[],[1],[],vertical,"(390.0, 762.0)",,cti_phase,0,7191.857
20,727,catch,"[(1105, 883)]",[],[1],[0.05],horizontal,"(390.0, 762.0)",0.516666667,nan,1,7196.454
20,728,catch,"[(1104, 884)]",[],[1],[0.05],vertical,"(890.0, 262.0)",0.666666667,nan,1,7200.037
20,729,catch,"[(1104, 893)]",[],[1],[0.05],vertical,"(390.0, 762.0)",1.1,nan,1,7204.167
20,730,catch,"[(1105, 905)]",[],[1],[],horizontal,"(390.0, 262.0)",,cti_phase,0,7208.378
20,731,catch,"[(1105, 873)]","[(1088, 882)]",[1],[0.3],horizontal,"(390.0, 262.0)",,bar_phase,0,7212.971
20,732,catch,"[(1110, 868)]",[],[1],[0.05],horizontal,"(390.0, 762.0)",0.583333333,nan,1,7215.406
20,733,catch,"[(1104, 886)]",[],[1],[],horizontal,"(390.0, 762.0)",,cti_phase,0,7219.054
20,734,catch,"[(1104, 870)]",[],[1],[0.05],vertical,"(890.0, 762.0)",0.65,nan,1,7224.012
20,735,catch,"[(1104, 893)]",[],[1],[0.05],horizontal,"(890.0, 262.0)",0.916666667,nan,1,7227.606
20,736,catch,"[(1111, 886)]",[],[1],[],vertical,"(890.0, 262.0)",,cti_phase,0,7231.667
20,737,catch,"[(1110, 912)]",[],[1],[0.05],horizontal,"(390.0, 762.0)",0.7,nan,1,7236.804
20,738,catch,"[(1104, 889)]",[],[1],[],vertical,"(890.0, 262.0)",,cti_phase,0,7240.776
20,739,catch,"[(1104, 876)]",[],[1],[0.05],horizontal,"(390.0, 762.0)",0.716666667,nan,1,7246.256
20,740,catch,"[(1108, 893)]",[],[1],[0.05],vertical,"(890.0, 762.0)",0.716666667,nan,1,7249.944
20,741,catch,"[(1104, 876)]",[],[1],[0.05],vertical,"(390.0, 762.0)",1.066666667,nan,1,7254.239
20,742,catch,"[(1104, 883)]",[],[1],[],horizontal,"(890.0, 762.0)",,cti_phase,0,7258.472
20,743,catch,"[(1104, 894)]",[],[1],[0.05],horizontal,"(890.0, 762.0)",1.116666667,nan,1,7263.207
20,744,catch,"[(1104, 879)]",[],[1],[0.05],horizontal,"(390.0, 262.0)",0.683333333,nan,1,7267.472
20,745,catch,"[(1106, 877)]",[],[1],[0.05],horizontal,"(890.0, 762.0)",0.683333333,nan,1,7271.648
20,746,catch,"[(1106, 909)]",[],[1],[0.05],horizontal,"(390.0, 762.0)",0.766666667,nan,1,7275.837
20,747,catch,"[(1104, 885)]",[],[1],[0.05],horizontal,"(390.0, 262.0)",0.966666667,nan,1,7280.089
20,748,catch,"[(1127, 882)]",[],[1],[0.05],vertical,"(890.0, 262.0)",0.733333333,nan,1,7284.038
20,749,catch,"[(1104, 907)]",[],[1],[],horizontal,"(390.0, 762.0)",,cti_phase,0,7288.189
20,750,catch,"[(1124, 902)]",[],[1],[0.05],vertical,"(890.0, 762.0)",0.55,nan,1,7293.322
21,751,target,"[(1104, 896)]",[],[1],[],vertical,"(890.0, 262.0)",,cti_phase,0,7296.923
21,752,target,"[(1127, 882)]",[],[1],[0.4666666666666667],horizontal,"(390.0, 262.0)",1.2,0.43,1,7301.437
21,753,target,"[(1119, 899)]",[],[1],[],vertical,"(390.0, 262.0)",,cti_phase,0,7306.439
21,754,target,"[(1104, 901)]",[],[1],[0.4166666666666667],vertical,"(890.0, 762.0)",1.316666667,0.377,1,7310.939
21,755,target,"[(1109, 872)]",[],[1],[0.31666666666666665],vertical,"(390.0, 762.0)",1.233333333,0.279,1,7315.937
21,756,target,"[(1104, 898)]",[],[1],[0.5333333333333333],vertical,"(890.0, 262.0)",0.583333333,0.492,1,7320.826
21,757,target,"[(1128, 890)]",[],[1],[0.5],horizontal,"(390.0, 262.0)",1.3,0.459,1,7324.963
21,758,target,"[(1127, 901)]",[],[1],[0.5166666666666666],vertical,"(890.0, 762.0)",0.65,0.481,1,7329.888
21,759,target,"[(1140, 897)]",[],[1],[0.16666666666666666],horizontal,"(390.0, 762.0)",1.5,0.131,1,7334.088
21,760,target,"[(1106, 879)]",[],[1],[0.5],vertical,"(890.0, 262.0)",0.733333333,0.454,1,7338.772
21,761,target,"[(1104, 898)]",[],[1],[0.5833333333333334],horizontal,"(390.0, 762.0)",0.816666667,0.541,1,7343.327
21,762,target,"[(1127, 907)]",[],[1],[0.5333333333333333],horizontal,"(390.0, 762.0)",0.55,0.494,1,7347.838
21,763,target,"[(1110, 899)]",[],[1],[0.5833333333333334],vertical,"(390.0, 762.0)",1.1,0.541,1,7352.307
21,764,target,"[(1104, 896)]",[],[1],[0.45],vertical,"(890.0, 262.0)",1.616666667,0.415,1,7356.746
21,765,target,"[(1105, 908)]",[],[1],[0.6666666666666666],horizontal,"(890.0, 762.0)",0.683333333,0.63,1,7361.906
21,766,target,"[(1104, 881)]",[],[1],[0.6333333333333333],horizontal,"(390.0, 762.0)",0.65,0.582,1,7366.505
21,767,target,"[(1104, 896)]",[],[1],[0.3],horizontal,"(890.0, 262.0)",0.783333333,0.261,1,7370.781
21,768,target,"[(1104, 900)]",[],[1],[0.55],vertical,"(390.0, 262.0)",0.883333333,0.511,1,7375.222
21,769,target,"[(1104, 897)]",[],[1],[0.08333333333333333],vertical,"(390.0, 262.0)",1.383333333,0.053,1,7379.571
21,770,target,"[(1110, 902)]",[],[1],[0.6166666666666667],horizontal,"(390.0, 762.0)",0.916666667,0.58,1,7384.523
21,771,target,"[(1104, 899)]",[],[1],[0.5666666666666667],horizontal,"(390.0, 762.0)",0.533333333,0.526,1,7388.772
21,772,target,"[(1104, 875)]",[],[1],[0.2833333333333333],vertical,"(890.0, 762.0)",1.583333333,0.246,1,7392.864
21,773,target,"[(1104, 906)]",[],[1],[0.5166666666666666],horizontal,"(890.0, 262.0)",1.4,0.477,1,7397.43
21,774,target,"[(1104, 911)]",[],[1],[0.43333333333333335],vertical,"(890.0, 262.0)",1.4,0.401,1,7402.633
21,775,target,"[(1105, 909)]",[],[1],[0.3],horizontal,"(390.0, 762.0)",1.566666667,0.264,1,7407.556
22,776,catch,"[(1119, 889)]",[],[1],[0.05],horizontal,"(890.0, 762.0)",1.516666667,nan,1,7412.175
22,777,catch,"[(1105, 906)]",[],[1],[0.05],vertical,"(390.0, 762.0)",0.8,nan,1,7416.932
22,778,catch,"[(1104, 894)]",[],[1],[],vertical,"(890.0, 762.0)",,cti_phase,0,7421.156
22,779,catch,"[(1120, 884)]",[],[1],[0.05],vertical,"(390.0, 762.0)",0.933333333,nan,1,7425.796
22,780,catch,"[(1127, 912)]",[],[1],[0.05],horizontal,"(890.0, 262.0)",1.1,nan,1,7429.619
22,781,catch,"[(1110, 898)]",[],[1],[0.05],vertical,"(390.0, 762.0)",1.183333333,nan,1,7433.829
22,782,catch,"[(1103, 901)]",[],[1],[0.05],horizontal,"(890.0, 262.0)",0.666666667,nan,1,7438.43
22,783,catch,"[(1103, 897)]",[],[1],[],horizontal,"(890.0, 762.0)",,cti_phase,0,7442.072
22,784,catch,"[(1105, 882)]",[],[1],[0.05],vertical,"(390.0, 762.0)",0.516666667,nan,1,7446.233
22,785,catch,"[(1104, 900)]",[],[1],[0.05],vertical,"(390.0, 762.0)",1.116666667,nan,1,7449.893
22,786,catch,"[(1104, 896)]",[],[1],[0.05],horizontal,"(390.0, 262.0)",0.533333333,nan,1,7454.107
22,787,catch,"[(1105, 895)]",[],[1],[0.05],horizontal,"(890.0, 262.0)",0.65,nan,1,7458.005
22,788,catch,"[(1110, 878)]",[],[1],[],vertical,"(890.0, 762.0)",,cti_phase,0,7462.109
22,789,catch,"[(1130, 876)]",[],[1],[0.05],horizontal,"(890.0, 262.0)",0.9,nan,1,7467.106
22,790,catch,"[(1104, 874)]",[],[1],[0.05],horizontal,"(390.0, 262.0)",1.416666667,nan,1,7470.838
22,791,catch,"[(1100, 901)]",[],[1],[0.05],vertical,"(390.0, 762.0)",1.233333333,nan,1,7475.472
22,792,catch,"[(1104, 896)]",[],[1],[0.05],horizontal,"(890.0, 762.0)",1.466666667,nan,1,7480.167
22,793,catch,"[(1104, 896)]",[],[1],"[0.05, 0.05]",horizontal,"(890.0, 762.0)",1.45,nan,1,7485.082
22,794,catch,"[(1067, 900)]",[],[1],[0.05],vertical,"(390.0, 762.0)",0.566666667,nan,1,7492.183
22,795,catch,"[(1082, 893)]",[],[1],[0.05],horizontal,"(890.0, 762.0)",1.033333333,nan,1,7495.734
22,796,catch,"[(1104, 893)]",[],[1],[0.05],vertical,"(390.0, 262.0)",1.433333333,nan,1,7500.644
22,797,catch,"[(1076, 901)]",[],[1],[0.05],horizontal,"(390.0, 762.0)",1.433333333,nan,1,7505.672
22,798,catch,"[(1104, 896)]",[],[1],[0.05],vertical,"(890.0, 262.0)",1.6,nan,1,7510.204
22,799,catch,"[(1100, 905)]",[],[1],[0.05],vertical,"(890.0, 762.0)",1.3,nan,1,7514.733
22,800,catch,"[(1104, 897)]",[],[1],[0.05],vertical,"(390.0, 762.0)",1.516666667,nan,1,7518.84
22,801,catch,"[(1102, 901)]",[],[1],[],horizontal,"(390.0, 762.0)",,cti_phase,0,7523.332
22,802,catch,"[(1102, 867)]",[],[1],[0.05],horizontal,"(390.0, 262.0)",1.233333333,nan,1,7527.907
22,803,catch,"[(1095, 903)]",[],[1],[],horizontal,"(890.0, 762.0)",,cti_phase,0,7532.777
22,804,catch,"[(1104, 876)]",[],[1],[0.05],vertical,"(390.0, 762.0)",1.4,nan,1,7536.855
22,805,catch,"[(1100, 893)]",[],[1],[0.05],vertical,"(890.0, 262.0)",0.6,nan,1,7541.781
22,806,catch,"[(1119, 905)]",[],[1],[],vertical,"(890.0, 262.0)",,cti_phase,0,7545.658
22,807,catch,"[(205, 171), (199, 170), (1101, 898)]",[],"[0, 0, 1]",[0.05],vertical,"(390.0, 262.0)",0.85,nan,1,7550.456
22,808,catch,"[(1090, 909)]",[],[1],[],horizontal,"(890.0, 262.0)",,cti_phase,0,10964.547
22,809,catch,"[(1126, 920)]",[],[1],[],vertical,"(890.0, 262.0)",,cti_phase,0,10969.04
22,810,catch,"[(1118, 884)]",[],[1],[0.05],vertical,"(890.0, 262.0)",1.433333333,nan,1,10973.754
22,811,catch,"[(1102, 912)]",[],[1],[0.05],horizontal,"(390.0, 262.0)",1.55,nan,1,10978.464
22,812,catch,"[(1066, 905)]",[],[1],[],vertical,"(390.0, 762.0)",,fix_phase,0,10983.127
22,813,catch,"[(1167, 453), (1104, 474), (1163, 923)]",[],"[0, 0, 1]",[],vertical,"(890.0, 762.0)",,fix_phase,0,10985.379
22,814,catch,"[(1075, 478), (1259, 480), (1075, 503), (1087, 665), (1221, 710), (1090, 502), (1214, 568), (1171, 480), (1186, 512), (1138, 885)]",[],"[0, 0, 0, 0, 0, 0, 0, 0, 0, 1]",[],horizontal,"(390.0, 262.0)",,cti_phase,0,10989.236
22,815,catch,"[(1125, 902)]",[],[1],[],horizontal,"(390.0, 262.0)",,fix_phase,0,10998.918
22,816,catch,"[(1205, 854)]",[],[1],[],vertical,"(890.0, 762.0)",,cti_phase,0,11000.714
22,817,catch,"[(1093, 899)]","[(1093, 899)]",[1],[0.8],horizontal,"(390.0, 262.0)",,bar_phase,0,11003.598
22,818,catch,"[(1046, 773)]",[],[1],[],horizontal,"(390.0, 762.0)",,fix_phase,0,11006.686
22,819,catch,"[(1071, 603), (1081, 878)]",[],"[0, 1]",[],horizontal,"(890.0, 262.0)",,cti_phase,0,11008.193
22,820,catch,"[(1109, 903)]",[],[1],[],horizontal,"(390.0, 262.0)",,fix_phase,0,11017.949
22,821,catch,"[(1095, 879)]",[],[1],[],horizontal,"(890.0, 762.0)",,cti_phase,0,11019.954
22,822,catch,"[(1114, 911)]","[(1096, 897)]",[1],[0.16666666666666666],horizontal,"(890.0, 762.0)",,bar_phase,0,11024.571
22,823,catch,"[(1098, 877)]",[],[1],[],vertical,"(890.0, 262.0)",,fix_phase,0,11027.154
22,824,catch,"[(1109, 868)]",[],[1],[0.05],vertical,"(890.0, 762.0)",1.316666667,nan,1,11029.249
22,825,catch,"[(1090, 896)]","[(1090, 902)]",[1],"[0.5, 0.05]",vertical,"(890.0, 762.0)",0.966666667,bar_phase,1,11033.505
23,826,target,"[(1098, 903)]",[],[1],[],vertical,"(890.0, 262.0)",,fix_phase,0,11037.281
23,827,target,"[(1104, 906)]",[],[1],[],horizontal,"(390.0, 762.0)",,fix_phase,0,11039.271
23,828,target,"[(1038, 497), (1167, 871)]",[],"[0, 1]",[],vertical,"(890.0, 262.0)",,fix_phase,0,11041.254
23,829,target,"[(1095, 907)]",[],[1],[],horizontal,"(390.0, 262.0)",,fix_phase,0,11043.237
23,830,target,"[(1109, 614), (1110, 887)]",[],"[0, 1]",[],horizontal,"(890.0, 262.0)",,fix_phase,0,11045.122
23,831,target,"[(1124, 609), (1104, 887)]",[],"[0, 1]",[],horizontal,"(890.0, 262.0)",,fix_phase,0,11047.505
23,832,target,"[(1201, 598), (1158, 622), (1096, 885)]",[],"[0, 0, 1]",[],vertical,"(890.0, 262.0)",,cti_phase,0,11049.686
23,833,target,"[(1100, 907)]","[(1100, 907)]",[1],[0.36666666666666664],vertical,"(890.0, 262.0)",,bar_phase,0,11056.871
23,834,target,"[(1066, 617), (1129, 863)]",[],"[0, 1]",[0.5166666666666666],horizontal,"(890.0, 262.0)",0.516666667,0.475,1,11059.62
23,835,target,"[(1126, 906)]",[],[1],[0.85],horizontal,"(890.0, 262.0)",0.5,nan,0,11067.424
23,836,target,"[(1114, 879)]",[],[1],[0.6666666666666666],horizontal,"(390.0, 762.0)",0.833333333,0.628,1,11071.67
23,837,target,"[(1158, 880)]",[],[1],[0.13333333333333333],vertical,"(390.0, 762.0)",1.433333333,0.099,1,11075.836
23,838,target,"[(1218, 627), (1084, 900)]",[],"[0, 1]",[],horizontal,"(390.0, 262.0)",,fix_phase,0,11080.549
23,839,target,"[(1141, 895)]",[],[1],[0.85],vertical,"(390.0, 762.0)",1.2,nan,0,11082.903
23,840,target,"[(1077, 911)]",[],[1],[0.55],horizontal,"(890.0, 762.0)",0.75,0.51,1,11087.724
23,841,target,"[(1099, 899)]",[],[1],[0.85],vertical,"(390.0, 762.0)",1.2,nan,0,11092.048
23,842,target,"[(1125, 890)]",[],[1],[0.5666666666666667],horizontal,"(890.0, 262.0)",0.966666667,0.522,1,11097.2
23,843,target,"[(1102, 891)]",[],[1],[0.48333333333333334],vertical,"(890.0, 762.0)",0.8,0.445,1,11101.536
23,844,target,"[(1124, 875)]",[],[1],[0.8166666666666667],horizontal,"(890.0, 762.0)",0.9,0.766,1,11106.088
23,845,target,"[(1119, 895)]",[],[1],[0.85],vertical,"(890.0, 262.0)",1.416666667,nan,0,11110.932
23,846,target,"[(1125, 899)]",[],[1],[0.85],horizontal,"(890.0, 762.0)",0.983333333,nan,0,11116.455
23,847,target,"[(1101, 896)]",[],[1],[0.85],vertical,"(890.0, 262.0)",1.516666667,nan,0,11121.433
23,848,target,"[(1126, 886)]","[(1103, 893)]",[1],[0.3333333333333333],vertical,"(390.0, 262.0)",,bar_phase,0,11127.071
23,849,target,"[(1123, 866)]",[],[1],[0.85],vertical,"(890.0, 762.0)",0.5,nan,0,11129.517
23,850,target,"[(1132, 863)]",[],[1],[0.85],vertical,"(390.0, 262.0)",0.566666667,nan,0,11134.188
24,851,catch,"[(1115, 868)]",[],[1],[0.05],horizontal,"(390.0, 762.0)",1.3,nan,1,11142.06
24,852,catch,"[(1112, 891)]",[],[1],[0.05],vertical,"(390.0, 262.0)",1.083333333,nan,1,11147.189
24,853,catch,"[(1095, 904)]",[],[1],[0.05],horizontal,"(390.0, 762.0)",1,nan,1,11151.754
24,854,catch,"[(1154, 863)]",[],[1],[],horizontal,"(390.0, 762.0)",,cti_phase,0,11155.922
24,855,catch,"[(1124, 883)]",[],[1],[0.05],horizontal,"(890.0, 262.0)",1.283333333,nan,1,11160.538
24,856,catch,"[(1153, 876)]",[],[1],[0.05],horizontal,"(890.0, 762.0)",1.65,nan,1,11164.753
24,857,catch,"[(1106, 922)]",[],[1],[0.05],vertical,"(390.0, 262.0)",1.016666667,nan,1,11170.146
24,858,catch,"[(1148, 856)]",[],[1],[0.05],horizontal,"(390.0, 762.0)",0.616666667,nan,1,11174.305
24,859,catch,"[(1124, 905)]",[],[1],[0.05],horizontal,"(890.0, 762.0)",1.016666667,nan,1,11179.687
24,860,catch,"[(1127, 908)]",[],[1],[0.05],horizontal,"(890.0, 262.0)",0.65,nan,1,11183.872
24,861,catch,"[(1095, 897)]",[],[1],[],vertical,"(890.0, 762.0)",,cti_phase,0,11187.628
24,862,catch,"[(1098, 901)]",[],[1],[0.05],vertical,"(890.0, 762.0)",0.866666667,nan,1,11191.489
24,863,catch,"[(1118, 904)]",[],[1],[0.05],horizontal,"(390.0, 762.0)",1.116666667,nan,1,11195.57
24,864,catch,"[(1126, 876)]",[],[1],[0.05],horizontal,"(890.0, 762.0)",1.366666667,nan,1,11199.839
24,865,catch,"[(1124, 912)]",[],[1],[0.05],horizontal,"(890.0, 262.0)",1.266666667,nan,1,11204.638
24,866,catch,"[(1075, 898)]",[],[1],[0.05],vertical,"(890.0, 262.0)",1.016666667,nan,1,11209.071
24,867,catch,"[(1115, 926)]",[],[1],[0.05],vertical,"(390.0, 262.0)",1.133333333,nan,1,11226.139
24,868,catch,"[(1104, 907)]",[],[1],[0.05],horizontal,"(890.0, 262.0)",0.6,nan,1,11230.362
24,869,catch,"[(1126, 866)]",[],[1],[0.05],vertical,"(390.0, 262.0)",0.716666667,nan,1,11234.313
24,870,catch,"[(1100, 894)]",[],[1],[0.05],horizontal,"(390.0, 762.0)",1.1,nan,1,11239.703
24,871,catch,"[(1137, 860)]",[],[1],[0.05],vertical,"(390.0, 762.0)",1.416666667,nan,1,11244.074
24,872,catch,"[(1100, 903)]",[],[1],[0.05],vertical,"(890.0, 762.0)",0.816666667,nan,1,11251.481
24,873,catch,"[(1115, 895)]",[],[1],[0.05],horizontal,"(890.0, 762.0)",0.633333333,nan,1,11255.555
24,874,catch,"[(1119, 898)]",[],[1],[0.05],vertical,"(390.0, 262.0)",1.05,nan,1,11259.632
24,875,catch,"[(1100, 884)]",[],[1],[0.05],horizontal,"(890.0, 262.0)",0.55,nan,1,11264.02
24,876,catch,"[(1118, 898)]",[],[1],[0.05],horizontal,"(390.0, 762.0)",1,nan,1,11267.891
24,877,catch,"[(1100, 901)]",[],[1],[0.05],horizontal,"(390.0, 262.0)",1.2,nan,1,11271.928
24,878,catch,"[(1100, 906)]",[],[1],[0.05],horizontal,"(390.0, 262.0)",0.883333333,nan,1,11276.421
24,879,catch,"[(1104, 905)]",[],[1],[0.05],vertical,"(890.0, 762.0)",1.366666667,nan,1,11280.666
24,880,catch,"[(1100, 901)]",[],[1],[0.05],horizontal,"(390.0, 762.0)",1.233333333,nan,1,11284.888
24,881,catch,"[(1119, 892)]",[],[1],[],vertical,"(890.0, 262.0)",,cti_phase,0,11289.309
24,882,catch,"[(1104, 886)]",[],[1],[],horizontal,"(890.0, 762.0)",,cti_phase,0,11299.09
24,883,catch,"[(1128, 897)]",[],[1],[0.05],horizontal,"(390.0, 762.0)",0.583333333,nan,1,11303.717
24,884,catch,"[(1105, 893)]",[],[1],[0.05],vertical,"(390.0, 262.0)",1.233333333,nan,1,11307.433
24,885,catch,"[(1119, 918)]",[],[1],[0.05],horizontal,"(390.0, 262.0)",1.1,nan,1,11312.031
24,886,catch,"[(1111, 902)]",[],[1],[0.05],horizontal,"(890.0, 262.0)",0.583333333,nan,1,11316.532
24,887,catch,"[(1110, 905)]",[],[1],[0.05],vertical,"(390.0, 262.0)",1.316666667,nan,1,11320.299
24,888,catch,"[(1121, 912)]",[],[1],[],horizontal,"(890.0, 262.0)",,cti_phase,0,11334.771
24,889,catch,"[(1114, 901)]",[],[1],[0.05],horizontal,"(390.0, 262.0)",0.916666667,nan,1,11339.122
24,890,catch,"[(1113, 918)]",[],[1],[0.05],horizontal,"(390.0, 262.0)",0.65,nan,1,11342.989
24,891,catch,"[(1106, 922)]",[],[1],[],horizontal,"(890.0, 762.0)",,cti_phase,0,11347.028
24,892,catch,"[(1109, 878)]",[],[1],"[0.05, 0.05]",vertical,"(390.0, 762.0)",1.55,nan,1,11351.288
24,893,catch,"[(1109, 904)]",[],[1],[0.05],horizontal,"(390.0, 262.0)",1.066666667,nan,1,11355.754
24,894,catch,"[(1104, 909)]",[],[1],[0.05],horizontal,"(890.0, 262.0)",1.033333333,nan,1,11360.288
24,895,catch,"[(1119, 916)]",[],[1],[0.05],horizontal,"(890.0, 262.0)",1.066666667,nan,1,11364.705
24,896,catch,"[(1109, 907)]",[],[1],[0.05],vertical,"(890.0, 262.0)",0.8,nan,1,11368.738
24,897,catch,"[(1105, 910)]",[],[1],[],horizontal,"(890.0, 762.0)",,cti_phase,0,11372.488
24,898,catch,"[(1123, 894)]",[],[1],[0.05],horizontal,"(890.0, 262.0)",1.033333333,nan,1,11377.004
24,899,catch,"[(1112, 911)]",[],[1],[0.05],horizontal,"(390.0, 762.0)",1.133333333,nan,1,11380.772
24,900,catch,"[(1104, 917)]",[],[1],[0.05],vertical,"(890.0, 262.0)",0.583333333,nan,1,11384.916
25,901,target,"[(1108, 899)]",[],[1],[0.48333333333333334],vertical,"(890.0, 262.0)",1.25,0.441,1,11388.762
25,902,target,"[(1110, 906)]",[],[1],[0.05],horizontal,"(890.0, 262.0)",1.283333333,0.02,1,11393.556
25,903,target,"[(1112, 898)]",[],[1],[0.6],horizontal,"(390.0, 762.0)",0.8,0.563,1,11398.28
25,904,target,"[(1114, 908)]",[],[1],[],vertical,"(390.0, 762.0)",,cti_phase,0,11402.465
25,905,target,"[(1119, 864)]",[],[1],[0.6],horizontal,"(390.0, 762.0)",0.616666667,0.556,1,11407.238
25,906,target,"[(1114, 888)]",[],[1],[0.4166666666666667],vertical,"(890.0, 262.0)",1.1,0.373,1,11411.064
25,907,target,"[(1114, 921)]",[],[1],[0.13333333333333333],vertical,"(390.0, 762.0)",1.433333333,0.102,1,11415.695
25,908,target,"[(1104, 898)]",[],[1],[0.5666666666666667],vertical,"(390.0, 762.0)",0.633333333,0.529,1,11420.355
25,909,target,"[(1109, 910)]",[],[1],[0.48333333333333334],horizontal,"(390.0, 762.0)",1.016666667,0.443,1,11424.722
25,910,target,"[(1108, 903)]",[],[1],[0.43333333333333335],vertical,"(390.0, 262.0)",1.316666667,0.393,1,11429.105
25,911,target,"[(1104, 898)]",[],[1],[0.25],vertical,"(890.0, 762.0)",1.116666667,0.213,1,11434.068
25,912,target,"[(1121, 915)]",[],[1],[0.43333333333333335],horizontal,"(390.0, 262.0)",1.4,0.394,1,11438.439
25,913,target,"[(1103, 912)]",[],[1],[0.5],horizontal,"(890.0, 262.0)",1.083333333,0.458,1,11442.899
25,914,target,"[(1112, 922)]",[],[1],[],vertical,"(390.0, 762.0)",,cti_phase,0,11447.373
25,915,target,"[(1139, 898)]",[],[1],[0.35],horizontal,"(390.0, 762.0)",1.466666667,0.314,1,11451.755
25,916,target,"[(1115, 909)]",[],[1],[0.48333333333333334],horizontal,"(890.0, 262.0)",1.116666667,0.443,1,11456.521
25,917,target,"[(1104, 896)]",[],[1],[0.5166666666666666],horizontal,"(390.0, 762.0)",0.883333333,0.48,1,11461.155
25,918,target,"[(1105, 915)]",[],[1],[],horizontal,"(890.0, 262.0)",,cti_phase,0,11465.505
25,919,target,"[(1104, 904)]",[],[1],[0.7666666666666666],vertical,"(390.0, 262.0)",1.233333333,0.717,1,11470.43
25,920,target,"[(1104, 907)]",[],[1],[0.13333333333333333],horizontal,"(390.0, 762.0)",1.516666667,0.099,1,11475.689
25,921,target,"[(1104, 904)]",[],[1],[0.6],horizontal,"(390.0, 262.0)",1.183333333,0.557,1,11480.388
25,922,target,"[(1127, 913)]",[],[1],[0.4166666666666667],horizontal,"(390.0, 262.0)",1.55,0.376,1,11485.573
25,923,target,"[(1105, 907)]",[],[1],[0.5333333333333333],horizontal,"(890.0, 262.0)",1.066666667,0.487,1,11490.138
25,924,target,"[(1104, 907)]",[],[1],[0.6],vertical,"(890.0, 262.0)",1.35,0.556,1,11494.524
25,925,target,"[(1105, 893)]",[],[1],[0.31666666666666665],vertical,"(390.0, 762.0)",1.283333333,0.282,1,11499.572
26,926,catch,"[(1100, 922)]",[],[1],[0.05],horizontal,"(390.0, 762.0)",1.016666667,nan,1,11504.8
26,927,catch,"[(1104, 905)]",[],[1],[0.05],vertical,"(390.0, 762.0)",1.5,nan,1,11508.889
26,928,catch,"[(1116, 912)]",[],[1],[0.05],horizontal,"(390.0, 762.0)",1.366666667,nan,1,11513.629
26,929,catch,"[(1104, 917)]",[],[1],[0.05],vertical,"(890.0, 262.0)",1.116666667,nan,1,11517.702
26,930,catch,"[(1104, 912)]",[],[1],[0.05],horizontal,"(390.0, 762.0)",0.833333333,nan,1,11521.93
26,931,catch,"[(1109, 911)]",[],[1],[0.05],horizontal,"(390.0, 262.0)",0.5,nan,1,11525.823
26,932,catch,"[(1076, 901)]",[],[1],[0.05],horizontal,"(390.0, 762.0)",0.6,nan,1,11529.536
26,933,catch,"[(1104, 906)]",[],[1],[0.05],vertical,"(890.0, 762.0)",0.916666667,nan,1,11533.716
26,934,catch,"[(1121, 907)]",[],[1],[0.05],vertical,"(390.0, 262.0)",1.083333333,nan,1,11538.022
26,935,catch,"[(1104, 900)]",[],[1],[0.05],horizontal,"(390.0, 762.0)",0.633333333,nan,1,11542.199
26,936,catch,"[(1109, 919)]",[],[1],[0.05],vertical,"(890.0, 762.0)",0.633333333,nan,1,11545.723
26,937,catch,"[(1076, 898)]",[],[1],[],horizontal,"(390.0, 262.0)",,cti_phase,0,11549.408
26,938,catch,"[(1124, 901)]",[],[1],[0.05],vertical,"(890.0, 762.0)",0.583333333,nan,1,11553.472
26,939,catch,"[(1101, 902)]",[],[1],[0.05],horizontal,"(890.0, 262.0)",1.15,nan,1,11557.114
26,940,catch,"[(1104, 912)]",[],[1],[],vertical,"(890.0, 262.0)",,cti_phase,0,11561.495
26,941,catch,"[(1125, 896)]",[],[1],[0.05],horizontal,"(890.0, 762.0)",0.783333333,nan,1,11565.49
26,942,catch,"[(1108, 897)]",[],[1],[0.05],vertical,"(890.0, 762.0)",0.816666667,nan,1,11569.106
26,943,catch,"[(1104, 902)]",[],[1],[0.05],vertical,"(890.0, 262.0)",1.35,nan,1,11573.389
26,944,catch,"[(1104, 917)]",[],[1],"[0.05, 0.05]",horizontal,"(890.0, 262.0)",1,nan,1,11577.469
26,945,catch,"[(1100, 907)]",[],[1],[],vertical,"(890.0, 762.0)",,cti_phase,0,11581.839
26,946,catch,"[(1113, 901)]",[],[1],[],horizontal,"(390.0, 262.0)",,cti_phase,0,11585.672
26,947,catch,"[(1124, 901)]",[],[1],[0.05],horizontal,"(890.0, 762.0)",0.966666667,nan,1,11589.938
26,948,catch,"[(1108, 912)]",[],[1],[0.05],horizontal,"(390.0, 762.0)",0.883333333,nan,1,11594.201
26,949,catch,"[(1109, 922)]",[],[1],[0.05],vertical,"(390.0, 262.0)",0.65,nan,1,11597.957
26,950,catch,"[(1105, 899)]",[],[1],[0.05],horizontal,"(390.0, 762.0)",0.966666667,nan,1,11601.622
26,951,catch,"[(1104, 902)]",[],[1],[0.05],horizontal,"(890.0, 762.0)",0.7,nan,1,11605.724
26,952,catch,"[(1105, 915)]",[],[1],[],horizontal,"(890.0, 262.0)",,cti_phase,0,11609.405
26,953,catch,"[(1115, 910)]",[],[1],[],horizontal,"(390.0, 762.0)",,cti_phase,0,11613.696
26,954,catch,"[(1105, 900)]",[],[1],[],vertical,"(390.0, 762.0)",,cti_phase,0,11617.929
26,955,catch,"[(1124, 895)]",[],[1],[0.05],vertical,"(390.0, 762.0)",0.983333333,nan,1,11625.381
26,956,catch,"[(1110, 906)]",[],[1],[0.05],horizontal,"(890.0, 762.0)",0.533333333,nan,1,11629.573
26,957,catch,"[(1119, 915)]",[],[1],[],vertical,"(890.0, 262.0)",,cti_phase,0,11632.941
26,958,catch,"[(1114, 894)]",[],[1],[0.05],horizontal,"(390.0, 762.0)",0.933333333,nan,1,11637.323
26,959,catch,"[(1105, 897)]",[],[1],[0.05],horizontal,"(390.0, 762.0)",0.916666667,nan,1,11641.349
26,960,catch,"[(1104, 897)]",[],[1],[0.05],vertical,"(390.0, 262.0)",0.6,nan,1,11645.24
26,961,catch,"[(1105, 898)]",[],[1],[0.05],horizontal,"(890.0, 762.0)",0.683333333,nan,1,11648.997
26,962,catch,"[(1100, 899)]",[],[1],[0.05],vertical,"(390.0, 762.0)",0.716666667,nan,1,11653.273
26,963,catch,"[(1121, 918)]",[],[1],[],horizontal,"(390.0, 262.0)",,cti_phase,0,11657.349
26,964,catch,"[(1103, 911)]",[],[1],[0.05],horizontal,"(390.0, 762.0)",1.033333333,nan,1,11661.523
26,965,catch,"[(1109, 912)]",[],[1],[],vertical,"(390.0, 762.0)",,cti_phase,0,11665.611
26,966,catch,"[(1119, 900)]",[],[1],[],horizontal,"(890.0, 762.0)",,cti_phase,0,11669.902
26,967,catch,"[(1128, 880)]",[],[1],[],horizontal,"(890.0, 262.0)",,cti_phase,0,11674.207
26,968,catch,"[(1115, 885)]",[],[1],[0.05],horizontal,"(390.0, 262.0)",0.966666667,nan,1,11678.856
26,969,catch,"[(1110, 907)]",[],[1],[0.05],vertical,"(890.0, 262.0)",0.533333333,nan,1,11683.146
26,970,catch,"[(1100, 898)]",[],[1],[0.05],vertical,"(390.0, 262.0)",0.55,nan,1,11686.806
26,971,catch,"[(1104, 895)]",[],[1],[],horizontal,"(890.0, 262.0)",,cti_phase,0,11690.657
26,972,catch,"[(1125, 903)]",[],[1],[0.05],horizontal,"(890.0, 262.0)",1,nan,1,11694.851
26,973,catch,"[(1120, 912)]",[],[1],[],horizontal,"(390.0, 262.0)",,cti_phase,0,11699.309
26,974,catch,"[(1130, 884)]",[],[1],[],horizontal,"(890.0, 762.0)",,cti_phase,0,11703.108
26,975,catch,"[(1115, 908)]",[],[1],[0.05],horizontal,"(390.0, 262.0)",0.516666667,nan,1,11706.99
27,976,target,"[(1112, 908)]",[],[1],[0.48333333333333334],vertical,"(390.0, 262.0)",1.016666667,0.445,1,11710.635
27,977,target,"[(1104, 894)]",[],[1],[],vertical,"(890.0, 262.0)",,cti_phase,0,11714.907
27,978,target,"[(1104, 879)]",[],[1],[],horizontal,"(390.0, 762.0)",,cti_phase,0,11718.64
27,979,target,"[(1128, 907)]",[],[1],[],horizontal,"(890.0, 262.0)",,cti_phase,0,11722.856
27,980,target,"[(1124, 913)]",[],[1],[0.35],vertical,"(390.0, 762.0)",1.133333333,0.314,1,11727.575
27,981,target,"[(1107, 896)]",[],[1],[0.55],horizontal,"(390.0, 762.0)",0.566666667,0.51,1,11732.327
27,982,target,"[(1107, 912)]",[],[1],[0.48333333333333334],horizontal,"(890.0, 762.0)",0.766666667,0.446,1,11736.241
27,983,target,"[(1105, 907)]",[],[1],[0.43333333333333335],horizontal,"(890.0, 762.0)",0.583333333,0.394,1,11740.568
27,984,target,"[(1100, 912)]",[],[1],[0.13333333333333333],vertical,"(390.0, 762.0)",1.25,0.1,1,11744.242
27,985,target,"[(1107, 901)]",[],[1],[0.16666666666666666],horizontal,"(890.0, 762.0)",1.133333333,0.135,1,11748.356
27,986,target,"[(1105, 908)]",[],[1],[],vertical,"(390.0, 762.0)",,cti_phase,0,11753.034
27,987,target,"[(1104, 891)]",[],[1],[0.36666666666666664],horizontal,"(890.0, 762.0)",0.866666667,0.33,1,11757.584
27,988,target,"[(1124, 915)]",[],[1],[0.05],vertical,"(890.0, 262.0)",1.15,0.021,1,11761.774
27,989,target,"[(1106, 912)]",[],[1],[0.48333333333333334],horizontal,"(890.0, 262.0)",0.566666667,0.446,1,11766.106
27,990,target,"[(1104, 885)]",[],[1],[0.7],vertical,"(390.0, 762.0)",0.533333333,0.657,1,11769.882
27,991,target,"[(1104, 901)]",[],[1],[],vertical,"(390.0, 262.0)",,cti_phase,0,11774.359
27,992,target,"[(1124, 907)]",[],[1],[0.5833333333333334],horizontal,"(890.0, 762.0)",0.55,0.537,1,11779.123
27,993,target,"[(1104, 883)]",[],[1],[0.5666666666666667],vertical,"(890.0, 262.0)",0.983333333,0.523,1,11783.331
27,994,target,"[(1105, 899)]",[],[1],[0.48333333333333334],vertical,"(890.0, 262.0)",0.95,0.442,1,11787.86
27,995,target,"[(1104, 899)]",[],[1],[],vertical,"(890.0, 762.0)",,cti_phase,0,11792.349
27,996,target,"[(1127, 906)]",[],[1],[0.5],horizontal,"(390.0, 762.0)",1.116666667,0.458,1,11796.347
27,997,target,"[(1124, 906)]",[],[1],[0.5833333333333334],vertical,"(890.0, 262.0)",0.516666667,0.538,1,11801.189
27,998,target,"[(1104, 903)]",[],[1],[0.06666666666666667],vertical,"(890.0, 762.0)",0.983333333,0.037,1,11804.941
27,999,target,"[(1124, 917)]",[],[1],[0.3],vertical,"(890.0, 762.0)",0.866666667,0.266,1,11808.811
27,1000,target,"[(1130, 918)]",[],[1],[],vertical,"(390.0, 762.0)",,cti_phase,0,11813.309
28,1001,catch,"[(1108, 867)]",[],[1],[0.05],horizontal,"(890.0, 262.0)",1.333333333,nan,1,11817.832
28,1002,catch,"[(1105, 907)]",[],[1],[],horizontal,"(890.0, 762.0)",,cti_phase,0,11821.993
28,1003,catch,"[(1124, 896)]",[],[1],[0.05],horizontal,"(390.0, 262.0)",1.4,nan,1,11826.731
28,1004,catch,"[(1109, 906)]",[],[1],[0.05],vertical,"(890.0, 262.0)",1.333333333,nan,1,11830.946
28,1005,catch,"[(1104, 915)]",[],[1],[0.05],vertical,"(890.0, 262.0)",0.866666667,nan,1,11835.424
28,1006,catch,"[(1115, 887)]",[],[1],[],vertical,"(890.0, 262.0)",,cti_phase,0,11839.779
28,1007,catch,"[(1128, 889)]",[],[1],[0.05],vertical,"(390.0, 262.0)",1.316666667,nan,1,11844.465
28,1008,catch,"[(1127, 899)]",[],[1],[0.05],horizontal,"(390.0, 262.0)",1.433333333,nan,1,11848.573
