block,trial,trial_type,taps_start_loc_during_fix,taps_end_loc_during_fix,taps_on_lever_during_fix,taps_on_lever_s_during_fix,bar_orientation,target_xy,cti,rt,acc,time
1,1,target,"[(1126, 884)]",[],[1],[0.6166666666666667],horizontal,"(890.0, 262.0)",1.55,0.571,1,0.019
1,2,target,"[(1100, 887)]",[],[1],[0.3833333333333333],vertical,"(890.0, 262.0)",1.0666666666666667,0.343,1,210.663
1,3,target,"[(1100, 889)]",[],[1],[0.85],horizontal,"(890.0, 262.0)",1.0333333333333332,nan,0,377.957
1,4,target,"[(1061, 874)]",[],[1],[0.85],vertical,"(890.0, 762.0)",0.5666666666666667,nan,0,383.215
1,5,target,"[(1129, 867)]",[],[1],[0.43333333333333335],vertical,"(390.0, 262.0)",1.35,0.391,1,388.281
1,6,target,"[(1096, 873)]",[],[1],[0.31666666666666665],vertical,"(390.0, 262.0)",1.65,0.28,1,393.882
1,7,target,"[(1100, 892)]",[],[1],[0.35],vertical,"(390.0, 262.0)",1.3666666666666667,0.309,1,398.59
1,8,target,"[(1098, 935)]",[],[1],[0.5333333333333333],horizontal,"(890.0, 762.0)",1.3,0.49,1,403.197
1,9,target,"[(1081, 894)]",[],[1],[],horizontal,"(390.0, 262.0)",,cti_phase,0,407.679
1,10,target,"[(1114, 893)]",[],[1],[0.11666666666666667],horizontal,"(890.0, 762.0)",1.5833333333333333,0.085,1,412.147
2,11,target,"[(1095, 896)]",[],[1],[0.7],horizontal,"(890.0, 762.0)",0.5166666666666666,0.652,1,417.123
2,12,target,"[(1100, 897)]",[],[1],[0.06666666666666667],vertical,"(890.0, 762.0)",1.2333333333333334,0.034,1,421.513
2,13,target,"[(1087, 891)]",[],[1],[0.16666666666666666],vertical,"(890.0, 762.0)",1.2333333333333334,0.132,1,425.447
2,14,target,"[(1095, 904)]",[],[1],[],vertical,"(890.0, 762.0)",,cti_phase,0,430.381
2,15,target,"[(1101, 888)]",[],[1],[0.21666666666666667],horizontal,"(390.0, 262.0)",1.1666666666666667,0.179,1,434.847
2,16,target,"[(1098, 911)]",[],[1],[],horizontal,"(890.0, 762.0)",,cti_phase,0,439.414
2,17,target,"[(1119, 892)]",[],[1],[0.7],vertical,"(890.0, 762.0)",0.65,0.655,1,443.879
2,18,target,"[(1089, 871)]",[],[1],[0.3833333333333333],horizontal,"(890.0, 262.0)",1.3833333333333333,0.341,1,448.224
2,19,target,"[(1102, 898)]",[],[1],[],vertical,"(890.0, 262.0)",,cti_phase,0,452.687
2,20,target,"[(1108, 890)]",[],[1],[0.5833333333333334],vertical,"(890.0, 762.0)",0.5,0.541,1,457.115
3,21,target,"[(1115, 868)]",[],[1],[],horizontal,"(390.0, 262.0)",,cti_phase,0,461.333
3,22,target,"[(1117, 888)]",[],[1],[0.05],horizontal,"(890.0, 262.0)",1.5333333333333332,0.018,1,465.847
3,23,target,"[(1105, 881)]",[],[1],[],vertical,"(390.0, 762.0)",,cti_phase,0,470.689
3,24,target,"[(1100, 902)]",[],[1],[0.4666666666666667],horizontal,"(390.0, 262.0)",1.0833333333333333,0.428,1,474.733
3,25,target,"[(1100, 910)]",[],[1],[0.55],horizontal,"(890.0, 262.0)",0.7333333333333333,0.504,1,479.308
3,26,target,"[(1081, 879)]",[],[1],[],vertical,"(390.0, 762.0)",,cti_phase,0,483.664
3,27,target,"[(1110, 871)]",[],[1],[0.6333333333333333],horizontal,"(390.0, 762.0)",0.6666666666666666,0.587,1,487.948
3,28,target,"[(1090, 897)]",[],[1],[],vertical,"(390.0, 762.0)",,cti_phase,0,492.331
3,29,target,"[(1100, 893)]",[],[1],[0.5333333333333333],vertical,"(890.0, 262.0)",1.1833333333333333,0.487,1,496.664
3,30,target,"[(1042, 864)]",[],[1],[],vertical,"(890.0, 762.0)",,cti_phase,0,501.506
4,31,target,"[(1093, 858)]",[],[1],[],vertical,"(890.0, 762.0)",,cti_phase,0,505.341
4,32,target,"[(1081, 868)]",[],[1],[0.6666666666666666],vertical,"(390.0, 262.0)",0.6,0.621,1,509.847
4,33,target,"[(1090, 892)]",[],[1],[0.06666666666666667],vertical,"(390.0, 762.0)",1.1833333333333333,0.034,1,514.046
4,34,target,"[(1084, 889)]",[],[1],[0.35],horizontal,"(890.0, 762.0)",1.1166666666666667,0.307,1,518.449
4,35,target,"[(1100, 918)]",[],[1],[0.25],vertical,"(890.0, 262.0)",0.8666666666666667,0.216,1,522.649
4,36,target,"[(1099, 899)]",[],[1],[0.65],horizontal,"(390.0, 262.0)",0.55,0.603,1,527.048
4,37,target,"[(1102, 911)]",[],[1],[0.4666666666666667],vertical,"(890.0, 262.0)",0.8333333333333334,0.433,1,531.167
4,38,target,"[(1090, 921)]",[],[1],[],horizontal,"(390.0, 262.0)",,cti_phase,0,535.444
4,39,target,"[(1100, 899)]",[],[1],[0.13333333333333333],vertical,"(890.0, 262.0)",1.45,0.101,1,539.946
4,40,target,"[(1100, 902)]",[],[1],[0.31666666666666665],horizontal,"(890.0, 262.0)",1.0166666666666666,0.278,1,544.616
5,41,target,"[(1085, 867)]",[],[1],[0.6333333333333333],horizontal,"(890.0, 762.0)",0.8333333333333334,0.593,1,549.351
5,42,target,"[(1077, 864)]",[],[1],[0.6333333333333333],vertical,"(390.0, 262.0)",0.9,0.586,1,554.067
5,43,target,"[(1100, 906)]",[],[1],[0.21666666666666667],vertical,"(390.0, 762.0)",1.25,0.182,1,558.548
5,44,target,"[(1092, 890)]",[],[1],[0.36666666666666664],vertical,"(890.0, 762.0)",1.5166666666666666,0.328,1,562.791
5,45,target,"[(1044, 920)]",[],[1],[0.85],vertical,"(390.0, 762.0)",1.0166666666666666,nan,0,567.931
5,46,target,"[(1090, 902)]",[],[1],[0.6333333333333333],vertical,"(390.0, 762.0)",0.7833333333333333,0.592,1,572.681
5,47,target,"[(1078, 892)]",[],[1],[],vertical,"(390.0, 762.0)",,cti_phase,0,577.799
5,48,target,"[(1100, 898)]",[],[1],[0.35],vertical,"(390.0, 762.0)",1.3666666666666667,0.311,1,582.547
5,49,target,"[(1095, 891)]",[],[1],[0.08333333333333333],horizontal,"(890.0, 762.0)",1.4166666666666667,0.054,1,587.188
5,50,target,"[(1086, 905)]",[],[1],[0.5],vertical,"(890.0, 762.0)",0.5666666666666667,0.463,1,591.833
6,51,target,"[(1071, 894)]",[],[1],[0.7666666666666666],horizontal,"(890.0, 262.0)",0.6666666666666666,0.724,1,596.197
6,52,target,"[(1085, 880)]",[],[1],[0.85],vertical,"(890.0, 762.0)",1.0,"cti_phase,nan",0,601.06
6,53,target,"[(1098, 891)]",[],[1],[0.7166666666666667],horizontal,"(390.0, 762.0)",0.5833333333333334,0.673,1,606.299
6,54,target,"[(1110, 892)]",[],[1],[0.3833333333333333],vertical,"(890.0, 262.0)",1.4,0.352,1,610.759
6,55,target,"[(1085, 873)]",[],[1],[0.5166666666666666],horizontal,"(390.0, 262.0)",0.7833333333333333,0.475,1,615.496
6,56,target,"[(1076, 902)]",[],[1],[],vertical,"(890.0, 762.0)",,cti_phase,0,620.13
6,57,target,"[(1086, 897)]",[],[1],[0.08333333333333333],vertical,"(890.0, 262.0)",1.5166666666666666,0.05,1,624.683
6,58,target,"[(1075, 899)]",[],[1],[0.5166666666666666],vertical,"(890.0, 762.0)",0.7333333333333333,0.483,1,629.183
6,59,target,"[(1098, 903)]",[],[1],[0.23333333333333334],vertical,"(390.0, 762.0)",1.1,0.199,1,633.902
6,60,target,"[(1085, 899)]",[],[1],[],horizontal,"(890.0, 762.0)",,cti_phase,0,638.645
7,61,target,"[(1100, 893)]",[],[1],[0.43333333333333335],vertical,"(890.0, 762.0)",0.65,0.393,1,643.193
7,62,target,"[(1088, 893)]",[],[1],[0.45],vertical,"(390.0, 762.0)",1.25,0.409,1,647.681
7,63,target,"[(1070, 909)]",[],[1],[0.16666666666666666],horizontal,"(390.0, 762.0)",1.0,0.134,1,652.031
7,64,target,"[(1104, 902)]",[],[1],[0.3833333333333333],horizontal,"(890.0, 762.0)",1.0166666666666666,0.345,1,656.448
7,65,target,"[(1071, 911)]",[],[1],[0.5666666666666667],horizontal,"(890.0, 762.0)",0.9666666666666667,0.521,1,661.303
7,66,target,"[(1099, 883)]",[],[1],[],horizontal,"(890.0, 762.0)",,cti_phase,0,666.081
7,67,target,"[(1097, 903)]",[],[1],[0.06666666666666667],horizontal,"(390.0, 262.0)",1.25,0.035,1,670.364
7,68,target,"[(1104, 897)]",[],[1],[0.55],vertical,"(390.0, 762.0)",0.6,0.504,1,674.552
7,69,target,"[(1090, 897)]",[],[1],[],horizontal,"(390.0, 762.0)",,cti_phase,0,678.915
7,70,target,"[(1104, 877)]",[],[1],[0.36666666666666664],horizontal,"(890.0, 262.0)",1.35,0.333,1,683.019
8,71,target,"[(1068, 901)]",[],[1],[0.7833333333333333],vertical,"(390.0, 262.0)",0.7833333333333333,0.742,1,687.515
8,72,target,"[(1086, 867)]",[],[1],[0.6166666666666667],horizontal,"(390.0, 762.0)",0.9333333333333333,0.574,1,691.848
8,73,target,"[(1070, 903)]",[],[1],[0.2833333333333333],vertical,"(890.0, 762.0)",1.0166666666666666,0.255,1,696.515
8,74,target,"[(1098, 911)]",[],[1],[0.75],horizontal,"(390.0, 762.0)",0.5333333333333333,0.707,1,701.058
8,75,target,"[(1075, 903)]",[],[1],[0.18333333333333332],vertical,"(890.0, 762.0)",1.05,0.149,1,705.568
8,76,target,"[(1081, 872)]",[],[1],[0.36666666666666664],vertical,"(390.0, 762.0)",1.0,0.326,1,710.0
8,77,target,"[(1096, 897)]",[],[1],[],vertical,"(390.0, 762.0)",,cti_phase,0,714.447
8,78,target,"[(1100, 890)]",[],[1],[0.2],vertical,"(390.0, 762.0)",1.6833333333333333,0.168,1,718.951
8,79,target,"[(1104, 932)]",[],[1],[0.48333333333333334],horizontal,"(890.0, 262.0)",1.0,0.445,1,723.861
8,80,target,"[(1098, 897)]",[],[1],[0.13333333333333333],vertical,"(390.0, 262.0)",1.2333333333333334,0.102,1,728.532
9,81,target,"[(1107, 905)]",[],[1],[0.25],vertical,"(890.0, 762.0)",1.2333333333333334,0.216,1,733.134
9,82,target,"[(1100, 904)]",[],[1],[0.5833333333333334],horizontal,"(390.0, 262.0)",1.1833333333333333,0.544,1,738.026
9,83,target,"[(1109, 901)]",[],[1],[0.06666666666666667],horizontal,"(390.0, 762.0)",1.3833333333333333,0.035,1,742.515
9,84,target,"[(1097, 902)]",[],[1],[0.18333333333333332],horizontal,"(390.0, 262.0)",1.4833333333333334,0.149,1,747.373
9,85,target,"[(1100, 906)]",[],[1],[0.6],vertical,"(390.0, 762.0)",0.5333333333333333,0.558,1,752.277
9,86,target,"[(1096, 908)]",[],[1],[0.5833333333333334],horizontal,"(390.0, 762.0)",0.6666666666666666,0.542,1,756.333
9,87,target,"[(1081, 902)]",[],[1],[0.6],vertical,"(390.0, 262.0)",0.5166666666666666,0.558,1,760.612
9,88,target,"[(1099, 901)]",[],[1],[0.5],vertical,"(390.0, 262.0)",0.85,0.46,1,764.739
9,89,target,"[(1080, 902)]",[],[1],[0.6166666666666667],vertical,"(890.0, 762.0)",0.7833333333333333,0.57,1,769.432
9,90,target,"[(1081, 908)]",[],[1],[0.6166666666666667],vertical,"(890.0, 762.0)",0.55,0.572,1,773.672
10,91,target,"[(1098, 911)]",[],[1],[0.31666666666666665],vertical,"(890.0, 762.0)",0.75,0.277,1,778.128
10,92,target,"[(1081, 921)]",[],[1],[0.36666666666666664],horizontal,"(390.0, 262.0)",0.8,0.327,1,782.549
10,93,target,"[(1081, 900)]",[],[1],[],horizontal,"(390.0, 262.0)",,cti_phase,0,787.278
10,94,target,"[(1100, 897)]",[],[1],[0.5333333333333333],horizontal,"(390.0, 262.0)",0.65,0.493,1,791.561
10,95,target,"[(1100, 922)]",[],[1],[0.15],vertical,"(890.0, 762.0)",0.8666666666666667,0.119,1,796.1
10,96,target,"[(1104, 917)]",[],[1],[],vertical,"(890.0, 762.0)",,cti_phase,0,800.232
10,97,target,"[(1098, 886)]",[],[1],[0.75],horizontal,"(890.0, 262.0)",0.8333333333333334,0.705,1,804.701
10,98,target,"[(1098, 911)]",[],[1],[0.21666666666666667],vertical,"(390.0, 762.0)",1.2,0.182,1,809.849
10,99,target,"[(1100, 893)]",[],[1],[0.6166666666666667],vertical,"(890.0, 762.0)",0.8833333333333333,0.575,1,814.855
10,100,target,"[(1100, 897)]",[],[1],[0.3833333333333333],vertical,"(890.0, 762.0)",0.9333333333333333,0.348,1,819.315
11,101,target,"[(1081, 897)]",[],[1],[0.5166666666666666],horizontal,"(890.0, 762.0)",1.1,0.478,1,824.293
11,102,target,"[(1075, 900)]",[],[1],[0.5166666666666666],horizontal,"(890.0, 762.0)",0.8833333333333333,0.477,1,828.615
11,103,target,"[(1081, 897)]",[],[1],[0.6],horizontal,"(890.0, 762.0)",0.5,0.553,1,833.066
11,104,target,"[(1090, 917)]",[],[1],[0.55],vertical,"(390.0, 262.0)",0.5,0.51,1,837.048
11,105,target,"[(1081, 927)]",[],[1],[0.11666666666666667],vertical,"(890.0, 262.0)",1.2666666666666666,0.083,1,841.316
11,106,target,"[(1081, 895)]",[],[1],[0.18333333333333332],vertical,"(390.0, 762.0)",1.2666666666666666,0.153,1,846.015
11,107,target,"[(1098, 893)]",[],[1],[0.16666666666666666],vertical,"(390.0, 262.0)",1.3333333333333333,0.132,1,850.565
11,108,target,"[(1098, 898)]",[],[1],[0.4],horizontal,"(890.0, 262.0)",1.4166666666666667,0.356,1,855.228
11,109,target,"[(1100, 896)]",[],[1],[0.05],vertical,"(390.0, 262.0)",1.4166666666666667,0.018,1,859.764
11,110,target,"[(1071, 898)]",[],[1],[0.5833333333333334],horizontal,"(890.0, 262.0)",1.05,0.546,1,864.065
12,111,target,"[(1098, 894)]",[],[1],[],horizontal,"(390.0, 262.0)",,cti_phase,0,869.049
12,112,target,"[(1098, 893)]",[],[1],[0.55],vertical,"(390.0, 262.0)",1.1,0.511,1,873.571
12,113,target,"[(1100, 905)]",[],[1],[0.5833333333333334],vertical,"(890.0, 762.0)",0.6666666666666666,0.542,1,878.248
12,114,target,"[(1066, 903)]",[],[1],[0.5833333333333334],horizontal,"(890.0, 262.0)",1.2166666666666666,0.541,1,882.568
12,115,target,"[(1104, 897)]",[],[1],[0.6],horizontal,"(390.0, 762.0)",0.5,0.556,1,887.364
12,116,target,"[(1083, 892)]",[],[1],[0.5833333333333334],vertical,"(390.0, 262.0)",0.6666666666666666,0.545,1,891.628
12,117,target,"[(1098, 906)]",[],[1],[0.8],horizontal,"(890.0, 262.0)",0.5333333333333333,0.762,1,896.349
12,118,target,"[(1098, 906)]",[],[1],[0.35],horizontal,"(390.0, 262.0)",1.35,0.312,1,900.846
12,119,target,"[(1090, 897)]",[],[1],[0.4166666666666667],horizontal,"(890.0, 762.0)",0.75,0.375,1,905.749
12,120,target,"[(1075, 916)]",[],[1],[0.5333333333333333],horizontal,"(890.0, 262.0)",0.7666666666666666,0.492,1,910.464
13,121,target,"[(1100, 905)]",[],[1],[0.6],horizontal,"(390.0, 762.0)",0.5833333333333334,0.559,1,914.795
13,122,target,"[(1095, 897)]",[],[1],[0.5833333333333334],vertical,"(390.0, 262.0)",0.9166666666666666,0.54,1,919.131
13,123,target,"[(1100, 902)]",[],[1],[0.35],vertical,"(890.0, 762.0)",0.9666666666666667,0.31,1,923.34
13,124,target,"[(1099, 903)]",[],[1],[0.15],vertical,"(890.0, 262.0)",1.5666666666666667,0.119,1,927.716
13,125,target,"[(1069, 915)]",[],[1],[0.15],vertical,"(390.0, 262.0)",1.3833333333333333,0.118,1,932.665
13,126,target,"[(1099, 895)]",[],[1],[0.2],horizontal,"(890.0, 262.0)",1.2666666666666666,0.169,1,937.481
13,127,target,"[(1099, 904)]",[],[1],[0.5166666666666666],horizontal,"(890.0, 262.0)",1.0833333333333333,0.474,1,942.433
13,128,target,"[(1100, 902)]",[],[1],[0.5666666666666667],vertical,"(890.0, 762.0)",0.8333333333333334,0.529,1,947.233
13,129,target,"[(1098, 898)]",[],[1],[0.5],horizontal,"(890.0, 262.0)",1.3166666666666667,0.463,1,951.75
13,130,target,"[(1100, 924)]",[],[1],[0.23333333333333334],vertical,"(390.0, 262.0)",1.55,0.201,1,956.782
14,131,target,"[(1100, 908)]",[],[1],[0.2833333333333333],vertical,"(390.0, 762.0)",1.2333333333333334,0.246,1,961.809
14,132,target,"[(1103, 898)]",[],[1],[0.6666666666666666],horizontal,"(390.0, 762.0)",0.7333333333333333,0.624,1,966.832
14,133,target,"[(1078, 902)]",[],[1],[0.05],horizontal,"(390.0, 762.0)",1.5166666666666666,0.02,1,971.316
14,134,target,"[(1099, 900)]",[],[1],[0.55],horizontal,"(890.0, 762.0)",0.8166666666666667,0.509,1,975.998
14,135,target,"[(1085, 920)]",[],[1],[0.45],vertical,"(390.0, 262.0)",1.6166666666666667,0.414,1,980.754
14,136,target,"[(1098, 900)]",[],[1],[0.5666666666666667],horizontal,"(890.0, 762.0)",0.5833333333333334,0.526,1,986.031
14,137,target,"[(1103, 897)]",[],[1],[0.5833333333333334],horizontal,"(390.0, 762.0)",0.5833333333333334,0.544,1,990.532
14,138,target,"[(1096, 894)]",[],[1],[0.3833333333333333],vertical,"(890.0, 262.0)",0.9166666666666666,0.351,1,994.35
14,139,target,"[(1071, 897)]",[],[1],[0.6833333333333333],vertical,"(890.0, 762.0)",0.65,0.638,1,999.078
14,140,target,"[(1099, 906)]",[],[1],[0.5666666666666667],vertical,"(890.0, 762.0)",0.85,0.531,1,1003.334
15,141,target,"[(1074, 888)]",[],[1],[0.5666666666666667],vertical,"(390.0, 262.0)",0.8666666666666667,0.526,1,1007.744
15,142,target,"[(1079, 900)]",[],[1],[0.08333333333333333],horizontal,"(890.0, 762.0)",1.6,0.052,1,1012.532
15,143,target,"[(1066, 915)]",[],[1],[0.26666666666666666],horizontal,"(390.0, 762.0)",1.4833333333333334,0.231,1,1017.191
15,144,target,"[(1099, 906)]",[],[1],[0.5333333333333333],horizontal,"(890.0, 762.0)",0.6833333333333333,0.492,1,1021.988
15,145,target,"[(1098, 921)]",[],[1],[0.6],horizontal,"(890.0, 262.0)",0.85,0.566,1,1026.159
15,146,target,"[(1097, 909)]",[],[1],[0.6333333333333333],horizontal,"(890.0, 262.0)",1.0166666666666666,0.594,1,1030.684
15,147,target,"[(1100, 901)]",[],[1],[0.2],horizontal,"(390.0, 762.0)",1.0833333333333333,0.17,1,1035.257
15,148,target,"[(1110, 899)]",[],[1],[0.31666666666666665],horizontal,"(390.0, 762.0)",1.35,0.284,1,1039.499
15,149,target,"[(1088, 895)]",[],[1],[0.4666666666666667],horizontal,"(390.0, 762.0)",1.2333333333333334,0.433,1,1044.006
15,150,target,"[(1098, 898)]",[],[1],[0.55],horizontal,"(890.0, 262.0)",1.3166666666666667,0.511,1,1048.987
16,151,target,"[(1100, 912)]",[],[1],[0.06666666666666667],horizontal,"(390.0, 762.0)",1.3166666666666667,0.036,1,1053.425
16,152,target,"[(1100, 903)]",[],[1],[0.5166666666666666],vertical,"(390.0, 762.0)",1.2,0.476,1,1058.017
16,153,target,"[(1098, 897)]",[],[1],[0.48333333333333334],vertical,"(890.0, 262.0)",0.9333333333333333,0.444,1,1062.533
16,154,target,"[(1099, 871)]",[],[1],[0.13333333333333333],vertical,"(890.0, 762.0)",1.35,0.1,1,1067.332
16,155,target,"[(1071, 911)]",[],[1],[0.85],vertical,"(890.0, 262.0)",0.5833333333333334,nan,0,1071.837
16,156,target,"[(1103, 894)]",[],[1],[0.21666666666666667],vertical,"(390.0, 762.0)",1.3333333333333333,0.184,1,1076.466
16,157,target,"[(1103, 911)]",[],[1],[0.26666666666666666],vertical,"(890.0, 262.0)",1.1833333333333333,0.233,1,1081.771
16,158,target,"[(1101, 911)]",[],[1],[0.5833333333333334],horizontal,"(390.0, 262.0)",0.7,0.544,1,1086.432
16,159,target,"[(1103, 897)]",[],[1],[0.4666666666666667],horizontal,"(890.0, 762.0)",0.9333333333333333,0.434,1,1091.107
16,160,target,"[(1100, 913)]",[],[1],[0.26666666666666666],horizontal,"(390.0, 762.0)",1.3333333333333333,0.233,1,1095.524
17,161,target,"[(1105, 926)]",[],[1],[],vertical,"(390.0, 762.0)",,cti_phase,0,1100.265
17,162,target,"[(1100, 889)]",[],[1],[],horizontal,"(890.0, 762.0)",,cti_phase,0,1104.519
17,163,target,"[(1100, 872)]",[],[1],[0.5833333333333334],vertical,"(890.0, 762.0)",0.7833333333333333,0.541,1,1109.216
17,164,target,"[(1107, 906)]",[],[1],[0.45],horizontal,"(390.0, 262.0)",1.5666666666666667,0.413,1,1113.849
17,165,target,"[(1099, 906)]",[],[1],[0.13333333333333333],horizontal,"(390.0, 762.0)",1.6166666666666667,0.1,1,1118.831
17,166,target,"[(1102, 897)]",[],[1],[0.26666666666666666],vertical,"(390.0, 262.0)",1.6333333333333333,0.237,1,1123.84
17,167,target,"[(1096, 915)]",[],[1],[0.5166666666666666],horizontal,"(890.0, 262.0)",1.05,0.48,1,1128.652
17,168,target,"[(1095, 912)]",[],[1],[0.08333333333333333],vertical,"(390.0, 762.0)",1.5666666666666667,0.053,1,1133.148
17,169,target,"[(1102, 911)]",[],[1],[0.2833333333333333],horizontal,"(390.0, 762.0)",1.5,0.247,1,1138.433
17,170,target,"[(1100, 926)]",[],[1],[0.16666666666666666],horizontal,"(390.0, 762.0)",1.6833333333333333,0.138,1,1143.082
18,171,target,"[(1099, 873)]",[],[1],[0.6],vertical,"(390.0, 262.0)",0.5833333333333334,0.565,1,1148.022
18,172,target,"[(1096, 897)]",[],[1],[0.5666666666666667],vertical,"(890.0, 762.0)",0.7166666666666667,0.524,1,1152.116
18,173,target,"[(1095, 906)]",[],[1],[0.05],vertical,"(890.0, 762.0)",1.4333333333333333,0.02,1,1156.324
18,174,target,"[(1100, 897)]",[],[1],[0.4666666666666667],horizontal,"(390.0, 262.0)",1.4,0.432,1,1161.049
18,175,target,"[(1099, 898)]",[],[1],[0.5],vertical,"(890.0, 262.0)",1.1833333333333333,0.459,1,1165.872
18,176,target,"[(1102, 901)]",[],[1],[0.13333333333333333],vertical,"(890.0, 262.0)",1.3833333333333333,0.104,1,1170.617
18,177,target,"[(1104, 901)]",[],[1],[0.7166666666666667],horizontal,"(390.0, 262.0)",0.7,0.67,1,1175.15
18,178,target,"[(1100, 897)]",[],[1],[0.55],horizontal,"(890.0, 262.0)",0.65,0.511,1,1179.893
18,179,target,"[(1098, 902)]",[],[1],[0.65],vertical,"(390.0, 262.0)",0.5,0.607,1,1184.266
18,180,target,"[(1086, 897)]",[],[1],[0.6],horizontal,"(890.0, 762.0)",0.5666666666666667,0.559,1,1188.151
19,181,target,"[(1108, 906)]",[],[1],[0.11666666666666667],horizontal,"(890.0, 262.0)",1.3833333333333333,0.086,1,1192.366
19,182,target,"[(1098, 897)]",[],[1],[0.05],vertical,"(890.0, 762.0)",1.2666666666666666,0.02,1,1197.23
19,183,target,"[(1098, 897)]",[],[1],[0.45],horizontal,"(890.0, 262.0)",1.35,0.413,1,1201.584
19,184,target,"[(1105, 909)]",[],[1],[],vertical,"(390.0, 262.0)",,cti_phase,0,1206.765
19,185,target,"[(1102, 905)]",[],[1],[0.23333333333333334],horizontal,"(390.0, 262.0)",1.6666666666666667,0.197,1,1211.366
19,186,target,"[(1100, 897)]",[],[1],[0.26666666666666666],horizontal,"(390.0, 762.0)",1.6333333333333333,0.231,1,1216.184
19,187,target,"[(1071, 903)]",[],[1],[0.6833333333333333],vertical,"(890.0, 762.0)",0.6666666666666666,0.639,1,1220.667
19,188,target,"[(1098, 916)]",[],[1],[0.6333333333333333],horizontal,"(390.0, 762.0)",1.0333333333333332,0.6,1,1225.315
19,189,target,"[(1100, 906)]",[],[1],[0.5833333333333334],horizontal,"(890.0, 262.0)",0.6666666666666666,0.546,1,1229.729
19,190,target,"[(1103, 910)]",[],[1],[0.6833333333333333],vertical,"(390.0, 262.0)",0.6666666666666666,0.641,1,1234.199
20,191,target,"[(1098, 899)]",[],[1],[0.45],horizontal,"(890.0, 262.0)",1.6,0.415,1,1238.878
20,192,target,"[(1103, 900)]",[],[1],[0.55],horizontal,"(890.0, 762.0)",0.9333333333333333,0.508,1,1244.334
20,193,target,"[(1098, 915)]",[],[1],[],vertical,"(890.0, 762.0)",,cti_phase,0,1248.667
20,194,target,"[(1100, 889)]",[],[1],[0.6],vertical,"(890.0, 762.0)",1.1,0.56,1,1253.031
20,195,target,"[(1081, 905)]",[],[1],[],horizontal,"(390.0, 762.0)",,cti_phase,0,1257.333
20,196,target,"[(1100, 884)]",[],[1],[0.23333333333333334],horizontal,"(390.0, 262.0)",1.1666666666666667,0.2,1,1262.055
20,197,target,"[(1100, 906)]",[],[1],[0.7166666666666667],vertical,"(390.0, 762.0)",1.1833333333333333,0.678,1,1266.734
20,198,target,"[(1110, 907)]",[],[1],[0.5666666666666667],vertical,"(390.0, 762.0)",0.9666666666666667,0.527,1,1271.75
20,199,target,"[(1100, 899)]",[],[1],[0.5],vertical,"(390.0, 762.0)",1.1333333333333333,0.463,1,1275.918
20,200,target,"[(1103, 897)]",[],[1],[0.7666666666666666],horizontal,"(890.0, 262.0)",0.9166666666666666,0.726,1,1280.349
21,201,target,"[(1094, 887)]",[],[1],[0.6],horizontal,"(890.0, 262.0)",1.15,0.563,1,1284.733
21,202,target,"[(1105, 897)]",[],[1],[0.3833333333333333],vertical,"(890.0, 762.0)",1.25,0.343,1,1289.202
21,203,target,"[(1081, 898)]",[],[1],[0.5166666666666666],horizontal,"(390.0, 262.0)",1.3666666666666667,0.478,1,1293.933
21,204,target,"[(1100, 906)]",[],[1],[0.13333333333333333],vertical,"(390.0, 762.0)",1.4166666666666667,0.1,1,1298.95
21,205,target,"[(1099, 906)]",[],[1],[0.5333333333333333],vertical,"(890.0, 762.0)",0.95,0.491,1,1303.541
21,206,target,"[(1101, 892)]",[],[1],[0.5],horizontal,"(390.0, 262.0)",0.6,0.465,1,1307.957
21,207,target,"[(1093, 904)]",[],[1],[],horizontal,"(890.0, 762.0)",,cti_phase,0,1312.443
21,208,target,"[(1100, 914)]",[],[1],[],horizontal,"(890.0, 762.0)",,cti_phase,0,1316.089
21,209,target,"[(1100, 882)]",[],[1],[0.4666666666666667],horizontal,"(390.0, 762.0)",1.1666666666666667,0.427,1,1320.021
21,210,target,"[(1100, 901)]",[],[1],[0.5833333333333334],vertical,"(390.0, 762.0)",0.5166666666666666,0.538,1,1324.934
22,211,target,"[(1098, 919)]",[],[1],[0.5833333333333334],horizontal,"(390.0, 262.0)",0.9166666666666666,0.554,1,1328.851
22,212,target,"[(1075, 913)]",[],[1],[0.5833333333333334],horizontal,"(890.0, 262.0)",0.5333333333333333,0.546,1,1333.117
22,213,target,"[(1085, 905)]",[],[1],[0.6166666666666667],horizontal,"(390.0, 762.0)",0.6333333333333333,0.578,1,1337.118
22,214,target,"[(1095, 921)]",[],[1],[0.43333333333333335],vertical,"(390.0, 762.0)",1.2333333333333334,0.392,1,1341.771
22,215,target,"[(1090, 886)]",[],[1],[0.6166666666666667],horizontal,"(390.0, 262.0)",0.5333333333333333,0.577,1,1346.3
22,216,target,"[(1095, 895)]",[],[1],[0.4666666666666667],horizontal,"(390.0, 262.0)",1.2833333333333332,0.426,1,1350.466
22,217,target,"[(1095, 896)]",[],[1],[0.55],vertical,"(390.0, 762.0)",1.35,0.51,1,1355.347
22,218,target,"[(1095, 898)]",[],[1],[0.5333333333333333],vertical,"(390.0, 262.0)",1.3166666666666667,0.496,1,1360.401
22,219,target,"[(1090, 901)]",[],[1],[0.55],vertical,"(890.0, 262.0)",0.7166666666666667,0.516,1,1365.283
22,220,target,"[(1100, 902)]",[],[1],[0.55],horizontal,"(390.0, 762.0)",1.0166666666666666,0.506,1,1369.768
23,221,target,"[(1100, 892)]",[],[1],[0.65],horizontal,"(890.0, 262.0)",1.3666666666666667,0.612,1,1374.276
23,222,target,"[(1100, 898)]",[],[1],[0.4166666666666667],vertical,"(390.0, 762.0)",1.4,0.384,1,1379.1
23,223,target,"[(1102, 911)]",[],[1],[0.6],horizontal,"(890.0, 262.0)",1.1,0.564,1,1383.85
23,224,target,"[(1096, 905)]",[],[1],[0.85],horizontal,"(390.0, 762.0)",1.55,"cti_phase,nan",0,1389.025
23,225,target,"[(1086, 888)]",[],[1],[0.5166666666666666],horizontal,"(390.0, 762.0)",1.1166666666666667,0.475,1,1394.718
23,226,target,"[(1104, 870)]",[],[1],[0.6833333333333333],vertical,"(890.0, 262.0)",0.8666666666666667,0.652,1,1399.566
23,227,target,"[(1098, 909)]",[],[1],[0.1],horizontal,"(390.0, 762.0)",1.5,0.068,1,1403.814
23,228,target,"[(1109, 906)]",[],[1],"[0.85, 0.85]",horizontal,"(890.0, 262.0)",0.8166666666666667,"0.799,nan",0,1408.62
23,229,target,"[(1090, 901)]",[],[1],[0.36666666666666664],horizontal,"(890.0, 762.0)",1.2666666666666666,0.329,1,1413.084
23,230,target,"[(1098, 906)]",[],[1],[0.36666666666666664],vertical,"(390.0, 762.0)",1.6,0.329,1,1418.133
24,231,target,"[(1085, 897)]",[],[1],[0.55],horizontal,"(890.0, 262.0)",1.2333333333333334,0.508,1,1423.111
24,232,target,"[(1104, 891)]",[],[1],[0.6],vertical,"(890.0, 262.0)",1.4166666666666667,0.553,1,1428.19
24,233,target,"[(1101, 899)]",[],[1],[0.6],vertical,"(390.0, 262.0)",1.3333333333333333,0.561,1,1433.245
24,234,target,"[(1095, 895)]",[],[1],[0.6166666666666667],horizontal,"(890.0, 762.0)",0.7166666666666667,0.576,1,1438.116
24,235,target,"[(1099, 900)]",[],[1],[0.45],horizontal,"(390.0, 762.0)",1.15,0.409,1,1442.6
24,236,target,"[(1095, 910)]",[],[1],[0.48333333333333334],horizontal,"(390.0, 762.0)",1.45,0.44,1,1447.118
24,237,target,"[(1100, 905)]",[],[1],[0.8],vertical,"(390.0, 262.0)",0.55,0.752,1,1451.751
24,238,target,"[(1094, 905)]",[],[1],[0.5666666666666667],horizontal,"(890.0, 762.0)",0.7833333333333333,0.525,1,1456.352
24,239,target,"[(1082, 891)]",[],[1],[0.5666666666666667],horizontal,"(390.0, 262.0)",1.4166666666666667,0.516,1,1460.861
24,240,target,"[(1094, 890)]",[],[1],[0.6166666666666667],vertical,"(390.0, 762.0)",1.2666666666666666,0.574,1,1465.739
25,241,target,"[(1095, 906)]",[],[1],[0.5666666666666667],horizontal,"(390.0, 762.0)",1.4666666666666666,0.526,1,1470.96
25,242,target,"[(1104, 884)]",[],[1],[0.65],vertical,"(390.0, 762.0)",0.6,0.6,1,1475.766
25,243,target,"[(1095, 898)]",[],[1],[0.55],vertical,"(890.0, 262.0)",1.6833333333333333,0.503,1,1479.984
25,244,target,"[(1104, 881)]",[],[1],[0.3],vertical,"(890.0, 762.0)",1.1333333333333333,0.266,1,1484.989
25,245,target,"[(1105, 903)]",[],[1],[0.6],horizontal,"(890.0, 262.0)",1.4333333333333333,0.556,1,1489.759
25,246,target,"[(1102, 896)]",[],[1],[0.6666666666666666],vertical,"(390.0, 262.0)",0.5333333333333333,0.619,1,1495.497
25,247,target,"[(1090, 897)]",[],[1],[0.5666666666666667],vertical,"(890.0, 762.0)",0.9166666666666666,0.528,1,1499.315
25,248,target,"[(1094, 901)]",[],[1],[0.55],vertical,"(390.0, 762.0)",1.25,0.51,1,1503.816
25,249,target,"[(1072, 897)]",[],[1],[0.55],horizontal,"(890.0, 262.0)",1.2333333333333334,0.509,1,1508.607
25,250,target,"[(1109, 902)]",[],[1],[0.48333333333333334],vertical,"(390.0, 762.0)",1.0833333333333333,0.442,1,1513.651
26,251,target,"[(1066, 905)]",[],[1],[0.6],horizontal,"(890.0, 262.0)",1.5333333333333332,0.561,1,1518.433
26,252,target,"[(1076, 898)]",[],[1],[0.48333333333333334],horizontal,"(890.0, 762.0)",1.1833333333333333,0.439,1,1523.467
26,253,target,"[(1097, 908)]",[],[1],[0.5666666666666667],vertical,"(390.0, 262.0)",1.3333333333333333,0.526,1,1527.933
26,254,target,"[(1095, 884)]",[],[1],[0.5666666666666667],horizontal,"(390.0, 762.0)",0.8166666666666667,0.521,1,1532.568
26,255,target,"[(1066, 921)]",[],[1],[0.6333333333333333],vertical,"(890.0, 262.0)",1.2333333333333334,0.59,1,1536.736
26,256,target,"[(1086, 892)]",[],[1],[0.5],horizontal,"(890.0, 262.0)",1.6333333333333333,0.458,1,1541.586
26,257,target,"[(1081, 915)]",[],[1],[0.7],vertical,"(390.0, 262.0)",0.6,0.656,1,1546.79
26,258,target,"[(1094, 898)]",[],[1],[0.2],horizontal,"(390.0, 262.0)",1.25,0.166,1,1551.084
26,259,target,"[(1095, 897)]",[],[1],[0.6333333333333333],horizontal,"(890.0, 762.0)",0.9666666666666667,0.589,1,1555.689
26,260,target,"[(1097, 897)]",[],[1],[0.5833333333333334],vertical,"(390.0, 262.0)",0.6833333333333333,0.539,1,1560.111
27,261,target,"[(1090, 901)]",[],[1],[0.5333333333333333],horizontal,"(890.0, 262.0)",1.5,0.493,1,1564.493
27,262,target,"[(1108, 907)]",[],[1],[0.31666666666666665],horizontal,"(890.0, 262.0)",1.5166666666666666,0.28,1,1569.666
27,263,target,"[(1095, 910)]",[],[1],[0.3333333333333333],vertical,"(890.0, 262.0)",1.65,0.298,1,1574.755
27,264,target,"[(1094, 902)]",[],[1],[0.5666666666666667],vertical,"(390.0, 762.0)",0.9333333333333333,0.537,1,1579.568
27,265,target,"[(1090, 880)]",[],[1],[0.55],vertical,"(390.0, 262.0)",1.1333333333333333,0.517,1,1584.185
27,266,target,"[(1104, 900)]",[],[1],[0.5166666666666666],horizontal,"(890.0, 762.0)",1.3833333333333333,0.478,1,1589.068
27,267,target,"[(1095, 898)]",[],[1],[0.7166666666666667],horizontal,"(890.0, 762.0)",0.9833333333333333,0.667,1,1593.642
27,268,target,"[(1104, 910)]",[],[1],[0.65],vertical,"(890.0, 762.0)",0.9333333333333333,0.604,1,1598.305
27,269,target,"[(1098, 897)]",[],[1],[0.6666666666666666],vertical,"(390.0, 762.0)",1.4333333333333333,0.624,1,1602.792
27,270,target,"[(1098, 906)]",[],[1],[0.6],horizontal,"(890.0, 262.0)",1.1,0.552,1,1607.874
28,271,target,"[(1095, 903)]",[],[1],[0.43333333333333335],vertical,"(390.0, 762.0)",1.6166666666666667,0.393,1,1612.62
28,272,target,"[(1097, 901)]",[],[1],[0.5833333333333334],vertical,"(890.0, 762.0)",1.35,0.541,1,1618.003
28,273,target,"[(1092, 895)]",[],[1],[0.5833333333333334],vertical,"(890.0, 762.0)",0.5166666666666666,0.54,1,1622.97
28,274,target,"[(1092, 904)]",[],[1],[0.7],vertical,"(890.0, 762.0)",0.7,0.654,1,1627.18
28,275,target,"[(1104, 902)]",[],[1],[0.55],vertical,"(390.0, 762.0)",1.2166666666666666,0.509,1,1631.766
28,276,target,"[(1090, 895)]",[],[1],[0.5666666666666667],vertical,"(390.0, 262.0)",1.2,0.524,1,1636.867
28,277,target,"[(1100, 925)]",[],[1],[0.05],vertical,"(390.0, 762.0)",1.6333333333333333,0.02,1,1641.698
28,278,target,"[(1096, 897)]",[],[1],[0.6166666666666667],vertical,"(390.0, 262.0)",1.1,0.572,1,1646.267
28,279,target,"[(1094, 901)]",[],[1],[0.6666666666666666],vertical,"(390.0, 262.0)",1.6,0.625,1,1651.168
28,280,target,"[(1077, 898)]",[],[1],[0.5333333333333333],vertical,"(390.0, 762.0)",1.3666666666666667,0.49,1,1656.558
29,281,target,"[(1095, 898)]",[],[1],[0.5833333333333334],vertical,"(390.0, 762.0)",1.25,0.537,1,1661.667
29,282,target,"[(1119, 902)]",[],[1],[0.55],horizontal,"(890.0, 262.0)",1.4666666666666666,0.507,1,1666.578
29,283,target,"[(1075, 892)]",[],[1],[0.43333333333333335],horizontal,"(390.0, 762.0)",1.4166666666666667,0.399,1,1671.393
29,284,target,"[(1099, 897)]",[],[1],[0.7166666666666667],vertical,"(390.0, 262.0)",0.9,0.672,1,1676.617
29,285,target,"[(1086, 900)]",[],[1],[0.6666666666666666],vertical,"(890.0, 262.0)",0.7,0.625,1,1681.277
29,286,target,"[(1099, 889)]",[],[1],[0.65],horizontal,"(390.0, 262.0)",1.2666666666666666,0.603,1,1686.106
29,287,target,"[(1085, 896)]",[],[1],[0.55],horizontal,"(390.0, 762.0)",0.95,0.503,1,1690.951
29,288,target,"[(1075, 907)]",[],[1],[0.5833333333333334],vertical,"(890.0, 262.0)",1.0666666666666667,0.544,1,1695.864
29,289,target,"[(1094, 894)]",[],[1],[0.2],vertical,"(890.0, 762.0)",1.5333333333333332,0.169,1,1700.661
29,290,target,"[(1066, 886)]",[],[1],[0.6],vertical,"(390.0, 262.0)",1.4333333333333333,0.557,1,1705.551
30,291,target,"[(1069, 906)]",[],[1],[0.5833333333333334],horizontal,"(890.0, 762.0)",0.7833333333333333,0.538,1,1710.569
30,292,target,"[(1104, 902)]",[],[1],[0.6],horizontal,"(390.0, 762.0)",0.8833333333333333,0.556,1,1715.166
30,293,target,"[(1094, 895)]",[],[1],[0.55],vertical,"(890.0, 262.0)",1.3833333333333333,0.508,1,1720.101
30,294,target,"[(1095, 903)]",[],[1],[0.55],vertical,"(390.0, 262.0)",1.4166666666666667,0.511,1,1725.008
30,295,target,"[(1095, 902)]",[],[1],[0.26666666666666666],horizontal,"(390.0, 762.0)",1.65,0.234,1,1729.773
30,296,target,"[(1092, 901)]",[],[1],[],horizontal,"(890.0, 762.0)",,cti_phase,0,1734.709
30,297,target,"[(1114, 892)]",[],[1],[0.5833333333333334],horizontal,"(890.0, 262.0)",1.3166666666666667,0.544,1,1739.636
30,298,target,"[(1095, 899)]",[],[1],[0.6833333333333333],vertical,"(890.0, 262.0)",1.3,0.64,1,1744.502
30,299,target,"[(1095, 899)]",[],[1],[0.7833333333333333],vertical,"(390.0, 762.0)",1.2666666666666666,0.732,1,1749.75
30,300,target,"[(1104, 909)]",[],[1],[0.6833333333333333],horizontal,"(890.0, 262.0)",1.05,0.636,1,1754.464
31,301,target,"[(1085, 902)]",[],[1],[0.6666666666666666],vertical,"(890.0, 762.0)",1.45,0.637,1,1758.874
31,302,target,"[(1086, 921)]",[],[1],[0.6166666666666667],vertical,"(890.0, 762.0)",1.1,0.578,1,1763.836
31,303,target,"[(1095, 901)]",[],[1],[0.55],vertical,"(890.0, 262.0)",1.1666666666666667,0.509,1,1768.892
31,304,target,"[(1109, 900)]",[],[1],[0.5833333333333334],horizontal,"(390.0, 762.0)",0.9166666666666666,0.542,1,1773.398
31,305,target,"[(1082, 911)]",[],[1],[0.6],vertical,"(390.0, 762.0)",1.65,0.556,1,1777.824
31,306,target,"[(1095, 902)]",[],[1],[0.65],vertical,"(390.0, 262.0)",0.8833333333333333,0.607,1,1782.901
31,307,target,"[(1083, 897)]",[],[1],[0.6],horizontal,"(390.0, 262.0)",0.5333333333333333,0.558,1,1787.331
31,308,target,"[(1095, 892)]",[],[1],[0.5666666666666667],vertical,"(390.0, 262.0)",1.1,0.527,1,1791.236
31,309,target,"[(1095, 897)]",[],[1],[0.5333333333333333],vertical,"(390.0, 262.0)",1.0166666666666666,0.489,1,1795.834
31,310,target,"[(1092, 885)]",[],[1],[0.55],vertical,"(390.0, 262.0)",0.65,0.502,1,1800.714
32,311,target,"[(1095, 906)]",[],[1],[0.1],horizontal,"(390.0, 762.0)",1.6333333333333333,0.068,1,1805.396
32,312,target,"[(1095, 888)]",[],[1],[0.6333333333333333],vertical,"(390.0, 762.0)",0.7666666666666666,0.586,1,1810.574
32,313,target,"[(1095, 892)]",[],[1],[0.35],horizontal,"(390.0, 762.0)",1.5,0.315,1,1814.636
32,314,target,"[(1119, 900)]",[],[1],[0.4],vertical,"(890.0, 762.0)",0.9,0.364,1,1819.697
32,315,target,"[(1095, 897)]",[],[1],[0.5166666666666666],horizontal,"(390.0, 762.0)",1.5333333333333332,0.475,1,1824.418
32,316,target,"[(1079, 901)]",[],[1],[0.08333333333333333],horizontal,"(890.0, 762.0)",1.2333333333333334,0.049,1,1829.384
32,317,target,"[(1104, 887)]",[],[1],[0.5],vertical,"(890.0, 262.0)",1.65,0.453,1,1834.268
32,318,target,"[(1090, 889)]",[],[1],[0.8166666666666667],vertical,"(890.0, 262.0)",0.8,0.77,1,1839.685
32,319,target,"[(1090, 892)]",[],[1],[0.5833333333333334],vertical,"(890.0, 262.0)",1.5,0.549,1,1844.134
32,320,target,"[(1107, 908)]",[],[1],[0.6],horizontal,"(390.0, 762.0)",1.3,0.558,1,1849.025
33,321,target,"[(1081, 906)]",[],[1],[0.5833333333333334],horizontal,"(890.0, 762.0)",1.25,0.543,1,1854.363
33,322,target,"[(1095, 890)]",[],[1],[0.6],horizontal,"(390.0, 762.0)",0.7166666666666667,0.558,1,1859.206
33,323,target,"[(1095, 903)]",[],[1],[0.5833333333333334],vertical,"(890.0, 262.0)",1.0833333333333333,0.544,1,1864.002
33,324,target,"[(1099, 897)]",[],[1],[0.5666666666666667],horizontal,"(890.0, 762.0)",0.8166666666666667,0.525,1,1868.685
33,325,target,"[(1104, 902)]",[],[1],[0.5666666666666667],vertical,"(890.0, 262.0)",1.0166666666666666,0.523,1,1873.486
33,326,target,"[(1095, 902)]",[],[1],[0.5833333333333334],horizontal,"(890.0, 762.0)",1.5,0.557,1,1878.843
33,327,target,"[(1103, 910)]",[],[1],[0.6166666666666667],vertical,"(890.0, 262.0)",0.6333333333333333,0.582,1,1883.8
33,328,target,"[(1095, 896)]",[],[1],[0.7666666666666666],horizontal,"(390.0, 262.0)",1.2,0.721,1,1888.303
33,329,target,"[(1071, 897)]",[],[1],[0.6666666666666666],vertical,"(890.0, 762.0)",0.5333333333333333,0.628,1,1892.88
33,330,target,"[(1095, 880)]",[],[1],[0.6],horizontal,"(890.0, 262.0)",1.2166666666666666,0.561,1,1897.102
34,331,target,"[(1094, 902)]",[],[1],[0.6],horizontal,"(390.0, 262.0)",1.1333333333333333,0.563,1,1902.012
34,332,target,"[(1103, 876)]",[],[1],[0.55],vertical,"(390.0, 262.0)",1.2166666666666666,0.508,1,1906.993
34,333,target,"[(1108, 932)]",[],[1],[0.5833333333333334],vertical,"(890.0, 762.0)",1.3,0.537,1,1911.86
34,334,target,"[(1095, 892)]",[],[1],[0.5833333333333334],vertical,"(890.0, 762.0)",1.15,0.54,1,1916.864
34,335,target,"[(1095, 887)]",[],[1],[0.7166666666666667],vertical,"(890.0, 262.0)",0.6666666666666666,0.676,1,1921.517
34,336,target,"[(1095, 902)]",[],[1],[0.5666666666666667],vertical,"(890.0, 262.0)",0.7,0.53,1,1926.06
34,337,target,"[(1095, 892)]",[],[1],[0.7833333333333333],vertical,"(390.0, 262.0)",1.5166666666666666,0.742,1,1930.184
34,338,target,"[(1085, 892)]",[],[1],[0.5833333333333334],horizontal,"(890.0, 262.0)",1.3,0.545,1,1935.778
34,339,target,"[(1075, 892)]",[],[1],[0.65],vertical,"(890.0, 262.0)",1.6166666666666667,0.606,1,1940.91
34,340,target,"[(1095, 907)]",[],[1],[0.6333333333333333],horizontal,"(890.0, 762.0)",0.5,0.59,1,1946.349
35,341,target,"[(1095, 880)]",[],[1],[0.6833333333333333],horizontal,"(390.0, 762.0)",0.5166666666666666,0.639,1,1950.418
35,342,target,"[(1081, 897)]",[],[1],[0.55],horizontal,"(890.0, 262.0)",1.5,0.506,1,1955.587
35,343,target,"[(1081, 889)]",[],[1],[0.5],horizontal,"(890.0, 762.0)",1.5,0.462,1,1960.609
35,344,target,"[(1095, 911)]",[],[1],[0.7166666666666667],horizontal,"(890.0, 762.0)",1.6333333333333333,0.673,1,1966.038
35,345,target,"[(1104, 894)]",[],[1],[0.65],horizontal,"(390.0, 762.0)",1.3833333333333333,0.609,1,1971.185
35,346,target,"[(1095, 918)]",[],[1],[0.6333333333333333],horizontal,"(390.0, 762.0)",1.4,0.601,1,1975.87
35,347,target,"[(1094, 889)]",[],[1],[0.6333333333333333],vertical,"(890.0, 262.0)",1.3833333333333333,0.594,1,1981.298
35,348,target,"[(1071, 907)]",[],[1],[0.5666666666666667],vertical,"(890.0, 262.0)",1.4833333333333334,0.528,1,1986.013
35,349,target,"[(1100, 926)]",[],[1],[0.5833333333333334],horizontal,"(890.0, 762.0)",1.0166666666666666,0.537,1,1991.209
35,350,target,"[(1107, 895)]",[],[1],[0.85],vertical,"(890.0, 262.0)",0.8,nan,0,2075.969
36,351,target,"[(1104, 931)]",[],[1],[0.55],horizontal,"(890.0, 762.0)",1.0333333333333332,0.51,1,2081.112
36,352,target,"[(1097, 902)]",[],[1],[0.55],horizontal,"(890.0, 762.0)",0.8166666666666667,0.518,1,2086.21
36,353,target,"[(1100, 909)]",[],[1],[0.5666666666666667],horizontal,"(890.0, 262.0)",0.8333333333333334,0.529,1,2090.785
36,354,target,"[(1094, 902)]",[],[1],[0.5833333333333334],horizontal,"(390.0, 262.0)",0.6,0.541,1,2095.378
36,355,target,"[(1105, 924)]",[],[1],[0.6166666666666667],vertical,"(390.0, 262.0)",0.9166666666666666,0.574,1,2099.637
36,356,target,"[(1100, 916)]",[],[1],[0.5333333333333333],horizontal,"(890.0, 262.0)",1.4833333333333334,0.495,1,2103.899
36,357,target,"[(1110, 907)]",[],[1],[0.4666666666666667],vertical,"(390.0, 262.0)",1.4,0.426,1,2108.786
36,358,target,"[(1095, 892)]",[],[1],[0.7],horizontal,"(890.0, 262.0)",0.5,0.654,1,2113.786
36,359,target,"[(1071, 911)]",[],[1],[0.6833333333333333],vertical,"(390.0, 762.0)",0.9666666666666667,0.639,1,2118.018
36,360,target,"[(1095, 905)]",[],[1],[0.4666666666666667],horizontal,"(890.0, 762.0)",1.4,0.435,1,2122.368
37,361,target,"[(1095, 931)]",[],[1],[0.5833333333333334],vertical,"(890.0, 262.0)",1.0833333333333333,0.542,1,2127.103
37,362,target,"[(1095, 901)]",[],[1],[0.55],horizontal,"(890.0, 762.0)",1.1833333333333333,0.507,1,2132.302
37,363,target,"[(1095, 917)]",[],[1],[0.36666666666666664],vertical,"(890.0, 762.0)",1.6666666666666667,0.335,1,2137.064
37,364,target,"[(1104, 897)]",[],[1],[0.6],horizontal,"(390.0, 262.0)",0.65,0.558,1,2142.268
37,365,target,"[(1095, 902)]",[],[1],[0.5833333333333334],vertical,"(890.0, 762.0)",0.8666666666666667,0.544,1,2146.469
37,366,target,"[(1073, 897)]",[],[1],[0.5833333333333334],vertical,"(890.0, 262.0)",1.3833333333333333,0.543,1,2151.068
37,367,target,"[(1098, 887)]",[],[1],[0.5166666666666666],horizontal,"(390.0, 262.0)",1.4333333333333333,0.475,1,2155.75
37,368,target,"[(1092, 905)]",[],[1],[0.4666666666666667],vertical,"(890.0, 762.0)",1.6833333333333333,0.426,1,2161.052
37,369,target,"[(1081, 926)]",[],[1],[0.6833333333333333],horizontal,"(390.0, 762.0)",0.7333333333333333,0.644,1,2165.987
37,370,target,"[(1069, 893)]",[],[1],[0.75],vertical,"(890.0, 262.0)",1.0833333333333333,0.704,1,2170.786
38,371,target,"[(1104, 899)]",[],[1],[0.65],horizontal,"(390.0, 262.0)",1.1333333333333333,0.611,1,2175.619
38,372,target,"[(1086, 930)]",[],[1],[0.6333333333333333],horizontal,"(390.0, 762.0)",0.8333333333333334,0.59,1,2180.511
38,373,target,"[(1092, 901)]",[],[1],[0.6],horizontal,"(390.0, 262.0)",0.9,0.563,1,2185.318
38,374,target,"[(1095, 906)]",[],[1],[0.5],horizontal,"(890.0, 262.0)",1.55,0.458,1,2189.868
38,375,target,"[(1100, 886)]",[],[1],[0.5],vertical,"(390.0, 262.0)",1.6333333333333333,0.465,1,2194.669
38,376,target,"[(1125, 900)]",[],[1],[0.5666666666666667],vertical,"(890.0, 262.0)",0.9666666666666667,0.526,1,2200.048
38,377,target,"[(1092, 887)]",[],[1],[0.7666666666666666],vertical,"(390.0, 762.0)",1.25,0.73,1,2204.616
38,378,target,"[(1095, 896)]",[],[1],[0.6],vertical,"(390.0, 762.0)",0.9666666666666667,0.561,1,2210.071
38,379,target,"[(1100, 893)]",[],[1],[0.5833333333333334],vertical,"(890.0, 762.0)",0.5666666666666667,0.539,1,2214.895
38,380,target,"[(1101, 902)]",[],[1],[0.26666666666666666],horizontal,"(390.0, 262.0)",1.5833333333333333,0.231,1,2219.435
39,381,target,"[(1108, 905)]",[],[1],[0.6],vertical,"(390.0, 762.0)",1.4166666666666667,0.564,1,2224.723
39,382,target,"[(1095, 902)]",[],[1],[0.4166666666666667],vertical,"(890.0, 762.0)",1.35,0.378,1,2229.686
39,383,target,"[(1100, 916)]",[],[1],[0.5666666666666667],horizontal,"(890.0, 762.0)",1.15,0.531,1,2234.371
39,384,target,"[(1098, 906)]",[],[1],[0.5166666666666666],vertical,"(890.0, 262.0)",1.4,0.484,1,2239.479
39,385,target,"[(1095, 903)]",[],[1],[0.45],horizontal,"(390.0, 762.0)",1.5833333333333333,0.414,1,2244.426
39,386,target,"[(1095, 906)]",[],[1],[0.5333333333333333],horizontal,"(890.0, 262.0)",1.2166666666666666,0.493,1,2249.418
39,387,target,"[(1066, 896)]",[],[1],[0.75],horizontal,"(890.0, 262.0)",0.7666666666666666,0.704,1,2253.963
39,388,target,"[(1099, 916)]",[],[1],[0.6333333333333333],vertical,"(390.0, 262.0)",1.5333333333333332,0.597,1,2258.871
39,389,target,"[(1104, 902)]",[],[1],[0.6],vertical,"(390.0, 762.0)",1.4833333333333334,0.561,1,2263.971
39,390,target,"[(1071, 897)]",[],[1],[0.65],horizontal,"(890.0, 262.0)",1.6666666666666667,0.613,1,2269.023
40,391,target,"[(1129, 908)]",[],[1],[0.5833333333333334],vertical,"(390.0, 762.0)",1.5666666666666667,0.544,1,2274.594
40,392,target,"[(1098, 902)]",[],[1],[0.7166666666666667],vertical,"(390.0, 262.0)",0.8166666666666667,0.678,1,2279.76
40,393,target,"[(1098, 910)]",[],[1],[0.7166666666666667],vertical,"(390.0, 262.0)",0.5333333333333333,0.677,1,2284.269
40,394,target,"[(1099, 903)]",[],[1],[0.5666666666666667],horizontal,"(390.0, 262.0)",0.9333333333333333,0.526,1,2288.608
40,395,target,"[(1100, 916)]",[],[1],[0.6166666666666667],vertical,"(890.0, 762.0)",1.05,0.577,1,2293.403
40,396,target,"[(1095, 889)]",[],[1],[0.65],horizontal,"(390.0, 762.0)",1.4,0.619,1,2298.136
40,397,target,"[(1095, 905)]",[],[1],[0.6166666666666667],horizontal,"(390.0, 262.0)",1.6333333333333333,0.579,1,2302.885
40,398,target,"[(1095, 900)]",[],[1],[0.6666666666666666],horizontal,"(390.0, 762.0)",1.1833333333333333,0.623,1,2308.185
40,399,target,"[(1094, 889)]",[],[1],[0.7],horizontal,"(390.0, 262.0)",0.55,0.655,1,2312.803
40,400,target,"[(1095, 901)]",[],[1],[0.5333333333333333],vertical,"(890.0, 262.0)",1.5333333333333332,0.488,1,2317.019
41,401,target,"[(1081, 891)]",[],[1],[0.6666666666666666],horizontal,"(890.0, 762.0)",1.1333333333333333,0.625,1,2322.251
41,402,target,"[(1081, 914)]",[],[1],[0.48333333333333334],horizontal,"(390.0, 762.0)",1.2166666666666666,0.447,1,2326.786
41,403,target,"[(1071, 902)]",[],[1],[0.5666666666666667],vertical,"(890.0, 762.0)",0.6333333333333333,0.524,1,2331.904
41,404,target,"[(1095, 900)]",[],[1],[0.6666666666666666],horizontal,"(390.0, 262.0)",0.5166666666666666,0.63,1,2336.291
41,405,target,"[(1066, 902)]",[],[1],[0.6],vertical,"(890.0, 262.0)",0.9166666666666666,0.557,1,2340.286
41,406,target,"[(1093, 883)]",[],[1],[0.85],horizontal,"(390.0, 762.0)",1.0666666666666667,nan,0,2345.404
41,407,target,"[(1095, 926)]",[],[1],[0.5833333333333334],vertical,"(390.0, 762.0)",0.5333333333333333,0.537,1,2349.921
41,408,target,"[(1095, 898)]",[],[1],[0.55],horizontal,"(890.0, 762.0)",0.8333333333333334,0.514,1,2353.882
41,409,target,"[(1095, 894)]",[],[1],[0.55],vertical,"(890.0, 762.0)",1.3,0.509,1,2360.703
41,410,target,"[(1088, 892)]",[],[1],[0.5833333333333334],horizontal,"(390.0, 762.0)",0.85,0.547,1,2365.549
42,411,target,"[(1071, 927)]",[],[1],[0.48333333333333334],horizontal,"(390.0, 762.0)",1.2333333333333334,0.446,1,2370.167
42,412,target,"[(1066, 889)]",[],[1],[0.5833333333333334],horizontal,"(390.0, 762.0)",1.1333333333333333,0.545,1,2374.902
42,413,target,"[(1095, 904)]",[],[1],[0.4666666666666667],horizontal,"(890.0, 762.0)",1.3666666666666667,0.421,1,2380.02
42,414,target,"[(1095, 901)]",[],[1],[0.5666666666666667],vertical,"(390.0, 762.0)",1.5,0.524,1,2384.804
42,415,target,"[(1095, 898)]",[],[1],[0.55],horizontal,"(890.0, 762.0)",1.2333333333333334,0.511,1,2389.72
42,416,target,"[(1095, 904)]",[],[1],[0.4],vertical,"(890.0, 762.0)",1.55,0.361,1,2394.738
42,417,target,"[(1095, 906)]",[],[1],[0.6],vertical,"(390.0, 762.0)",0.7666666666666666,0.561,1,2399.754
42,418,target,"[(1098, 905)]",[],[1],[0.7166666666666667],horizontal,"(390.0, 762.0)",1.05,0.671,1,2404.652
42,419,target,"[(1100, 895)]",[],[1],[0.5833333333333334],vertical,"(890.0, 262.0)",0.7666666666666666,0.543,1,2409.32
42,420,target,"[(1095, 928)]",[],[1],[0.35],horizontal,"(390.0, 762.0)",1.5666666666666667,0.311,1,2413.739
43,421,target,"[(1095, 893)]",[],[1],[0.6333333333333333],vertical,"(890.0, 762.0)",0.5833333333333334,0.591,1,2418.58
43,422,target,"[(1071, 906)]",[],[1],[0.5],vertical,"(890.0, 762.0)",1.6166666666666667,0.462,1,2422.79
43,423,target,"[(1095, 900)]",[],[1],[0.5166666666666666],vertical,"(890.0, 262.0)",1.55,0.481,1,2428.079
43,424,target,"[(1076, 901)]",[],[1],[0.55],horizontal,"(890.0, 762.0)",1.55,0.519,1,2433.115
43,425,target,"[(1095, 901)]",[],[1],[0.6],horizontal,"(890.0, 262.0)",1.3666666666666667,0.558,1,2438.53
43,426,target,"[(1081, 902)]",[],[1],[0.7666666666666666],horizontal,"(890.0, 262.0)",1.4666666666666666,0.725,1,2443.754
43,427,target,"[(1090, 892)]",[],[1],[0.6166666666666667],horizontal,"(390.0, 262.0)",0.9833333333333333,0.584,1,2448.669
43,428,target,"[(1095, 894)]",[],[1],[0.5666666666666667],horizontal,"(890.0, 762.0)",0.85,0.531,1,2453.206
43,429,target,"[(1095, 902)]",[],[1],[0.5333333333333333],horizontal,"(390.0, 262.0)",1.3,0.495,1,2458.189
43,430,target,"[(1095, 902)]",[],[1],[0.6833333333333333],vertical,"(890.0, 762.0)",0.7833333333333333,0.639,1,2463.018
44,431,target,"[(1095, 928)]",[],[1],[0.55],horizontal,"(890.0, 762.0)",1.0666666666666667,0.511,1,2467.822
44,432,target,"[(1095, 887)]",[],[1],[0.6333333333333333],horizontal,"(390.0, 762.0)",0.9833333333333333,0.601,1,2472.621
44,433,target,"[(1097, 888)]",[],[1],[0.65],vertical,"(890.0, 762.0)",0.95,0.606,1,2477.204
44,434,target,"[(1085, 901)]",[],[1],[0.5666666666666667],vertical,"(390.0, 762.0)",1.1666666666666667,0.532,1,2481.986
44,435,target,"[(1104, 889)]",[],[1],[0.85],horizontal,"(390.0, 262.0)",0.6666666666666666,nan,0,2487.074
44,436,target,"[(1090, 888)]",[],[1],[0.6166666666666667],vertical,"(890.0, 762.0)",0.6333333333333333,0.582,1,2491.705
44,437,target,"[(1095, 900)]",[],[1],[0.6333333333333333],vertical,"(390.0, 762.0)",1.2666666666666666,0.603,1,2496.5
44,438,target,"[(1094, 902)]",[],[1],[0.5833333333333334],vertical,"(390.0, 262.0)",1.2,0.546,1,2501.835
44,439,target,"[(1069, 902)]",[],[1],[0.6166666666666667],horizontal,"(390.0, 762.0)",1.5833333333333333,0.569,1,2506.719
44,440,target,"[(1071, 897)]",[],[1],[0.5833333333333334],horizontal,"(890.0, 262.0)",1.5,0.542,1,2511.985
45,441,target,"[(1061, 915)]",[],[1],[0.5166666666666666],horizontal,"(890.0, 262.0)",1.6166666666666667,0.485,1,2516.645
45,442,target,"[(1066, 903)]",[],[1],[0.48333333333333334],horizontal,"(890.0, 762.0)",1.4166666666666667,0.442,1,2522.305
45,443,target,"[(1094, 894)]",[],[1],[0.5666666666666667],vertical,"(890.0, 262.0)",1.25,0.529,1,2527.253
45,444,target,"[(1067, 931)]",[],[1],[0.7166666666666667],horizontal,"(890.0, 262.0)",0.6333333333333333,0.675,1,2532.104
45,445,target,"[(1063, 883)]",[],[1],[0.65],horizontal,"(890.0, 762.0)",0.9666666666666667,0.611,1,2536.937
45,446,target,"[(1095, 877)]",[],[1],[0.5833333333333334],vertical,"(390.0, 262.0)",0.5833333333333334,0.543,1,2582.556
45,447,target,"[(1095, 887)]",[],[1],[0.6333333333333333],horizontal,"(390.0, 762.0)",1.25,0.588,1,2586.653
45,448,target,"[(1099, 901)]",[],[1],[0.5833333333333334],horizontal,"(890.0, 762.0)",1.6,0.541,1,2591.486
45,449,target,"[(1071, 927)]",[],[1],[0.5333333333333333],vertical,"(890.0, 262.0)",1.2666666666666666,0.489,1,2596.42
45,450,target,"[(1070, 898)]",[],[1],[0.6166666666666667],horizontal,"(390.0, 262.0)",0.5,0.571,1,2601.721
46,451,target,"[(1128, 880)]",[],[1],[0.5],horizontal,"(890.0, 262.0)",1.4333333333333333,0.451,1,2605.652
46,452,target,"[(1095, 903)]",[],[1],[0.6],horizontal,"(390.0, 762.0)",1.35,0.556,1,2610.454
46,453,target,"[(1094, 912)]",[],[1],[0.6333333333333333],horizontal,"(390.0, 762.0)",0.7833333333333333,0.591,1,2615.513
46,454,target,"[(1095, 911)]",[],[1],[0.55],vertical,"(890.0, 762.0)",1.55,0.506,1,2620.111
46,455,target,"[(1100, 897)]",[],[1],[0.65],horizontal,"(890.0, 762.0)",0.95,0.607,1,2625.231
46,456,target,"[(1076, 888)]",[],[1],[0.85],horizontal,"(890.0, 262.0)",0.6833333333333333,nan,0,2630.062
46,457,target,"[(1095, 873)]",[],[1],[0.5666666666666667],vertical,"(390.0, 762.0)",1.6833333333333333,0.524,1,2634.755
46,458,target,"[(1092, 926)]",[],[1],[0.48333333333333334],horizontal,"(890.0, 762.0)",1.2333333333333334,0.439,1,2640.429
46,459,target,"[(1090, 926)]",[],[1],[0.5166666666666666],vertical,"(390.0, 262.0)",1.25,0.471,1,2645.431
46,460,target,"[(1095, 916)]",[],[1],[0.5333333333333333],horizontal,"(890.0, 262.0)",1.3166666666666667,0.495,1,2650.62
47,461,target,"[(1095, 916)]",[],[1],[0.6],vertical,"(390.0, 762.0)",1.3333333333333333,0.554,1,2655.695
47,462,target,"[(1094, 906)]",[],[1],[0.55],vertical,"(390.0, 262.0)",1.3666666666666667,0.511,1,2660.588
47,463,target,"[(1076, 892)]",[],[1],[0.5333333333333333],vertical,"(890.0, 762.0)",1.35,0.495,1,2665.487
47,464,target,"[(1095, 892)]",[],[1],[0.5833333333333334],horizontal,"(890.0, 762.0)",0.7666666666666666,0.536,1,2670.371
47,465,target,"[(1074, 877)]",[],[1],[0.48333333333333334],vertical,"(390.0, 262.0)",1.3333333333333333,0.445,1,2674.887
47,466,target,"[(1096, 896)]",[],[1],[0.5666666666666667],horizontal,"(890.0, 762.0)",1.3666666666666667,0.526,1,2680.102
47,467,target,"[(1090, 897)]",[],[1],[0.5333333333333333],horizontal,"(890.0, 262.0)",1.4333333333333333,0.491,1,2684.797
47,468,target,"[(1076, 898)]",[],[1],[0.5333333333333333],vertical,"(890.0, 762.0)",1.3666666666666667,0.496,1,2689.887
47,469,target,"[(1099, 905)]",[],[1],[0.5833333333333334],vertical,"(890.0, 762.0)",0.55,0.544,1,2694.672
47,470,target,"[(1098, 905)]",[],[1],[0.6333333333333333],vertical,"(390.0, 762.0)",0.9333333333333333,0.589,1,2699.105
48,471,target,"[(1090, 915)]",[],[1],[0.55],horizontal,"(890.0, 262.0)",1.0166666666666666,0.505,1,2704.083
48,472,target,"[(1076, 930)]",[],[1],[0.6666666666666666],vertical,"(890.0, 762.0)",1.4,0.618,1,2708.371
48,473,target,"[(1100, 932)]",[],[1],[0.85],horizontal,"(890.0, 262.0)",0.8666666666666667,nan,0,2713.854
48,474,target,"[(1095, 891)]",[],[1],[0.7333333333333333],vertical,"(890.0, 262.0)",0.8,0.699,1,2718.821
48,475,target,"[(1104, 898)]",[],[1],[0.6333333333333333],vertical,"(390.0, 262.0)",0.6166666666666667,0.592,1,2723.688
48,476,target,"[(1095, 920)]",[],[1],[0.6333333333333333],vertical,"(390.0, 262.0)",0.65,0.591,1,2727.704
48,477,target,"[(1095, 917)]",[],[1],[0.5666666666666667],horizontal,"(890.0, 262.0)",1.5,0.524,1,2732.237
48,478,target,"[(1095, 900)]",[],[1],[0.55],vertical,"(890.0, 262.0)",0.8833333333333333,0.507,1,2737.571
48,479,target,"[(1082, 922)]",[],[1],[0.5666666666666667],horizontal,"(890.0, 762.0)",1.1666666666666667,0.524,1,2741.762
48,480,target,"[(1095, 906)]",[],[1],[0.7833333333333333],vertical,"(890.0, 262.0)",0.6166666666666667,0.738,1,2746.643
49,481,target,"[(1092, 904)]",[],[1],[0.6333333333333333],horizontal,"(890.0, 762.0)",1.3,0.587,1,2751.368
49,482,target,"[(1105, 895)]",[],[1],[0.6],vertical,"(390.0, 262.0)",0.5666666666666667,0.56,1,2756.413
49,483,target,"[(1075, 923)]",[],[1],[0.5666666666666667],vertical,"(890.0, 262.0)",1.1333333333333333,0.523,1,2760.429
49,484,target,"[(1095, 907)]",[],[1],[0.55],horizontal,"(390.0, 262.0)",1.15,0.507,1,2765.031
49,485,target,"[(1099, 909)]",[],[1],[0.55],horizontal,"(390.0, 262.0)",1.4166666666666667,0.503,1,2769.99
49,486,target,"[(1094, 901)]",[],[1],[0.85],vertical,"(890.0, 262.0)",1.1666666666666667,nan,0,2774.637
49,487,target,"[(1095, 897)]",[],[1],[0.5166666666666666],vertical,"(890.0, 262.0)",1.1,0.474,1,2779.534
49,488,target,"[(1095, 901)]",[],[1],[0.85],vertical,"(390.0, 262.0)",1.25,nan,0,2784.587
49,489,target,"[(1090, 913)]",[],[1],[0.85],vertical,"(890.0, 762.0)",1.25,nan,0,2789.733
49,490,target,"[(1090, 876)]",[],[1],[],horizontal,"(390.0, 262.0)",,cti_phase,0,2794.977
50,491,target,"[(1092, 892)]",[],[1],[0.55],vertical,"(890.0, 762.0)",0.9166666666666666,0.503,1,2800.302
50,492,target,"[(1100, 897)]",[],[1],[0.6166666666666667],vertical,"(390.0, 262.0)",0.7333333333333333,0.577,1,2823.646
50,493,target,"[(1104, 907)]",[],[1],[0.5666666666666667],horizontal,"(390.0, 762.0)",1.2166666666666666,0.524,1,2827.908
50,494,target,"[(1095, 910)]",[],[1],[0.85],horizontal,"(390.0, 262.0)",0.55,nan,0,2832.629
50,495,target,"[(1097, 891)]",[],[1],[0.5666666666666667],horizontal,"(390.0, 762.0)",0.5833333333333334,0.521,1,2837.172
50,496,target,"[(1090, 905)]",[],[1],[0.6833333333333333],horizontal,"(390.0, 262.0)",0.8166666666666667,0.64,1,2841.118
50,497,target,"[(1092, 904)]",[],[1],[0.4166666666666667],horizontal,"(390.0, 262.0)",1.6333333333333333,0.384,1,2846.024
50,498,target,"[(1076, 911)]",[],[1],[0.65],horizontal,"(890.0, 762.0)",0.9666666666666667,0.606,1,2850.997
50,499,target,"[(1105, 871)]",[],[1],[0.5666666666666667],vertical,"(890.0, 762.0)",1.0833333333333333,0.521,1,2855.99
50,500,target,"[(1089, 908)]",[],[1],[0.4],vertical,"(390.0, 762.0)",1.5333333333333332,0.363,1,2860.77
51,501,target,"[(1092, 919)]",[],[1],[0.25],vertical,"(890.0, 262.0)",1.6666666666666667,0.214,1,2865.854
51,502,target,"[(1125, 893)]",[],[1],[0.5833333333333334],vertical,"(890.0, 762.0)",0.65,0.544,1,2871.047
51,503,target,"[(1124, 897)]",[],[1],[0.6166666666666667],horizontal,"(390.0, 262.0)",0.5,0.574,1,2875.577
51,504,target,"[(1095, 931)]",[],[1],[0.5],vertical,"(890.0, 262.0)",1.3,0.458,1,2879.563
51,505,target,"[(1095, 931)]",[],[1],[0.6333333333333333],horizontal,"(890.0, 762.0)",1.0833333333333333,0.588,1,2884.788
51,506,target,"[(1095, 900)]",[],[1],[0.5666666666666667],horizontal,"(390.0, 762.0)",1.0166666666666666,0.523,1,2889.621
51,507,target,"[(1098, 907)]",[],[1],[0.6],vertical,"(390.0, 762.0)",0.7833333333333333,0.558,1,2894.187
51,508,target,"[(1104, 906)]",[],[1],[0.6166666666666667],vertical,"(390.0, 262.0)",0.7833333333333333,0.587,1,2898.798
51,509,target,"[(1098, 912)]",[],[1],[0.55],horizontal,"(890.0, 762.0)",0.9666666666666667,0.508,1,2903.554
51,510,target,"[(1066, 923)]",[],[1],[0.6166666666666667],horizontal,"(890.0, 262.0)",1.1166666666666667,0.574,1,2907.804
52,511,target,"[(1094, 897)]",[],[1],[0.5666666666666667],horizontal,"(890.0, 762.0)",0.9,0.528,1,2912.912
52,512,target,"[(1085, 896)]",[],[1],[0.5333333333333333],horizontal,"(890.0, 262.0)",1.2666666666666666,0.491,1,2917.438
52,513,target,"[(1094, 900)]",[],[1],[0.6333333333333333],horizontal,"(390.0, 262.0)",0.75,0.594,1,2922.2
52,514,target,"[(1095, 899)]",[],[1],[0.4166666666666667],vertical,"(390.0, 262.0)",1.35,0.377,1,2926.36
52,515,target,"[(1095, 902)]",[],[1],[0.55],vertical,"(890.0, 262.0)",1.1833333333333333,0.513,1,2931.662
52,516,target,"[(1095, 906)]",[],[1],[0.6],vertical,"(390.0, 262.0)",0.7666666666666666,0.562,1,2936.138
52,517,target,"[(1094, 905)]",[],[1],[0.5833333333333334],horizontal,"(890.0, 262.0)",1.2,0.551,1,2940.834
52,518,target,"[(1095, 896)]",[],[1],[0.5833333333333334],vertical,"(890.0, 762.0)",0.8666666666666667,0.547,1,2945.772
52,519,target,"[(1098, 907)]",[],[1],[0.6666666666666666],horizontal,"(890.0, 762.0)",1.0,0.62,1,2950.106
52,520,target,"[(1095, 902)]",[],[1],[0.6166666666666667],vertical,"(390.0, 762.0)",1.1333333333333333,0.574,1,2955.004
53,521,target,"[(1063, 904)]",[],[1],[0.5333333333333333],horizontal,"(390.0, 262.0)",1.3333333333333333,0.495,1,2960.017
53,522,target,"[(1124, 892)]",[],[1],[0.5666666666666667],horizontal,"(390.0, 262.0)",0.7,0.527,1,2964.867
53,523,target,"[(1095, 894)]",[],[1],[0.55],horizontal,"(890.0, 262.0)",0.7,0.513,1,2969.268
53,524,target,"[(1163, 884)]",[],[1],[0.85],horizontal,"(390.0, 262.0)",0.5,nan,0,2973.607
53,525,target,"[(1095, 904)]",[],[1],[0.5333333333333333],horizontal,"(890.0, 762.0)",1.3666666666666667,0.499,1,2978.062
53,526,target,"[(1095, 900)]",[],[1],[0.48333333333333334],horizontal,"(390.0, 262.0)",1.2,0.447,1,2983.04
53,527,target,"[(1095, 895)]",[],[1],[0.08333333333333333],vertical,"(890.0, 762.0)",1.5166666666666666,0.053,1,2987.556
53,528,target,"[(1071, 902)]",[],[1],[0.5],horizontal,"(890.0, 262.0)",1.5333333333333332,0.459,1,2992.383
53,529,target,"[(1095, 897)]",[],[1],[0.7166666666666667],vertical,"(890.0, 762.0)",1.4166666666666667,0.674,1,2997.271
53,530,target,"[(1094, 898)]",[],[1],[0.5833333333333334],horizontal,"(390.0, 262.0)",0.9666666666666667,0.545,1,3002.339
54,531,target,"[(1108, 906)]",[],[1],[0.5166666666666666],horizontal,"(890.0, 262.0)",1.0666666666666667,0.471,1,3006.97
54,532,target,"[(1128, 908)]",[],[1],[0.5166666666666666],vertical,"(390.0, 262.0)",1.0833333333333333,0.474,1,3011.806
54,533,target,"[(1095, 904)]",[],[1],[0.5666666666666667],horizontal,"(890.0, 762.0)",0.9333333333333333,0.533,1,3016.19
54,534,target,"[(1066, 904)]",[],[1],[0.6166666666666667],horizontal,"(390.0, 262.0)",1.2166666666666666,0.576,1,3022.525
54,535,target,"[(1071, 910)]",[],[1],[0.13333333333333333],vertical,"(390.0, 262.0)",1.6,0.1,1,3027.004
54,536,target,"[(1098, 882)]",[],[1],[0.5833333333333334],horizontal,"(890.0, 762.0)",0.9333333333333333,0.549,1,3032.09
54,537,target,"[(1095, 877)]",[],[1],[0.48333333333333334],vertical,"(890.0, 262.0)",1.5666666666666667,0.443,1,3036.599
54,538,target,"[(1075, 904)]",[],[1],[0.3833333333333333],horizontal,"(390.0, 762.0)",1.65,0.344,1,3041.846
54,539,target,"[(1079, 898)]",[],[1],[0.6333333333333333],horizontal,"(390.0, 762.0)",0.8333333333333334,0.595,1,3046.849
54,540,target,"[(1070, 895)]",[],[1],[0.6333333333333333],horizontal,"(390.0, 262.0)",1.25,0.59,1,3051.573
55,541,target,"[(1092, 900)]",[],[1],[0.48333333333333334],vertical,"(390.0, 762.0)",1.1,0.447,1,3056.484
55,542,target,"[(1066, 904)]",[],[1],[0.5333333333333333],horizontal,"(890.0, 262.0)",1.3166666666666667,0.495,1,3061.621
55,543,target,"[(1095, 897)]",[],[1],[0.5],horizontal,"(390.0, 262.0)",1.4666666666666666,0.459,1,3066.356
55,544,target,"[(1066, 898)]",[],[1],[0.5833333333333334],horizontal,"(390.0, 262.0)",1.0166666666666666,0.545,1,3071.482
55,545,target,"[(1075, 894)]",[],[1],[0.5333333333333333],horizontal,"(890.0, 262.0)",1.0166666666666666,0.495,1,3076.496
55,546,target,"[(1095, 872)]",[],[1],[0.5666666666666667],horizontal,"(390.0, 262.0)",0.5333333333333333,0.53,1,3081.247
55,547,target,"[(1095, 891)]",[],[1],[0.55],vertical,"(890.0, 762.0)",1.2333333333333334,0.511,1,3085.589
55,548,target,"[(1090, 895)]",[],[1],[0.6333333333333333],vertical,"(390.0, 762.0)",1.4333333333333333,0.584,1,3090.322
55,549,target,"[(1095, 872)]",[],[1],[0.5166666666666666],horizontal,"(890.0, 262.0)",1.55,0.475,1,3096.159
55,550,target,"[(1064, 872)]",[],[1],[0.85],vertical,"(890.0, 262.0)",0.5333333333333333,nan,0,3101.153
56,551,target,"[(1094, 902)]",[],[1],[0.5833333333333334],horizontal,"(890.0, 762.0)",1.3666666666666667,0.542,1,3105.967
56,552,target,"[(1132, 895)]",[],[1],[0.5666666666666667],horizontal,"(890.0, 762.0)",1.0166666666666666,0.524,1,3110.821
56,553,target,"[(1105, 919)]",[],[1],[0.5333333333333333],horizontal,"(390.0, 262.0)",1.2166666666666666,0.49,1,3115.455
56,554,target,"[(1095, 894)]",[],[1],[0.6333333333333333],vertical,"(390.0, 262.0)",1.5833333333333333,0.588,1,3120.172
56,555,target,"[(1095, 907)]",[],[1],[0.48333333333333334],horizontal,"(890.0, 262.0)",1.3666666666666667,0.439,1,3125.057
56,556,target,"[(1095, 893)]",[],[1],[0.5666666666666667],horizontal,"(390.0, 762.0)",1.4833333333333334,0.519,1,3130.021
56,557,target,"[(1085, 898)]",[],[1],[0.5333333333333333],vertical,"(890.0, 262.0)",0.9166666666666666,0.492,1,3135.097
56,558,target,"[(1095, 893)]",[],[1],[0.65],horizontal,"(390.0, 262.0)",0.5333333333333333,0.616,1,3139.509
56,559,target,"[(1096, 905)]",[],[1],[0.5333333333333333],vertical,"(890.0, 262.0)",1.4166666666666667,0.496,1,3143.368
56,560,target,"[(1095, 898)]",[],[1],[0.65],vertical,"(390.0, 262.0)",1.35,0.607,1,3148.433
57,561,target,"[(1105, 902)]",[],[1],[0.5833333333333334],vertical,"(390.0, 262.0)",1.1666666666666667,0.543,1,3153.295
57,562,target,"[(1113, 897)]",[],[1],[0.5333333333333333],vertical,"(890.0, 262.0)",1.4333333333333333,0.489,1,3157.689
57,563,target,"[(1095, 879)]",[],[1],[0.7],vertical,"(390.0, 262.0)",0.9833333333333333,0.66,1,3162.838
57,564,target,"[(1103, 879)]",[],[1],[0.55],horizontal,"(390.0, 762.0)",1.2833333333333332,0.51,1,3167.49
57,565,target,"[(1094, 902)]",[],[1],[0.5666666666666667],vertical,"(390.0, 262.0)",1.25,0.522,1,3172.717
57,566,target,"[(1109, 891)]",[],[1],[0.6833333333333333],vertical,"(390.0, 762.0)",0.9666666666666667,0.65,1,3177.406
57,567,target,"[(1109, 872)]",[],[1],[0.48333333333333334],vertical,"(890.0, 262.0)",1.2666666666666666,0.444,1,3182.274
57,568,target,"[(1095, 895)]",[],[1],[0.5],vertical,"(390.0, 262.0)",1.2,0.466,1,3187.389
57,569,target,"[(1061, 898)]",[],[1],[0.5833333333333334],vertical,"(390.0, 762.0)",0.8833333333333333,0.545,1,3192.122
57,570,target,"[(1111, 897)]",[],[1],[0.5833333333333334],vertical,"(390.0, 262.0)",0.7333333333333333,0.547,1,3196.817
58,571,target,"[(1107, 905)]",[],[1],[0.5166666666666666],horizontal,"(890.0, 262.0)",1.4166666666666667,0.474,1,3201.101
58,572,target,"[(1063, 908)]",[],[1],[0.65],horizontal,"(890.0, 762.0)",1.6166666666666667,0.609,1,3205.891
58,573,target,"[(1116, 897)]",[],[1],[0.7333333333333333],vertical,"(390.0, 262.0)",1.4,0.688,1,3211.772
58,574,target,"[(1109, 899)]",[],[1],[0.55],horizontal,"(890.0, 762.0)",0.8166666666666667,0.507,1,3216.688
58,575,target,"[(1107, 893)]",[],[1],[0.5666666666666667],horizontal,"(390.0, 262.0)",0.65,0.527,1,3221.421
58,576,target,"[(1099, 902)]",[],[1],[0.6333333333333333],vertical,"(390.0, 262.0)",0.6166666666666667,0.593,1,3225.773
58,577,target,"[(1100, 893)]",[],[1],[0.5666666666666667],vertical,"(390.0, 762.0)",0.9,0.534,1,3229.722
58,578,target,"[(1086, 890)]",[],[1],[0.6666666666666666],vertical,"(390.0, 262.0)",1.1166666666666667,0.63,1,3234.522
58,579,target,"[(1118, 901)]",[],[1],[0.55],vertical,"(390.0, 262.0)",1.1,0.514,1,3239.705
58,580,target,"[(1104, 903)]",[],[1],[0.25],vertical,"(890.0, 762.0)",1.5,0.217,1,3244.19
59,581,target,"[(1103, 897)]",[],[1],[0.7666666666666666],vertical,"(890.0, 262.0)",0.75,0.727,1,3249.342
59,582,target,"[(1095, 891)]",[],[1],[0.55],vertical,"(890.0, 762.0)",1.35,0.509,1,3254.205
59,583,target,"[(1081, 893)]",[],[1],[0.6166666666666667],vertical,"(390.0, 262.0)",0.6666666666666666,0.576,1,3259.158
59,584,target,"[(1095, 902)]",[],[1],[0.6166666666666667],vertical,"(390.0, 762.0)",0.5166666666666666,0.576,1,3263.188
59,585,target,"[(1090, 902)]",[],[1],[0.55],horizontal,"(390.0, 762.0)",1.35,0.509,1,3267.124
59,586,target,"[(1081, 887)]",[],[1],[0.48333333333333334],vertical,"(890.0, 262.0)",1.3833333333333333,0.45,1,3272.41
59,587,target,"[(1094, 877)]",[],[1],[0.5166666666666666],vertical,"(890.0, 262.0)",1.1166666666666667,0.479,1,3277.373
59,588,target,"[(1087, 890)]",[],[1],[0.6333333333333333],horizontal,"(890.0, 262.0)",1.2833333333333332,0.586,1,3281.884
59,589,target,"[(1099, 871)]",[],[1],[0.75],vertical,"(390.0, 262.0)",0.65,0.706,1,3287.135
59,590,target,"[(1095, 904)]",[],[1],[0.6666666666666666],horizontal,"(890.0, 762.0)",0.7166666666666667,0.629,1,3291.666
60,591,target,"[(1095, 891)]",[],[1],[0.5666666666666667],horizontal,"(890.0, 762.0)",1.0666666666666667,0.53,1,3295.889
60,592,target,"[(1095, 906)]",[],[1],[0.55],horizontal,"(390.0, 262.0)",1.0,0.509,1,3300.823
60,593,target,"[(1094, 892)]",[],[1],[0.1],vertical,"(390.0, 262.0)",1.6333333333333333,0.068,1,3305.686
60,594,target,"[(1095, 909)]",[],[1],[0.5666666666666667],horizontal,"(890.0, 762.0)",1.1,0.528,1,3310.775
60,595,target,"[(1107, 890)]",[],[1],[0.5333333333333333],horizontal,"(890.0, 762.0)",1.2166666666666666,0.496,1,3315.586
60,596,target,"[(1075, 899)]",[],[1],[0.5666666666666667],horizontal,"(390.0, 762.0)",1.0833333333333333,0.533,1,3320.271
60,597,target,"[(1098, 897)]",[],[1],[0.55],vertical,"(390.0, 262.0)",1.2666666666666666,0.507,1,3325.239
60,598,target,"[(1082, 891)]",[],[1],[0.5166666666666666],horizontal,"(390.0, 262.0)",0.6666666666666666,0.484,1,3329.972
60,599,target,"[(1095, 902)]",[],[1],[0.85],vertical,"(390.0, 762.0)",0.6833333333333333,nan,0,3334.415
60,600,target,"[(1095, 893)]",[],[1],[0.5833333333333334],vertical,"(390.0, 262.0)",0.95,0.543,1,3338.927
61,601,target,"[(1086, 878)]",[],[1],[0.5333333333333333],vertical,"(890.0, 262.0)",1.6,0.506,1,3345.52
61,602,target,"[(1075, 903)]",[],[1],[0.5],vertical,"(890.0, 262.0)",1.35,0.468,1,3351.237
61,603,target,"[(1095, 880)]",[],[1],[0.5666666666666667],horizontal,"(890.0, 762.0)",1.3166666666666667,0.527,1,3355.788
61,604,target,"[(1095, 904)]",[],[1],[0.3333333333333333],horizontal,"(390.0, 262.0)",1.4,0.303,1,3360.701
61,605,target,"[(1090, 882)]",[],[1],[0.5666666666666667],vertical,"(390.0, 762.0)",0.7833333333333333,0.535,1,3365.688
61,606,target,"[(1094, 899)]",[],[1],[0.5666666666666667],horizontal,"(390.0, 762.0)",1.5,0.522,1,3369.817
61,607,target,"[(1075, 886)]",[],[1],[0.5333333333333333],horizontal,"(390.0, 262.0)",1.1666666666666667,0.501,1,3375.143
61,608,target,"[(1086, 889)]",[],[1],[0.3],horizontal,"(390.0, 262.0)",1.6,0.275,1,3380.04
61,609,target,"[(1096, 903)]",[],[1],[0.5666666666666667],horizontal,"(890.0, 262.0)",0.5,0.532,1,3385.01
61,610,target,"[(1095, 897)]",[],[1],[0.5333333333333333],vertical,"(390.0, 262.0)",0.6166666666666667,0.511,1,3389.402
62,611,target,"[(1107, 902)]",[],[1],[0.5],horizontal,"(390.0, 762.0)",1.4333333333333333,0.471,1,3393.798
62,612,target,"[(1067, 923)]",[],[1],[0.5166666666666666],horizontal,"(390.0, 262.0)",0.8333333333333334,0.486,1,3398.982
62,613,target,"[(1075, 927)]",[],[1],[0.11666666666666667],vertical,"(890.0, 762.0)",1.5166666666666666,0.087,1,3403.757
62,614,target,"[(1094, 883)]",[],[1],[0.5833333333333334],horizontal,"(890.0, 762.0)",1.5333333333333332,0.559,1,3408.972
62,615,target,"[(1098, 902)]",[],[1],[0.5666666666666667],vertical,"(390.0, 762.0)",0.75,0.534,1,3415.024
62,616,target,"[(1085, 901)]",[],[1],[0.7333333333333333],vertical,"(390.0, 762.0)",0.6333333333333333,0.71,1,3419.072
62,617,target,"[(1085, 879)]",[],[1],[0.7333333333333333],horizontal,"(390.0, 262.0)",0.65,0.707,1,3423.604
62,618,target,"[(1093, 876)]",[],[1],[0.5],horizontal,"(390.0, 762.0)",1.5666666666666667,0.469,1,3427.96
62,619,target,"[(1086, 899)]",[],[1],[0.6166666666666667],horizontal,"(890.0, 262.0)",1.2166666666666666,0.587,1,3432.846
62,620,target,"[(1074, 882)]",[],[1],[0.26666666666666666],vertical,"(890.0, 762.0)",1.3833333333333333,0.234,1,3437.721
63,621,target,"[(1104, 906)]",[],[1],[0.5833333333333334],vertical,"(890.0, 762.0)",0.8833333333333333,0.555,1,3442.597
63,622,target,"[(1104, 874)]",[],[1],[0.5666666666666667],horizontal,"(890.0, 762.0)",1.3666666666666667,0.54,1,3446.973
63,623,target,"[(1085, 868)]",[],[1],[0.5166666666666666],vertical,"(890.0, 262.0)",1.0333333333333332,0.492,1,3451.886
63,624,target,"[(1095, 915)]",[],[1],[0.7333333333333333],horizontal,"(890.0, 262.0)",0.8666666666666667,0.709,1,3456.711
63,625,target,"[(1095, 912)]",[],[1],[0.6333333333333333],vertical,"(890.0, 262.0)",1.2166666666666666,0.6,1,3462.515
63,626,target,"[(1095, 916)]",[],[1],[0.5],horizontal,"(390.0, 262.0)",1.2833333333333332,0.469,1,3467.742
63,627,target,"[(1113, 907)]",[],[1],[0.4166666666666667],vertical,"(890.0, 762.0)",1.4,0.385,1,3472.787
63,628,target,"[(1096, 894)]",[],[1],[0.5666666666666667],vertical,"(890.0, 762.0)",1.4333333333333333,0.528,1,3477.972
63,629,target,"[(1100, 893)]",[],[1],[0.5666666666666667],horizontal,"(890.0, 262.0)",1.1666666666666667,0.535,1,3483.193
63,630,target,"[(1099, 889)]",[],[1],[0.65],horizontal,"(390.0, 262.0)",1.0333333333333332,0.62,1,3487.75
64,631,target,"[(1100, 902)]",[],[1],[0.5833333333333334],horizontal,"(890.0, 762.0)",0.8666666666666667,0.554,1,3492.512
64,632,target,"[(1100, 902)]",[],[1],[0.5],horizontal,"(390.0, 262.0)",1.55,0.471,1,3497.107
64,633,target,"[(1100, 880)]",[],[1],[0.5666666666666667],vertical,"(390.0, 762.0)",0.5333333333333333,0.537,1,3502.199
64,634,target,"[(1099, 897)]",[],[1],[0.5333333333333333],vertical,"(890.0, 262.0)",0.9,0.501,1,3506.686
64,635,target,"[(1085, 901)]",[],[1],[0.7],horizontal,"(890.0, 762.0)",1.05,0.665,1,3511.204
64,636,target,"[(1100, 893)]",[],[1],[0.5166666666666666],vertical,"(890.0, 262.0)",0.9333333333333333,0.48,1,3516.175
64,637,target,"[(1104, 892)]",[],[1],[0.5833333333333334],vertical,"(390.0, 262.0)",1.3333333333333333,0.555,1,3520.707
64,638,target,"[(1096, 916)]",[],[1],[0.6],horizontal,"(890.0, 262.0)",1.0833333333333333,0.57,1,3525.632
64,639,target,"[(1081, 895)]",[],[1],[0.6166666666666667],vertical,"(390.0, 762.0)",0.7333333333333333,0.577,1,3530.296
64,640,target,"[(1081, 902)]",[],[1],[0.5],vertical,"(890.0, 262.0)",1.3833333333333333,0.458,1,3534.991
65,641,target,"[(1081, 889)]",[],[1],[0.5833333333333334],vertical,"(890.0, 762.0)",0.7,0.544,1,3540.188
65,642,target,"[(1104, 882)]",[],[1],[0.5166666666666666],horizontal,"(890.0, 262.0)",1.3666666666666667,0.477,1,3544.306
65,643,target,"[(1130, 888)]",[],[1],[0.5666666666666667],horizontal,"(390.0, 262.0)",1.5333333333333332,0.528,1,3549.39
65,644,target,"[(1069, 890)]",[],[1],[0.55],horizontal,"(890.0, 262.0)",0.9,0.51,1,3554.346
65,645,target,"[(1098, 902)]",[],[1],[0.6166666666666667],vertical,"(890.0, 762.0)",0.7666666666666666,0.574,1,3558.714
65,646,target,"[(1095, 877)]",[],[1],[0.6],horizontal,"(390.0, 262.0)",0.7333333333333333,0.559,1,3563.121
65,647,target,"[(1099, 889)]",[],[1],[0.55],horizontal,"(890.0, 762.0)",0.7333333333333333,0.511,1,3567.074
65,648,target,"[(1071, 897)]",[],[1],[0.5833333333333334],horizontal,"(390.0, 262.0)",0.85,0.545,1,3571.353
65,649,target,"[(1089, 907)]",[],[1],[0.5666666666666667],vertical,"(890.0, 762.0)",1.3166666666666667,0.528,1,3575.505
65,650,target,"[(1101, 912)]",[],[1],[0.7],vertical,"(390.0, 262.0)",1.2833333333333332,0.658,1,3580.295
66,651,target,"[(1098, 880)]",[],[1],[0.6166666666666667],horizontal,"(890.0, 762.0)",0.6166666666666667,0.572,1,3585.705
66,652,target,"[(1102, 896)]",[],[1],[0.5666666666666667],vertical,"(890.0, 262.0)",0.5666666666666667,0.525,1,3590.489
66,653,target,"[(1092, 902)]",[],[1],[0.7166666666666667],vertical,"(390.0, 762.0)",1.6166666666666667,0.681,1,3594.5
66,654,target,"[(1085, 894)]",[],[1],[0.6166666666666667],vertical,"(890.0, 262.0)",0.5666666666666667,0.568,1,3600.304
66,655,target,"[(1074, 901)]",[],[1],[0.6166666666666667],horizontal,"(890.0, 762.0)",1.6666666666666667,0.567,1,3749.77
66,656,target,"[(1090, 923)]",[],[1],[0.5666666666666667],vertical,"(890.0, 262.0)",0.9166666666666666,0.527,1,3755.069
66,657,target,"[(1096, 922)]",[],[1],[0.6833333333333333],horizontal,"(890.0, 262.0)",0.8166666666666667,0.64,1,3759.642
66,658,target,"[(1070, 923)]",[],[1],[0.6],vertical,"(390.0, 762.0)",0.85,0.553,1,3764.453
66,659,target,"[(1090, 906)]",[],[1],[0.6],horizontal,"(390.0, 762.0)",0.9333333333333333,0.555,1,3768.972
66,660,target,"[(1090, 903)]",[],[1],[0.85],horizontal,"(390.0, 762.0)",0.9,nan,0,3773.079
67,661,target,"[(1081, 906)]",[],[1],[0.6],vertical,"(390.0, 762.0)",1.1,0.557,1,3778.175
67,662,target,"[(1094, 908)]",[],[1],[0.5333333333333333],vertical,"(890.0, 262.0)",1.6666666666666667,0.488,1,3817.779
67,663,target,"[(1100, 928)]",[],[1],[0.45],vertical,"(890.0, 262.0)",1.4666666666666666,0.418,1,3822.774
67,664,target,"[(1095, 909)]",[],[1],[0.65],horizontal,"(890.0, 762.0)",1.45,0.604,1,3828.275
67,665,target,"[(1105, 917)]",[],[1],[0.6333333333333333],horizontal,"(390.0, 762.0)",1.05,0.588,1,3833.658
67,666,target,"[(1085, 916)]",[],[1],[0.65],horizontal,"(390.0, 762.0)",1.4333333333333333,0.607,1,3838.743
67,667,target,"[(1100, 902)]",[],[1],[0.5833333333333334],horizontal,"(890.0, 762.0)",0.85,0.546,1,3843.824
67,668,target,"[(1098, 908)]",[],[1],[0.5666666666666667],vertical,"(890.0, 762.0)",0.8,0.524,1,3848.475
67,669,target,"[(1093, 899)]",[],[1],[0.6333333333333333],vertical,"(890.0, 262.0)",0.8333333333333334,0.586,1,3853.124
67,670,target,"[(1115, 910)]",[],[1],[0.25],horizontal,"(890.0, 762.0)",1.5833333333333333,0.22,1,3857.705
68,671,target,"[(1095, 911)]",[],[1],[],horizontal,"(390.0, 262.0)",,cti_phase,0,3862.912
68,672,target,"[(1100, 917)]",[],[1],[0.6],vertical,"(890.0, 762.0)",0.5666666666666667,0.553,1,3867.824
68,673,target,"[(1100, 924)]",[],[1],[0.4],horizontal,"(390.0, 262.0)",1.6833333333333333,0.359,1,3872.102
68,674,target,"[(1100, 905)]",[],[1],[0.5666666666666667],horizontal,"(890.0, 762.0)",0.8,0.526,1,3877.113
68,675,target,"[(1096, 920)]",[],[1],[0.5833333333333334],vertical,"(890.0, 762.0)",1.6,0.541,1,3881.456
68,676,target,"[(1091, 908)]",[],[1],[0.5166666666666666],horizontal,"(390.0, 762.0)",1.5,0.475,1,3886.637
68,677,target,"[(1100, 891)]",[],[1],[0.6],horizontal,"(890.0, 262.0)",1.2666666666666666,0.552,1,3891.853
68,678,target,"[(1100, 902)]",[],[1],[0.7333333333333333],vertical,"(890.0, 762.0)",0.95,0.685,1,3898.516
68,679,target,"[(1100, 900)]",[],[1],[0.5833333333333334],horizontal,"(890.0, 262.0)",1.4666666666666666,0.542,1,3902.923
68,680,target,"[(1100, 885)]",[],[1],[0.6333333333333333],horizontal,"(390.0, 762.0)",1.6833333333333333,0.594,1,3907.742
69,681,target,"[(1098, 899)]",[],[1],[0.55],vertical,"(390.0, 262.0)",1.1666666666666667,0.515,1,3913.094
69,682,target,"[(1100, 901)]",[],[1],[0.75],vertical,"(390.0, 762.0)",0.8,0.706,1,3918.091
69,683,target,"[(1085, 897)]",[],[1],[0.55],vertical,"(890.0, 762.0)",0.5166666666666666,0.504,1,3922.706
69,684,target,"[(1104, 902)]",[],[1],[0.5333333333333333],vertical,"(890.0, 262.0)",1.6833333333333333,0.493,1,3926.719
69,685,target,"[(1081, 902)]",[],[1],[0.85],horizontal,"(390.0, 262.0)",0.5,nan,0,3932.175
69,686,target,"[(1100, 907)]",[],[1],[0.43333333333333335],vertical,"(890.0, 262.0)",1.5,0.392,1,3936.652
69,687,target,"[(1095, 893)]",[],[1],[0.5666666666666667],horizontal,"(890.0, 762.0)",0.7833333333333333,0.527,1,3941.426
69,688,target,"[(1078, 898)]",[],[1],[0.6333333333333333],horizontal,"(890.0, 762.0)",0.8166666666666667,0.59,1,3945.86
69,689,target,"[(1100, 893)]",[],[1],[0.35],horizontal,"(390.0, 762.0)",1.3166666666666667,0.313,1,3950.51
69,690,target,"[(1095, 893)]",[],[1],[0.7333333333333333],horizontal,"(890.0, 762.0)",1.0,0.691,1,3955.556
70,691,target,"[(1098, 914)]",[],[1],[0.4666666666666667],horizontal,"(390.0, 762.0)",1.3666666666666667,0.435,1,3960.641
70,692,target,"[(1092, 907)]",[],[1],[0.65],vertical,"(890.0, 762.0)",1.0833333333333333,0.611,1,3966.009
70,693,target,"[(1085, 894)]",[],[1],[0.7],vertical,"(390.0, 262.0)",1.1333333333333333,0.656,1,3970.837
70,694,target,"[(1081, 909)]",[],[1],[0.5333333333333333],vertical,"(890.0, 762.0)",1.6833333333333333,0.493,1,3976.081
70,695,target,"[(1098, 902)]",[],[1],[0.6166666666666667],horizontal,"(390.0, 762.0)",1.1,0.575,1,3981.475
70,696,target,"[(1081, 898)]",[],[1],[0.6],vertical,"(390.0, 762.0)",0.7,0.562,1,3985.83
70,697,target,"[(1099, 917)]",[],[1],[0.5833333333333334],vertical,"(390.0, 262.0)",0.8833333333333333,0.539,1,3990.575
70,698,target,"[(1100, 902)]",[],[1],[0.75],horizontal,"(890.0, 262.0)",1.0166666666666666,0.706,1,3995.275
70,699,target,"[(1096, 903)]",[],[1],[0.5166666666666666],vertical,"(390.0, 762.0)",1.2166666666666666,0.477,1,3999.824
70,700,target,"[(1100, 919)]",[],[1],[0.85],horizontal,"(390.0, 262.0)",0.65,nan,0,4004.725
71,701,target,"[(1082, 897)]",[],[1],[0.55],horizontal,"(890.0, 262.0)",1.1833333333333333,0.51,1,4009.533
71,702,target,"[(1100, 918)]",[],[1],[0.5666666666666667],horizontal,"(890.0, 762.0)",0.85,0.524,1,4015.244
71,703,target,"[(1062, 906)]",[],[1],[0.85],horizontal,"(390.0, 262.0)",0.7166666666666667,nan,0,4020.483
71,704,target,"[(1099, 889)]",[],[1],[0.6],vertical,"(390.0, 762.0)",1.5333333333333332,0.555,1,4025.24
71,705,target,"[(1100, 902)]",[],[1],[0.7],vertical,"(390.0, 762.0)",0.5166666666666666,0.655,1,4030.232
71,706,target,"[(1095, 918)]",[],[1],[0.6166666666666667],horizontal,"(390.0, 762.0)",0.75,0.576,1,4034.301
71,707,target,"[(1086, 900)]",[],[1],[0.48333333333333334],vertical,"(390.0, 262.0)",1.45,0.455,1,4038.862
71,708,target,"[(1081, 904)]",[],[1],[0.6166666666666667],vertical,"(390.0, 262.0)",0.7833333333333333,0.572,1,4043.748
71,709,target,"[(1099, 895)]",[],[1],[0.85],vertical,"(390.0, 762.0)",0.7,nan,0,4048.559
71,710,target,"[(1102, 896)]",[],[1],[0.48333333333333334],horizontal,"(890.0, 762.0)",1.3666666666666667,0.444,1,4052.923
72,711,target,"[(1100, 903)]",[],[1],[0.48333333333333334],vertical,"(890.0, 762.0)",1.45,0.448,1,4058.369
72,712,target,"[(1081, 905)]",[],[1],[0.36666666666666664],vertical,"(390.0, 262.0)",1.5,0.329,1,4063.454
72,713,target,"[(1100, 907)]",[],[1],[0.5333333333333333],vertical,"(890.0, 762.0)",1.5666666666666667,0.499,1,4068.542
72,714,target,"[(1100, 893)]",[],[1],[0.6333333333333333],vertical,"(390.0, 762.0)",1.1666666666666667,0.592,1,4073.951
72,715,target,"[(1092, 900)]",[],[1],[0.5833333333333334],vertical,"(890.0, 762.0)",1.5,0.545,1,4078.475
72,716,target,"[(1071, 898)]",[],[1],[0.6666666666666666],horizontal,"(390.0, 262.0)",1.4166666666666667,0.625,1,4084.024
72,717,target,"[(1071, 897)]",[],[1],[0.4666666666666667],vertical,"(890.0, 762.0)",1.4,0.427,1,4089.157
72,718,target,"[(1086, 881)]",[],[1],[0.5833333333333334],vertical,"(390.0, 762.0)",1.45,0.544,1,4094.255
72,719,target,"[(1100, 892)]",[],[1],[0.6],horizontal,"(890.0, 262.0)",1.3,0.57,1,4099.202
72,720,target,"[(1098, 896)]",[],[1],[0.65],vertical,"(890.0, 762.0)",0.8,0.604,1,4103.975
73,721,target,"[(1075, 895)]",[],[1],[0.75],horizontal,"(890.0, 762.0)",1.4,0.709,1,4108.233
73,722,target,"[(1100, 901)]",[],[1],[0.5166666666666666],vertical,"(890.0, 762.0)",1.2,0.479,1,4113.488
73,723,target,"[(1074, 897)]",[],[1],[0.5666666666666667],horizontal,"(390.0, 262.0)",1.0,0.525,1,4118.325
73,724,target,"[(1100, 882)]",[],[1],[0.5833333333333334],vertical,"(390.0, 262.0)",1.0,0.54,1,4123.383
73,725,target,"[(1095, 898)]",[],[1],[0.5333333333333333],horizontal,"(890.0, 262.0)",1.5,0.49,1,4127.958
73,726,target,"[(1100, 898)]",[],[1],[0.16666666666666666],horizontal,"(890.0, 762.0)",1.7,0.134,1,4132.776
73,727,target,"[(1100, 905)]",[],[1],[0.7833333333333333],vertical,"(390.0, 262.0)",0.6,0.74,1,4137.972
73,728,target,"[(1081, 916)]",[],[1],[0.36666666666666664],vertical,"(390.0, 262.0)",1.5,0.328,1,4142.225
73,729,target,"[(1077, 890)]",[],[1],[0.5],horizontal,"(890.0, 262.0)",1.6833333333333333,0.46,1,4147.274
73,730,target,"[(1100, 882)]",[],[1],[0.3833333333333333],horizontal,"(890.0, 762.0)",1.65,0.344,1,4152.258
74,731,target,"[(1100, 878)]",[],[1],[0.55],horizontal,"(890.0, 762.0)",1.4166666666666667,0.511,1,4157.284
74,732,target,"[(1075, 896)]",[],[1],[0.5833333333333334],vertical,"(390.0, 262.0)",0.65,0.543,1,4162.316
74,733,target,"[(1081, 884)]",[],[1],[0.6166666666666667],horizontal,"(390.0, 262.0)",0.8166666666666667,0.567,1,4166.505
74,734,target,"[(1077, 896)]",[],[1],[0.7333333333333333],horizontal,"(890.0, 762.0)",0.7,0.69,1,4171.032
74,735,target,"[(1095, 901)]",[],[1],[0.5333333333333333],horizontal,"(890.0, 262.0)",1.25,0.492,1,4175.418
74,736,target,"[(1093, 881)]",[],[1],[0.5666666666666667],horizontal,"(890.0, 762.0)",1.0,0.524,1,4180.237
74,737,target,"[(1093, 926)]",[],[1],[0.43333333333333335],vertical,"(390.0, 262.0)",1.4666666666666666,0.391,1,4184.921
74,738,target,"[(1081, 893)]",[],[1],[0.5166666666666666],vertical,"(890.0, 262.0)",1.3333333333333333,0.477,1,4190.266
74,739,target,"[(1069, 892)]",[],[1],[0.5833333333333334],horizontal,"(890.0, 262.0)",1.65,0.541,1,4196.501
74,740,target,"[(1085, 891)]",[],[1],[0.3333333333333333],horizontal,"(390.0, 262.0)",1.3666666666666667,0.294,1,4201.957
75,741,target,"[(1072, 897)]",[],[1],[0.65],vertical,"(390.0, 762.0)",0.8666666666666667,0.616,1,4206.77
75,742,target,"[(1100, 897)]",[],[1],[0.5833333333333334],horizontal,"(890.0, 762.0)",1.5166666666666666,0.542,1,4211.407
75,743,target,"[(1100, 895)]",[],[1],[0.5833333333333334],vertical,"(890.0, 262.0)",0.85,0.541,1,4216.662
75,744,target,"[(1100, 901)]",[],[1],[0.6333333333333333],horizontal,"(390.0, 762.0)",1.4166666666666667,0.591,1,4221.377
75,745,target,"[(1072, 909)]",[],[1],[0.85],horizontal,"(390.0, 762.0)",0.6666666666666666,nan,0,4226.836
75,746,target,"[(1086, 887)]",[],[1],[0.7],horizontal,"(390.0, 762.0)",0.75,0.658,1,4231.491
75,747,target,"[(1099, 919)]",[],[1],[0.5833333333333334],vertical,"(890.0, 262.0)",0.85,0.54,1,4236.304
75,748,target,"[(1095, 872)]",[],[1],[0.8333333333333334],vertical,"(890.0, 262.0)",0.5166666666666666,0.788,1,4241.02
75,749,target,"[(1101, 915)]",[],[1],[0.6166666666666667],vertical,"(890.0, 762.0)",0.6166666666666667,0.57,1,4245.602
75,750,target,"[(1064, 895)]",[],[1],[0.5666666666666667],vertical,"(890.0, 262.0)",1.0666666666666667,0.527,1,4249.543
76,751,target,"[(1100, 906)]",[],[1],[0.5666666666666667],horizontal,"(390.0, 262.0)",0.8333333333333334,0.527,1,4254.34
76,752,target,"[(1101, 919)]",[],[1],[0.6833333333333333],vertical,"(390.0, 262.0)",0.5166666666666666,0.645,1,4258.963
76,753,target,"[(1124, 892)]",[],[1],[0.5666666666666667],horizontal,"(390.0, 262.0)",0.9833333333333333,0.528,1,4263.092
76,754,target,"[(1095, 899)]",[],[1],[0.6333333333333333],vertical,"(890.0, 262.0)",0.7333333333333333,0.591,1,4267.908
76,755,target,"[(1075, 899)]",[],[1],[0.2],vertical,"(890.0, 762.0)",1.3666666666666667,0.167,1,4272.391
76,756,target,"[(1100, 926)]",[],[1],[0.6333333333333333],horizontal,"(390.0, 762.0)",0.5333333333333333,0.591,1,4277.374
76,757,target,"[(1081, 890)]",[],[1],[0.55],horizontal,"(890.0, 262.0)",1.6666666666666667,0.511,1,4281.459
76,758,target,"[(1085, 882)]",[],[1],[0.5666666666666667],vertical,"(890.0, 262.0)",1.1166666666666667,0.527,1,4286.442
76,759,target,"[(1056, 892)]",[],[1],[0.5333333333333333],horizontal,"(390.0, 262.0)",1.6833333333333333,0.502,1,4290.859
76,760,target,"[(1100, 897)]",[],[1],[0.5833333333333334],vertical,"(890.0, 262.0)",0.5333333333333333,0.545,1,4296.337
77,761,target,"[(1061, 884)]",[],[1],[0.26666666666666666],vertical,"(890.0, 762.0)",1.6666666666666667,0.231,1,4300.314
77,762,target,"[(1097, 906)]",[],[1],[0.65],horizontal,"(390.0, 262.0)",1.3666666666666667,0.61,1,4305.317
77,763,target,"[(1100, 905)]",[],[1],[0.7166666666666667],horizontal,"(890.0, 262.0)",1.2333333333333334,0.673,1,4310.309
77,764,target,"[(1100, 902)]",[],[1],[0.5333333333333333],vertical,"(890.0, 262.0)",1.0166666666666666,0.496,1,4315.393
77,765,target,"[(1086, 905)]",[],[1],[0.4],horizontal,"(890.0, 262.0)",1.5833333333333333,0.36,1,4320.243
77,766,target,"[(1058, 897)]",[],[1],[0.6833333333333333],horizontal,"(390.0, 762.0)",1.3,0.64,1,4325.504
77,767,target,"[(1063, 896)]",[],[1],[0.7166666666666667],horizontal,"(390.0, 262.0)",1.3,0.676,1,4330.468
77,768,target,"[(1080, 917)]",[],[1],[0.08333333333333333],vertical,"(890.0, 762.0)",1.6333333333333333,0.051,1,4338.341
77,769,target,"[(1058, 902)]",[],[1],[0.65],vertical,"(390.0, 262.0)",0.5666666666666667,0.607,1,4343.142
77,770,target,"[(1071, 911)]",[],[1],[0.6666666666666666],vertical,"(390.0, 762.0)",1.1833333333333333,0.621,1,4347.21
78,771,target,"[(1086, 902)]",[],[1],[0.7166666666666667],horizontal,"(390.0, 262.0)",0.7833333333333333,0.682,1,4352.123
78,772,target,"[(1098, 899)]",[],[1],[0.5833333333333334],vertical,"(890.0, 762.0)",1.6,0.548,1,4356.678
78,773,target,"[(1095, 911)]",[],[1],[0.65],vertical,"(890.0, 262.0)",0.6333333333333333,0.612,1,4362.067
78,774,target,"[(1066, 925)]",[],[1],[0.5333333333333333],vertical,"(890.0, 762.0)",0.5666666666666667,0.499,1,4366.147
78,775,target,"[(1091, 903)]",[],[1],[0.5],vertical,"(890.0, 762.0)",0.6833333333333333,0.468,1,4371.026
78,776,target,"[(1100, 854)]",[],[1],[0.6666666666666666],horizontal,"(390.0, 262.0)",0.8166666666666667,0.622,1,4375.61
78,777,target,"[(1100, 871)]",[],[1],[0.26666666666666666],vertical,"(390.0, 762.0)",1.6833333333333333,0.233,1,4479.751
78,778,target,"[(1081, 906)]",[],[1],[0.6333333333333333],vertical,"(390.0, 762.0)",0.6,0.6,1,4484.792
78,779,target,"[(1096, 923)]",[],[1],[0.3833333333333333],vertical,"(890.0, 762.0)",1.6333333333333333,0.341,1,4489.386
78,780,target,"[(1100, 906)]",[],[1],[0.5833333333333334],vertical,"(890.0, 262.0)",1.4,0.541,1,4494.646
79,781,target,"[(1081, 911)]",[],[1],[0.6833333333333333],horizontal,"(890.0, 762.0)",1.4,0.641,1,4499.485
79,782,target,"[(1081, 902)]",[],[1],[0.6333333333333333],vertical,"(390.0, 762.0)",0.5333333333333333,0.594,1,4504.671
79,783,target,"[(1127, 867)]",[],[1],[0.6333333333333333],vertical,"(390.0, 762.0)",0.6333333333333333,0.592,1,4509.138
79,784,target,"[(1081, 869)]",[],[1],[0.85],horizontal,"(390.0, 262.0)",0.6166666666666667,nan,0,4521.203
79,785,target,"[(1076, 872)]",[],[1],[0.7],horizontal,"(890.0, 762.0)",1.2,0.654,1,4525.725
79,786,target,"[(1071, 911)]",[],[1],[0.31666666666666665],vertical,"(890.0, 762.0)",1.3166666666666667,0.28,1,4530.634
79,787,target,"[(1061, 897)]",[],[1],[0.6833333333333333],horizontal,"(390.0, 262.0)",0.8333333333333334,0.643,1,4535.614
79,788,target,"[(1077, 902)]",[],[1],[0.5666666666666667],vertical,"(890.0, 262.0)",1.35,0.533,1,4557.227
79,789,target,"[(1071, 913)]",[],[1],[0.31666666666666665],vertical,"(390.0, 262.0)",1.6166666666666667,0.285,1,4562.196
79,790,target,"[(1081, 907)]",[],[1],[0.6],vertical,"(390.0, 762.0)",1.1166666666666667,0.557,1,4567.113
80,791,target,"[(1081, 892)]",[],[1],[0.6166666666666667],vertical,"(390.0, 262.0)",0.7166666666666667,0.579,1,4571.982
80,792,target,"[(1104, 902)]",[],[1],[0.8333333333333334],vertical,"(390.0, 262.0)",1.4,0.786,1,4576.777
80,793,target,"[(1104, 927)]",[],[1],[0.55],horizontal,"(390.0, 262.0)",1.35,0.512,1,4581.98
80,794,target,"[(1100, 886)]",[],[1],[0.5833333333333334],vertical,"(890.0, 762.0)",1.05,0.538,1,4587.142
80,795,target,"[(1091, 921)]",[],[1],[0.55],horizontal,"(390.0, 762.0)",1.6666666666666667,0.518,1,4592.076
80,796,target,"[(1095, 918)]",[],[1],[0.5833333333333334],vertical,"(390.0, 762.0)",0.9166666666666666,0.551,1,4597.727
80,797,target,"[(1095, 911)]",[],[1],[0.75],horizontal,"(390.0, 762.0)",1.5,0.705,1,4602.26
80,798,target,"[(1081, 897)]",[],[1],[0.6166666666666667],horizontal,"(890.0, 262.0)",0.8,0.584,1,4607.602
80,799,target,"[(1067, 880)]",[],[1],[0.6],horizontal,"(890.0, 762.0)",1.2166666666666666,0.564,1,4612.202
80,800,target,"[(1078, 887)]",[],[1],[0.5333333333333333],horizontal,"(390.0, 262.0)",1.5333333333333332,0.489,1,4617.143
81,801,target,"[(1130, 900)]",[],[1],[0.6],vertical,"(890.0, 762.0)",0.6333333333333333,0.556,1,4771.482
81,802,target,"[(1096, 900)]",[],[1],[0.6],horizontal,"(390.0, 762.0)",0.9666666666666667,0.562,1,4775.951
81,803,target,"[(1106, 897)]",[],[1],[0.26666666666666666],horizontal,"(390.0, 762.0)",1.4166666666666667,0.231,1,4780.789
81,804,target,"[(1068, 925)]",[],[1],[0.6166666666666667],vertical,"(890.0, 762.0)",1.4166666666666667,0.573,1,4785.697
81,805,target,"[(1058, 901)]",[],[1],[0.85],horizontal,"(890.0, 262.0)",1.3333333333333333,nan,0,4790.612
81,806,target,"[(1084, 920)]",[],[1],[0.85],vertical,"(390.0, 262.0)",1.1166666666666667,nan,0,4795.449
81,807,target,"[(98, 501), (427, 871), (530, 736), (548, 491), (112, 760), (533, 550), (509, 765), (296, 423), (499, 416), (485, 491), (306, 491), (422, 501), (421, 745), (427, 902), (678, 539), (417, 902), (1084, 865)]",[],"[0, 0, 0, 0, 0, 0, 0, 0, 0, 0, 0, 0, 0, 0, 0, 0, 1]",[0.85],horizontal,"(890.0, 262.0)",0.8333333333333334,nan,0,5555.715
81,808,target,"[(1100, 879)]",[],[1],[0.3333333333333333],horizontal,"(890.0, 762.0)",1.5166666666666666,0.297,1,8230.137
81,809,target,"[(1104, 885)]",[],[1],[0.85],vertical,"(890.0, 762.0)",0.5,nan,0,8235.097
81,810,target,"[(1099, 890)]",[],[1],[0.85],horizontal,"(390.0, 762.0)",0.5,nan,0,8239.988
82,811,target,"[(1076, 882)]",[],[1],[0.7333333333333333],horizontal,"(890.0, 262.0)",1.2333333333333334,0.687,1,8244.416
82,812,target,"[(1095, 926)]",[],[1],[0.5333333333333333],vertical,"(390.0, 262.0)",0.8166666666666667,0.491,1,8249.363
82,813,target,"[(1092, 926)]",[],[1],[0.5833333333333334],vertical,"(390.0, 262.0)",1.15,0.54,1,8253.956
82,814,target,"[(1076, 909)]",[],[1],[0.15],horizontal,"(390.0, 262.0)",1.6,0.12,1,8258.721
82,815,target,"[(1124, 946), (1107, 856)]",[],"[0, 1]",[0.6],vertical,"(390.0, 762.0)",0.5666666666666667,0.555,1,8263.386
82,816,target,"[(1081, 903)]",[],[1],[0.5833333333333334],vertical,"(390.0, 762.0)",1.3166666666666667,0.54,1,8268.647
82,817,target,"[(1077, 896)]",[],[1],[0.31666666666666665],horizontal,"(890.0, 262.0)",1.5,0.281,1,8273.796
82,818,target,"[(1061, 882)]",[],[1],[0.3],vertical,"(890.0, 262.0)",1.4,0.269,1,8278.626
82,819,target,"[(1088, 924)]",[],[1],[0.85],horizontal,"(890.0, 762.0)",1.4666666666666666,nan,0,8284.105
82,820,target,"[(1099, 901)]",[],[1],[0.5166666666666666],horizontal,"(890.0, 262.0)",0.6333333333333333,0.484,1,8419.638
83,821,target,"[(1100, 908)]",[],[1],[0.5666666666666667],horizontal,"(890.0, 262.0)",1.1166666666666667,0.52,1,8424.026
83,822,target,"[(1085, 901)]",[],[1],[0.48333333333333334],vertical,"(390.0, 762.0)",0.8666666666666667,0.444,1,8428.488
83,823,target,"[(1085, 901)]",[],[1],[0.6166666666666667],horizontal,"(390.0, 762.0)",0.9833333333333333,0.573,1,8432.908
83,824,target,"[(1098, 900)]",[],[1],[],vertical,"(890.0, 762.0)",,cti_phase,0,8437.689
83,825,target,"[(1134, 902)]",[],[1],[0.85],horizontal,"(390.0, 762.0)",1.3333333333333333,nan,0,8441.974
83,826,target,"[(1104, 887)]",[],[1],[0.6166666666666667],horizontal,"(890.0, 762.0)",1.05,0.579,1,8447.331
83,827,target,"[(1100, 877)]",[],[1],[0.5333333333333333],vertical,"(390.0, 762.0)",1.1,0.494,1,8452.232
83,828,target,"[(1099, 924)]",[],[1],[0.4666666666666667],horizontal,"(890.0, 762.0)",1.1333333333333333,0.43,1,8457.238
83,829,target,"[(1066, 911)]",[],[1],[0.75],vertical,"(890.0, 262.0)",0.95,0.705,1,8462.129
83,830,target,"[(1069, 925)]",[],[1],[0.4],vertical,"(390.0, 262.0)",1.5833333333333333,0.36,1,8467.031
84,831,target,"[(1082, 890)]",[],[1],[0.45],vertical,"(390.0, 262.0)",1.3,0.414,1,8471.724
84,832,target,"[(1102, 897)]",[],[1],[0.5666666666666667],vertical,"(890.0, 262.0)",1.2166666666666666,0.527,1,8476.693
84,833,target,"[(1085, 901)]",[],[1],[0.6666666666666666],vertical,"(890.0, 762.0)",0.6666666666666666,0.623,1,8481.147
84,834,target,"[(1091, 899)]",[],[1],[],horizontal,"(390.0, 762.0)",,cti_phase,0,8485.828
84,835,target,"[(1100, 882)]",[],[1],[0.5833333333333334],vertical,"(390.0, 262.0)",0.55,0.538,1,8490.539
84,836,target,"[(1091, 898)]",[],[1],[0.5833333333333334],vertical,"(390.0, 762.0)",0.5,0.544,1,8494.385
84,837,target,"[(1078, 895)]",[],[1],[0.6],horizontal,"(890.0, 762.0)",0.9,0.557,1,8498.738
84,838,target,"[(1072, 924)]",[],[1],[0.5666666666666667],horizontal,"(890.0, 262.0)",0.9666666666666667,0.523,1,8503.232
84,839,target,"[(1100, 899)]",[],[1],[],vertical,"(890.0, 762.0)",,cti_phase,0,8508.111
84,840,target,"[(1100, 880)]",[],[1],[0.6],horizontal,"(890.0, 762.0)",1.3,0.553,1,8512.822
85,841,target,"[(1085, 903)]",[],[1],[0.4666666666666667],horizontal,"(890.0, 762.0)",1.45,0.429,1,8517.592
85,842,target,"[(1095, 887)]",[],[1],[0.5166666666666666],horizontal,"(890.0, 262.0)",1.1333333333333333,0.474,1,8522.706
85,843,target,"[(1098, 898)]",[],[1],[0.21666666666666667],vertical,"(890.0, 762.0)",1.2666666666666666,0.184,1,8560.314
85,844,target,"[(1095, 902)]",[],[1],[0.43333333333333335],vertical,"(890.0, 762.0)",0.9666666666666667,0.394,1,8564.516
85,845,target,"[(1083, 917)]",[],[1],[0.6333333333333333],vertical,"(890.0, 762.0)",0.9333333333333333,0.588,1,8569.154
85,846,target,"[(1069, 897)]",[],[1],[0.4166666666666667],vertical,"(390.0, 762.0)",1.15,0.385,1,8573.766
85,847,target,"[(1095, 900)]",[],[1],[0.25],vertical,"(390.0, 762.0)",1.1166666666666667,0.216,1,8578.189
85,848,target,"[(1088, 899)]",[],[1],[0.5833333333333334],horizontal,"(890.0, 762.0)",1.2333333333333334,0.538,1,8582.831
85,849,target,"[(1093, 905)]",[],[1],[0.3833333333333333],vertical,"(390.0, 262.0)",1.2166666666666666,0.345,1,8587.234
85,850,target,"[(1095, 898)]",[],[1],[0.13333333333333333],horizontal,"(390.0, 762.0)",1.5333333333333332,0.1,1,8592.205
86,851,target,"[(1100, 892)]",[],[1],[0.6166666666666667],vertical,"(890.0, 262.0)",1.35,0.574,1,8597.059
86,852,target,"[(1100, 868)]",[],[1],[],vertical,"(390.0, 762.0)",,cti_phase,0,8602.026
86,853,target,"[(1095, 892)]",[],[1],[0.5666666666666667],horizontal,"(890.0, 762.0)",0.8166666666666667,0.523,1,8606.55
86,854,target,"[(1093, 911)]",[],[1],[0.4166666666666667],vertical,"(890.0, 262.0)",1.5,0.378,1,8611.039
86,855,target,"[(1085, 906)]",[],[1],[0.85],horizontal,"(390.0, 262.0)",0.7166666666666667,nan,0,8616.187
86,856,target,"[(1092, 901)]",[],[1],[0.55],vertical,"(890.0, 262.0)",0.7666666666666666,0.51,1,8620.409
86,857,target,"[(1087, 898)]",[],[1],[0.6666666666666666],horizontal,"(890.0, 262.0)",0.5,0.624,1,8625.005
86,858,target,"[(1095, 900)]",[],[1],[0.5333333333333333],vertical,"(890.0, 762.0)",1.1,0.488,1,8629.47
86,859,target,"[(1092, 918)]",[],[1],[0.6],horizontal,"(390.0, 262.0)",0.5166666666666666,0.561,1,8633.879
86,860,target,"[(1095, 902)]",[],[1],[0.5333333333333333],horizontal,"(390.0, 262.0)",0.8666666666666667,0.495,1,8637.772
87,861,target,"[(1070, 898)]",[],[1],[0.7333333333333333],vertical,"(390.0, 262.0)",1.3333333333333333,0.689,1,8642.149
87,862,target,"[(1066, 897)]",[],[1],[0.5333333333333333],vertical,"(890.0, 262.0)",0.8,0.488,1,8647.164
87,863,target,"[(1088, 900)]",[],[1],[],horizontal,"(390.0, 262.0)",,cti_phase,0,8651.544
87,864,target,"[(1104, 914)]",[],[1],[0.43333333333333335],vertical,"(390.0, 762.0)",1.6333333333333333,0.4,1,8656.268
87,865,target,"[(1100, 901)]",[],[1],[0.7333333333333333],horizontal,"(890.0, 762.0)",0.5,0.696,1,8661.354
87,866,target,"[(1096, 908)]",[],[1],[0.5166666666666666],horizontal,"(890.0, 762.0)",1.2,0.477,1,8666.216
87,867,target,"[(1078, 897)]",[],[1],[0.5166666666666666],vertical,"(890.0, 762.0)",1.0666666666666667,0.477,1,8671.008
87,868,target,"[(1095, 899)]",[],[1],[0.5666666666666667],vertical,"(390.0, 262.0)",0.65,0.526,1,8675.881
87,869,target,"[(1095, 897)]",[],[1],[0.5666666666666667],vertical,"(890.0, 262.0)",1.3333333333333333,0.52,1,8679.939
87,870,target,"[(1090, 903)]",[],[1],[0.3833333333333333],horizontal,"(390.0, 762.0)",1.45,0.342,1,8685.155
88,871,target,"[(1104, 912)]",[],[1],[],vertical,"(390.0, 262.0)",,cti_phase,0,8689.944
88,872,target,"[(1095, 874)]",[],[1],[0.6833333333333333],vertical,"(890.0, 762.0)",0.7833333333333333,0.642,1,8694.607
88,873,target,"[(1095, 886)]",[],[1],[0.75],horizontal,"(890.0, 762.0)",0.8666666666666667,0.71,1,8699.189
88,874,target,"[(381, 198), (436, 507), (361, 404), (327, 530), (280, 495), (436, 544), (417, 539), (1109, 932)]",[],"[0, 0, 0, 0, 0, 0, 0, 1]",[0.85],horizontal,"(890.0, 262.0)",1.5833333333333333,nan,0,8703.579
88,875,target,"[(1100, 888)]",[],[1],[0.6],vertical,"(390.0, 762.0)",1.1,0.556,1,15285.775
88,876,target,"[(1104, 897)]",[],[1],[0.6166666666666667],vertical,"(390.0, 262.0)",1.0666666666666667,0.573,1,15290.757
88,877,target,"[(1092, 891)]",[],[1],[0.6166666666666667],vertical,"(390.0, 262.0)",1.35,0.58,1,15295.724
88,878,target,"[(1071, 916)]",[],[1],[0.6166666666666667],horizontal,"(390.0, 262.0)",1.25,0.577,1,15300.582
88,879,target,"[(1091, 915)]",[],[1],[0.6666666666666666],vertical,"(390.0, 262.0)",0.7833333333333333,0.632,1,15305.612
88,880,target,"[(1078, 919)]",[],[1],[0.5833333333333334],vertical,"(890.0, 762.0)",1.1333333333333333,0.544,1,15310.492
89,881,target,"[(1088, 917)]",[],[1],[0.2],vertical,"(890.0, 762.0)",1.6666666666666667,0.171,1,15315.73
89,882,target,"[(1085, 907)]",[],[1],[0.85],vertical,"(390.0, 262.0)",0.9666666666666667,nan,0,15320.49
89,883,target,"[(1085, 877)]",[],[1],[0.85],horizontal,"(390.0, 262.0)",0.6666666666666666,nan,0,15325.203
89,884,target,"[(1085, 905)]",[],[1],[0.6666666666666666],vertical,"(390.0, 262.0)",0.8666666666666667,0.626,1,15329.694
89,885,target,"[(1082, 887)]",[],[1],[0.11666666666666667],horizontal,"(390.0, 762.0)",1.45,0.084,1,15334.276
89,886,target,"[(1095, 901)]",[],[1],[0.06666666666666667],horizontal,"(890.0, 762.0)",1.5,0.038,1,15339.106
89,887,target,"[(1069, 906)]",[],[1],[0.55],vertical,"(390.0, 762.0)",0.7333333333333333,0.512,1,15343.858
89,888,target,"[(1096, 902)]",[],[1],[0.23333333333333334],vertical,"(390.0, 262.0)",0.7166666666666667,0.2,1,15349.766
89,889,target,"[(1085, 899)]",[],[1],[0.8],horizontal,"(390.0, 262.0)",0.6,0.761,1,15353.94
89,890,target,"[(1089, 900)]",[],[1],[0.11666666666666667],vertical,"(890.0, 262.0)",1.15,0.084,1,15358.291
90,891,target,"[(1085, 892)]",[],[1],[0.3833333333333333],vertical,"(890.0, 262.0)",0.7,0.347,1,15362.711
90,892,target,"[(1092, 922)]",[],[1],[],vertical,"(390.0, 262.0)",,cti_phase,0,15367.457
90,893,target,"[(1104, 919)]",[],[1],[],horizontal,"(390.0, 262.0)",,cti_phase,0,15371.591
90,894,target,"[(1098, 897)]",[],[1],[0.21666666666666667],vertical,"(890.0, 262.0)",0.95,0.185,1,15376.357
90,895,target,"[(1095, 901)]",[],[1],[0.8333333333333334],horizontal,"(390.0, 262.0)",0.55,0.796,1,15380.914
90,896,target,"[(1098, 931)]",[],[1],[0.6666666666666666],vertical,"(390.0, 262.0)",0.6666666666666666,0.627,1,15385.352
90,897,target,"[(1090, 874)]",[],[1],[0.15],horizontal,"(890.0, 762.0)",1.4,0.115,1,15390.125
90,898,target,"[(1088, 895)]",[],[1],[0.05],horizontal,"(390.0, 262.0)",1.6666666666666667,0.019,1,15998.427
90,899,target,"[(1094, 898)]",[],[1],"[0.85, 0.85]",horizontal,"(390.0, 262.0)",1.05,"0.8,nan",0,16003.344
90,900,target,"[(1084, 895)]",[],[1],[0.85],horizontal,"(890.0, 262.0)",1.35,nan,0,16008.692
91,901,target,"[(1076, 896)]",[],[1],[0.6],vertical,"(890.0, 262.0)",1.45,0.561,1,16013.723
91,902,target,"[(1056, 925)]",[],[1],[0.6],horizontal,"(390.0, 762.0)",1.1333333333333333,0.558,1,16018.478
91,903,target,"[(1057, 901)]",[],[1],[0.85],horizontal,"(890.0, 262.0)",1.2,nan,0,16023.676
91,904,target,"[(1090, 901)]",[],[1],[0.85],horizontal,"(890.0, 762.0)",1.6,nan,0,16028.743
91,905,target,"[(1094, 904)]",[],[1],[0.6],horizontal,"(890.0, 762.0)",0.8666666666666667,0.567,1,16416.162
91,906,target,"[(1094, 905)]",[],[1],[0.5666666666666667],horizontal,"(890.0, 762.0)",1.2166666666666666,0.527,1,16645.538
91,907,target,"[(1071, 904)]",[],[1],[],horizontal,"(390.0, 762.0)",,cti_phase,0,16650.363
