block,practice,trial,change_interval_s,change_interval_frames,taps_start_time_during_fix,taps_end_time_during_fix,taps_start_loc_during_fix,taps_end_loc_during_fix,taps_on_lever_during_fix,taps_on_lever_frame_during_fix,taps_on_lever_s_during_fix,fix_xy,bar_orientation,target_xy,cti,rt,acc,time
1,True,1,1.151,69,[],[],"[(1135, 876)]",[],[1],[28],[0.4666666666666667],"[640.0, 512.0]",vertical,"(390.0, 762.0)",[1.2333333333333334],[0.422],1,0.406
1,True,2,1.046,62,[],[],"[(1076, 911)]",[],[1],[40],[0.6666666666666666],"[640.0, 512.0]",vertical,"(890.0, 762.0)",[0.75],[0.626],1,14.754
1,True,3,0.652,39,[],[],"[(1062, 886)]",[],[1],[51],[0.85],"[640.0, 512.0]",vertical,"(390.0, 262.0)",[1.2],[0.803],0,363.572
1,True,4,0.826,49,[],[],"[(1100, 872)]",[],[1],[51],[0.85],"[640.0, 512.0]",horizontal,"(390.0, 762.0)",[1.6333333333333333],[0.816],0,368.318
1,False,1,0.642,38,[],[],"[(1129, 854)]",[],[1],[],[],"[640.0, 512.0]",horizontal,"(390.0, 262.0)",[],[0],0,373.657
1,False,2,1.109,66,[],[],"[(1096, 856)]",[],[1],[33],[0.55],"[640.0, 512.0]",vertical,"(890.0, 262.0)",[1.4166666666666667],[0.514],1,378.564
1,False,3,1.015,60,[],[],"[(1060, 848)]",[],[1],[33],[0.55],"[640.0, 512.0]",vertical,"(890.0, 762.0)",[1.6166666666666667],[0.512],1,383.657
1,False,4,0.59,35,[],[],"[(1083, 860)]",[],[1],[51],[0.85],"[640.0, 512.0]",vertical,"(890.0, 762.0)",[0.5166666666666666],[0.801],0,388.861
1,False,5,0.511,30,[],[],"[(1105, 862)]",[],[1],[35],[0.5833333333333334],"[640.0, 512.0]",vertical,"(890.0, 262.0)",[1.0166666666666666],[0.546],1,392.761
1,False,6,0.895,53,[],[],"[(1151, 818)]",[],[1],[26],[0.43333333333333335],"[640.0, 512.0]",horizontal,"(390.0, 762.0)",[0.95],[0.391],1,397.532
1,False,7,0.782,46,[],[],"[(697, 762), (693, 843), (907, 490), (68, 786), (1087, 873)]",[],"[0, 0, 0, 0, 1]",[32],[0.5333333333333333],"[640.0, 512.0]",horizontal,"(390.0, 762.0)",[1.6166666666666667],[0.494],1,974.678
1,False,8,0.511,30,[],[],"[(1065, 878)]",[],[1],[39],[0.65],"[640.0, 512.0]",horizontal,"(390.0, 762.0)",[1.4833333333333334],[0.61],1,1264.125
1,False,9,0.578,34,[],[],"[(1094, 887)]",[],[1],[51],[0.85],"[640.0, 512.0]",horizontal,"(390.0, 762.0)",[1.65],[0.81],0,1269.528
1,False,10,0.844,50,[],[],"[(1063, 901)]",[],[1],[32],[0.5333333333333333],"[640.0, 512.0]",vertical,"(890.0, 262.0)",[1.0666666666666667],[0.491],1,1274.717
1,False,11,0.715,42,[],[],"[(1091, 895)]",[],[1],[51],[0.85],"[640.0, 512.0]",horizontal,"(890.0, 262.0)",[1.4],[0.798],0,1282.887
1,False,12,0.569,34,[],[],"[(1081, 883)]",[],[1],[33],[0.55],"[640.0, 512.0]",horizontal,"(390.0, 762.0)",[1.0833333333333333],[0.511],1,1287.889
1,False,13,0.848,50,[],[],"[(1095, 886)]",[],[1],[6],[0.1],"[640.0, 512.0]",horizontal,"(390.0, 262.0)",[1.15],[0.069],1,1292.977
1,False,14,1.082,64,[],[],"[(382, 566), (382, 883), (377, 561), (691, 595), (1066, 880)]",[],"[0, 0, 0, 0, 1]",[35],[0.5833333333333334],"[640.0, 512.0]",vertical,"(390.0, 262.0)",[0.55],[0.545],1,1302.229
1,False,15,0.799,47,[],[],"[(1075, 877)]",[],[1],[35],[0.5833333333333334],"[640.0, 512.0]",horizontal,"(390.0, 762.0)",[1.1],[0.54],1,1327.89
1,False,16,1.103,66,[],[],"[(1055, 876)]",[],[1],[51],[0.85],"[640.0, 512.0]",vertical,"(390.0, 762.0)",[1.5166666666666666],[0.801],0,1332.312
1,False,17,1.013,60,[],[],"[(1100, 878)]",[],[1],[51],[0.85],"[640.0, 512.0]",vertical,"(390.0, 262.0)",[0.6333333333333333],[0.799],0,1337.71
1,False,18,0.857,51,[],[],"[(1075, 870)]",[],[1],[39],[0.65],"[640.0, 512.0]",horizontal,"(390.0, 762.0)",[0.6166666666666667],[0.602],1,1345.543
1,False,19,1.172,70,[],[],"[(1077, 885)]",[],[1],[37],[0.6166666666666667],"[640.0, 512.0]",horizontal,"(890.0, 262.0)",[1.5333333333333332],[0.569],1,1385.814
1,False,20,0.61,36,[],[],"[(1057, 872)]",[],[1],[51],[0.85],"[640.0, 512.0]",horizontal,"(890.0, 762.0)",[0.7],[0.804],0,1391.105
1,False,21,0.992,59,[],[],"[(1068, 872)]",[],[1],[32],[0.5333333333333333],"[640.0, 512.0]",horizontal,"(390.0, 762.0)",[1.4833333333333334],[0.493],1,1395.339
1,False,22,0.925,55,[],[],"[(1105, 856)]",[],[1],[31],[0.5166666666666666],"[640.0, 512.0]",vertical,"(390.0, 262.0)",[1.3333333333333333],[0.473],1,1400.923
1,False,23,0.96,57,[],[],"[(1065, 873)]",[],[1],[39],[0.65],"[640.0, 512.0]",horizontal,"(890.0, 762.0)",[0.7166666666666667],[0.606],1,1405.83
1,False,24,0.74,44,[],[],"[(1071, 873)]",[],[1],[34],[0.5666666666666667],"[640.0, 512.0]",vertical,"(890.0, 762.0)",[1.6166666666666667],[0.523],1,1410.086
1,False,25,1.152,69,[],[],"[(1086, 884)]",[],[1],[34],[0.5666666666666667],"[640.0, 512.0]",vertical,"(890.0, 762.0)",[1.2666666666666666],[0.517],1,1415.051
1,False,26,1.191,71,[],[],"[(1086, 881)]",[],[1],[32],[0.5333333333333333],"[640.0, 512.0]",horizontal,"(390.0, 762.0)",[1.2166666666666666],[0.49],1,1420.095
1,False,27,0.854,51,[],[],"[(1083, 879)]",[],[1],[32],[0.5333333333333333],"[640.0, 512.0]",vertical,"(890.0, 262.0)",[1.0833333333333333],[0.49],1,1425.092
1,False,28,0.898,53,[],[],"[(1055, 877)]",[],[1],[32],[0.5333333333333333],"[640.0, 512.0]",horizontal,"(390.0, 262.0)",[1.05],[0.491],1,1429.657
1,False,29,0.55,33,[],[],"[(1047, 862)]",[],[1],[51],[0.85],"[640.0, 512.0]",vertical,"(390.0, 262.0)",[0.6],[0.801],0,1434.17
1,False,30,1.197,71,[],[],"[(1092, 862)]",[],[1],[33],[0.55],"[640.0, 512.0]",horizontal,"(890.0, 762.0)",[0.55],[0.508],1,1438.183
1,False,31,0.93,55,[],[],"[(1121, 876)]",[],[1],[43],[0.7166666666666667],"[640.0, 512.0]",vertical,"(890.0, 262.0)",[1.05],[0.672],1,1442.649
1,False,32,0.878,52,[],[],"[(1111, 855)]",[],[1],[34],[0.5666666666666667],"[640.0, 512.0]",vertical,"(890.0, 762.0)",[1.0833333333333333],[0.523],1,1447.436
1,False,33,0.646,38,[],[],"[(1104, 871)]",[],[1],[32],[0.5333333333333333],"[640.0, 512.0]",horizontal,"(390.0, 762.0)",[0.8833333333333333],[0.495],1,1452.009
1,False,34,0.657,39,[],[],"[(1076, 881)]",[],[1],[36],[0.6],"[640.0, 512.0]",vertical,"(890.0, 262.0)",[0.5166666666666666],[0.563],1,1456.145
1,False,35,1.2,72,[],[],"[(1082, 876)]",[],[1],[34],[0.5666666666666667],"[640.0, 512.0]",horizontal,"(890.0, 262.0)",[1.5166666666666666],[0.522],1,1459.98
1,False,36,1.076,64,[],[],"[(1081, 876)]",[],[1],[32],[0.5333333333333333],"[640.0, 512.0]",vertical,"(890.0, 262.0)",[1.05],[0.491],1,1467.683
1,False,37,1.171,70,[],[],"[(1100, 876)]",[],[1],[34],[0.5666666666666667],"[640.0, 512.0]",horizontal,"(390.0, 762.0)",[0.9833333333333333],[0.525],1,1472.395
1,False,38,0.811,48,[],[],"[(1066, 886)]",[],[1],[37],[0.6166666666666667],"[640.0, 512.0]",vertical,"(890.0, 762.0)",[1.0833333333333333],[0.576],1,1477.199
1,False,39,0.52,31,[],[],"[(1102, 871)]",[],[1],[40],[0.6666666666666666],"[640.0, 512.0]",horizontal,"(890.0, 262.0)",[0.7666666666666666],[0.623],1,1481.768
1,False,40,1.125,67,[],[],"[(1076, 866)]",[],[1],[46],[0.7666666666666666],"[640.0, 512.0]",vertical,"(390.0, 262.0)",[0.8333333333333334],[0.72],1,1485.788
1,False,41,1.066,63,[],[],"[(1072, 870)]",[],[1],[37],[0.6166666666666667],"[640.0, 512.0]",vertical,"(390.0, 762.0)",[0.8],[0.571],1,1494.307
1,False,42,1.166,69,[],[],"[(1081, 871)]",[],[1],[29],[0.48333333333333334],"[640.0, 512.0]",vertical,"(390.0, 262.0)",[1.6],[0.448],1,1499.011
1,False,43,0.97,58,[],[],"[(1096, 874)]",[],[1],[37],[0.6166666666666667],"[640.0, 512.0]",horizontal,"(890.0, 262.0)",[0.6333333333333333],[0.574],1,1504.397
1,False,44,1.195,71,[],[],"[(1038, 866)]",[],[1],[33],[0.55],"[640.0, 512.0]",vertical,"(890.0, 262.0)",[1.4],[0.505],1,1508.883
1,False,45,0.732,43,[],[],"[(1072, 867)]",[],[1],[35],[0.5833333333333334],"[640.0, 512.0]",vertical,"(390.0, 762.0)",[1.3333333333333333],[0.542],1,1515.062
1,False,46,0.654,39,[],[],"[(1115, 869)]",[],[1],[38],[0.6333333333333333],"[640.0, 512.0]",horizontal,"(890.0, 262.0)",[1.3333333333333333],[0.589],1,1519.75
1,False,47,0.651,39,[],[],"[(1071, 876)]",[],[1],[34],[0.5666666666666667],"[640.0, 512.0]",vertical,"(390.0, 262.0)",[0.6],[0.523],1,1524.445
1,False,48,1.027,61,[],[],"[(1129, 872)]",[],[1],[35],[0.5833333333333334],"[640.0, 512.0]",horizontal,"(390.0, 262.0)",[0.7666666666666666],[0.54],1,1528.341
1,False,49,1.172,70,[],[],"[(1076, 881)]",[],[1],[34],[0.5666666666666667],"[640.0, 512.0]",vertical,"(390.0, 762.0)",[1.2666666666666666],[0.526],1,1532.795
1,False,50,1.149,68,[],[],"[(1110, 871)]",[],[1],[33],[0.55],"[640.0, 512.0]",vertical,"(890.0, 262.0)",[1.3666666666666667],[0.516],1,1537.793
1,False,51,0.684,41,[],[],"[(1081, 857)]",[],[1],[34],[0.5666666666666667],"[640.0, 512.0]",vertical,"(890.0, 262.0)",[0.9833333333333333],[0.529],1,1542.773
1,False,52,1.042,62,[],[],"[(1077, 868)]",[],[1],[43],[0.7166666666666667],"[640.0, 512.0]",vertical,"(390.0, 262.0)",[0.9166666666666666],[0.672],1,1546.97
1,False,53,0.81,48,[],[],"[(1076, 882)]",[],[1],[29],[0.48333333333333334],"[640.0, 512.0]",vertical,"(890.0, 262.0)",[1.2666666666666666],[0.444],1,1551.537
1,False,54,1.132,67,[],[],"[(1091, 898)]",[],[1],[38],[0.6333333333333333],"[640.0, 512.0]",vertical,"(890.0, 762.0)",[1.5833333333333333],[0.594],1,1556.264
1,False,55,0.546,32,[],[],"[(1078, 855)]",[],[1],[48],[0.8],"[640.0, 512.0]",vertical,"(390.0, 762.0)",[1.0333333333333332],[0.76],1,1561.665
1,False,56,0.968,58,[],[],"[(1124, 874)]",[],[1],[47],[0.7833333333333333],"[640.0, 512.0]",horizontal,"(390.0, 262.0)",[0.6],[0.744],1,1566.175
1,False,57,1.099,65,[],[],"[(1056, 867)]",[],[1],[32],[0.5333333333333333],"[640.0, 512.0]",horizontal,"(890.0, 262.0)",[0.8166666666666667],[0.5],1,1570.715
1,False,58,0.724,43,[],[],"[(1058, 868)]",[],[1],[41],[0.6833333333333333],"[640.0, 512.0]",horizontal,"(390.0, 762.0)",[1.1833333333333333],[0.642],1,1575.216
1,False,59,0.707,42,[],[],"[(1062, 875)]",[],[1],[33],[0.55],"[640.0, 512.0]",horizontal,"(890.0, 262.0)",[1.3333333333333333],[0.505],1,1579.749
1,False,60,1.116,66,[],[],"[(1062, 865)]",[],[1],[33],[0.55],"[640.0, 512.0]",horizontal,"(890.0, 762.0)",[0.5833333333333334],[0.511],1,1584.48
2,False,61,0.971,58,[],[],"[(1117, 875)]",[],[1],[37],[0.6166666666666667],"[640.0, 512.0]",vertical,"(890.0, 262.0)",[0.9666666666666667],[0.575],1,1588.788
2,False,62,0.583,34,[],[],"[(1046, 862)]",[],[1],[34],[0.5666666666666667],"[640.0, 512.0]",horizontal,"(890.0, 762.0)",[1.3],[0.524],1,1593.36
2,False,63,1.02,61,[],[],"[(1057, 876)]",[],[1],[35],[0.5833333333333334],"[640.0, 512.0]",vertical,"(890.0, 262.0)",[0.7],[0.536],1,1603.16
2,False,64,1.143,68,[],[],"[(1067, 897)]",[],[1],[39],[0.65],"[640.0, 512.0]",vertical,"(890.0, 762.0)",[1.2],[0.605],1,1607.498
2,False,65,0.501,30,[],[],"[(1066, 905)]",[],[1],[39],[0.65],"[640.0, 512.0]",vertical,"(390.0, 762.0)",[1.2833333333333332],[0.607],1,1682.047
2,False,66,1.195,71,[],[],"[(1067, 889)]",[],[1],[32],[0.5333333333333333],"[640.0, 512.0]",vertical,"(890.0, 762.0)",[1.2833333333333332],[0.496],1,1686.615
2,False,67,0.863,51,[],[],"[(1067, 850)]",[],[1],[25],[0.4166666666666667],"[640.0, 512.0]",vertical,"(890.0, 262.0)",[1.1],[0.382],1,1699.866
2,False,68,0.955,57,[],[],"[(1075, 868)]",[],[1],[35],[0.5833333333333334],"[640.0, 512.0]",horizontal,"(390.0, 262.0)",[0.5166666666666666],[0.538],1,1704.299
2,False,69,1.052,63,[],[],"[(1063, 881)]",[],[1],[32],[0.5333333333333333],"[640.0, 512.0]",horizontal,"(890.0, 262.0)",[0.8],[0.492],1,1708.497
2,False,70,0.639,38,[],[],"[(1076, 877)]",[],[1],[16],[0.26666666666666666],"[640.0, 512.0]",vertical,"(890.0, 762.0)",[0.9],[0.234],1,1712.943
2,False,71,1.119,67,[],[],"[(1094, 881)]",[],[1],[],[],"[640.0, 512.0]",horizontal,"(390.0, 262.0)",[],[0],0,1855.405
2,False,72,1.08,64,[],[],"[(1078, 858)]",[],[1],[],[],"[640.0, 512.0]",horizontal,"(890.0, 762.0)",[],[0],0,1860.685
2,False,73,0.755,45,[],[],"[(1062, 884)]",[],[1],[24],[0.4],"[640.0, 512.0]",horizontal,"(390.0, 762.0)",[1.45],[0.36],1,1864.431
2,False,74,0.658,39,[],[],"[(1059, 895)]",[],[1],[32],[0.5333333333333333],"[640.0, 512.0]",horizontal,"(890.0, 262.0)",[0.65],[0.49],1,1910.534
2,False,75,0.72,43,[],[],"[(1102, 874)]",[],[1],[35],[0.5833333333333334],"[640.0, 512.0]",vertical,"(390.0, 762.0)",[0.5],[0.547],1,1914.635
2,False,76,0.828,49,[],[],"[(1062, 886)]",[],[1],[29],[0.48333333333333334],"[640.0, 512.0]",horizontal,"(390.0, 262.0)",[1.55],[0.443],1,1918.345
2,False,77,0.639,38,[],[],"[(1103, 854)]",[],[1],[],[],"[640.0, 512.0]",vertical,"(890.0, 762.0)",[],[0],0,1923.25
2,False,78,0.645,38,[],[],"[(1111, 878)]",[],[1],[42],[0.7],"[640.0, 512.0]",vertical,"(890.0, 762.0)",[0.7833333333333333],[0.658],1,1937.345
2,False,79,0.753,45,[],[],"[(1065, 881)]",[],[1],[33],[0.55],"[640.0, 512.0]",vertical,"(890.0, 762.0)",[0.5666666666666667],[0.514],1,1941.6
2,False,80,1.09,65,[],[],"[(1076, 896)]",[],[1],[33],[0.55],"[640.0, 512.0]",vertical,"(390.0, 762.0)",[1.4333333333333333],[0.509],1,1945.433
2,False,81,0.821,49,[],[],"[(1096, 871)]",[],[1],[],[],"[640.0, 512.0]",vertical,"(390.0, 762.0)",[],[0],0,1950.484
2,False,82,0.678,40,[],[],"[(1076, 891)]",[],[1],[31],[0.5166666666666666],"[640.0, 512.0]",horizontal,"(890.0, 762.0)",[0.6166666666666667],[0.475],1,1954.437
2,False,83,0.704,42,[],[],"[(1073, 891)]",[],[1],[32],[0.5333333333333333],"[640.0, 512.0]",vertical,"(890.0, 762.0)",[1.6833333333333333],[0.488],1,1975.218
2,False,84,0.671,40,[],[],"[(1076, 878)]",[],[1],[34],[0.5666666666666667],"[640.0, 512.0]",horizontal,"(390.0, 762.0)",[0.95],[0.526],1,1980.09
2,False,85,1.067,64,[],[],"[(1063, 876)]",[],[1],[34],[0.5666666666666667],"[640.0, 512.0]",vertical,"(390.0, 762.0)",[0.6166666666666667],[0.521],1,1984.163
2,False,86,0.552,33,[],[],"[(1081, 875)]",[],[1],[33],[0.55],"[640.0, 512.0]",vertical,"(890.0, 762.0)",[1.15],[0.512],1,1988.534
2,False,87,0.889,53,[],[],"[(1079, 886)]",[],[1],[33],[0.55],"[640.0, 512.0]",vertical,"(390.0, 262.0)",[0.7666666666666666],[0.509],1,1992.851
2,False,88,0.5,30,[],[],"[(1076, 879)]",[],[1],[25],[0.4166666666666667],"[640.0, 512.0]",horizontal,"(390.0, 262.0)",[1.35],[0.376],1,1997.051
2,False,89,0.63,37,[],[2025395],"[(1060, 880)]","[(1053, 886)]",[1],[26],[0.43333333333333335],"[640.0, 512.0]",vertical,"(390.0, 262.0)",[],[0],0,2001.346
2,False,90,0.653,39,[],[],"[(1071, 874)]",[],[1],[38],[0.6333333333333333],"[640.0, 512.0]",horizontal,"(890.0, 262.0)",[1.0],[0.592],1,2003.791
2,False,91,0.534,32,[],[],"[(1060, 896)]",[],[1],[51],[0.85],"[640.0, 512.0]",horizontal,"(390.0, 262.0)",[0.9333333333333333],[0.801],0,2085.569
2,False,92,0.79,47,[],[],"[(1055, 890)]",[],[1],[51],[0.85],"[640.0, 512.0]",horizontal,"(890.0, 762.0)",[0.9333333333333333],[0.8],0,2089.934
2,False,93,0.803,48,[],[],"[(1077, 883)]",[],[1],[33],[0.55],"[640.0, 512.0]",horizontal,"(390.0, 262.0)",[0.65],[0.511],1,2106.216
2,False,94,0.918,55,[],[],"[(1080, 885)]",[],[1],[43],[0.7166666666666667],"[640.0, 512.0]",horizontal,"(890.0, 262.0)",[0.65],[0.67],1,2203.635
2,False,95,1.049,62,[],[],"[(1059, 886)]",[],[1],[32],[0.5333333333333333],"[640.0, 512.0]",vertical,"(890.0, 262.0)",[0.8333333333333334],[0.497],1,2208.022
2,False,96,1.098,65,[],[],"[(1086, 867)]",[],[1],[35],[0.5833333333333334],"[640.0, 512.0]",vertical,"(890.0, 762.0)",[1.2666666666666666],[0.539],1,2212.365
2,False,97,0.729,43,[],[],"[(1067, 881)]",[],[1],[39],[0.65],"[640.0, 512.0]",horizontal,"(890.0, 762.0)",[1.6333333333333333],[0.612],1,2218.106
2,False,98,0.547,32,[],[],"[(1072, 881)]",[],[1],[36],[0.6],"[640.0, 512.0]",vertical,"(390.0, 262.0)",[0.9166666666666666],[0.557],1,2223.034
2,False,99,0.878,52,[],[],"[(1057, 888)]",[],[1],[35],[0.5833333333333334],"[640.0, 512.0]",horizontal,"(890.0, 262.0)",[1.5166666666666666],[0.538],1,2227.1
2,False,100,1.008,60,[],[],"[(1048, 865)]",[],[1],[30],[0.5],"[640.0, 512.0]",vertical,"(890.0, 262.0)",[1.3],[0.459],1,2232.096
2,False,101,0.741,44,[],[],"[(1060, 872)]",[],[1],[32],[0.5333333333333333],"[640.0, 512.0]",vertical,"(890.0, 262.0)",[1.3666666666666667],[0.499],1,2237.802
2,False,102,1.119,67,[],[],"[(1058, 870)]",[],[1],[36],[0.6],"[640.0, 512.0]",vertical,"(390.0, 262.0)",[0.8],[0.556],1,2242.435
2,False,103,0.849,50,[],[],"[(1055, 872)]",[],[1],[37],[0.6166666666666667],"[640.0, 512.0]",horizontal,"(390.0, 762.0)",[0.85],[0.575],1,2247.085
2,False,104,0.778,46,[],[],"[(1083, 869)]",[],[1],[36],[0.6],"[640.0, 512.0]",vertical,"(390.0, 262.0)",[0.5333333333333333],[0.562],1,2252.052
2,False,105,1.074,64,[],[],"[(1074, 885)]",[],[1],"[51, 51]","[0.85, 0.85]","[640.0, 512.0]",horizontal,"(390.0, 262.0)",[1.0333333333333332],"[0.806, 0.806]",0,2256.3
2,False,106,0.538,32,[],[],"[(1077, 869)]",[],[1],[],[],"[640.0, 512.0]",vertical,"(390.0, 262.0)",[],[0],0,2261.614
2,False,107,0.784,47,[],[2294782],"[(1076, 871)]","[(1060, 882)]",[1],[27],[0.45],"[640.0, 512.0]",horizontal,"(390.0, 762.0)",[],[0],0,2270.165
2,False,108,0.753,45,[],[],"[(1093, 890)]",[],[1],[21],[0.35],"[640.0, 512.0]",horizontal,"(390.0, 762.0)",[1.2333333333333334],[0.313],1,2273.181
2,False,109,0.561,33,[],[2302460],"[(1081, 861)]","[(1079, 869)]",[1],[6],[0.1],"[640.0, 512.0]",horizontal,"(890.0, 762.0)",[],[0],0,2278.386
2,False,110,0.533,31,[],[2310786],"[(1081, 862)]","[(1076, 876)]",[1],[20],[0.3333333333333333],"[640.0, 512.0]",horizontal,"(890.0, 262.0)",[],[0],0,2280.864
2,False,111,1.05,63,[],[2336106],"[(1078, 886)]","[(1066, 891)]",[1],[21],[0.35],"[640.0, 512.0]",horizontal,"(390.0, 262.0)",[],[0],0,2289.195
2,False,112,0.691,41,[],[],"[(1078, 849)]",[],[1],[31],[0.5166666666666666],"[640.0, 512.0]",horizontal,"(890.0, 262.0)",[1.3],[0.475],1,2314.517
2,False,113,0.501,30,[],[],"[(1078, 886)]",[],[1],[34],[0.5666666666666667],"[640.0, 512.0]",horizontal,"(390.0, 762.0)",[0.7666666666666666],[0.519],1,2319.759
2,False,114,1.159,69,[],[],"[(1052, 880)]",[],[1],[29],[0.48333333333333334],"[640.0, 512.0]",vertical,"(390.0, 262.0)",[0.8333333333333334],[0.445],1,2323.675
2,False,115,0.784,47,[],[],"[(1077, 879)]",[],[1],[32],[0.5333333333333333],"[640.0, 512.0]",vertical,"(390.0, 762.0)",[1.0666666666666667],[0.493],1,2328.016
2,False,116,1.185,71,[],[],"[(1074, 887)]",[],[1],[30],[0.5],"[640.0, 512.0]",vertical,"(390.0, 262.0)",[1.6166666666666667],[0.466],1,2332.385
2,False,117,1.029,61,[],[],"[(1067, 872)]",[],[1],[29],[0.48333333333333334],"[640.0, 512.0]",vertical,"(890.0, 262.0)",[1.2],[0.45],1,2337.797
2,False,118,1.198,71,[],[],"[(1072, 871)]",[],[1],[32],[0.5333333333333333],"[640.0, 512.0]",horizontal,"(890.0, 262.0)",[1.4333333333333333],[0.498],1,2342.603
2,False,119,0.514,30,[],[],"[(1102, 858)]",[],[1],[4],[0.06666666666666667],"[640.0, 512.0]",vertical,"(390.0, 762.0)",[0.6333333333333333],[0.036],1,2347.597
2,False,120,0.721,43,[],[],"[(981, 953), (931, 953), (131, 915), (1033, 473), (1011, 872), (1100, 874)]",[],"[0, 0, 0, 0, 0, 1]",[33],[0.55],"[640.0, 512.0]",horizontal,"(390.0, 762.0)",[0.9833333333333333],[0.505],1,2350.803
3,False,121,1.194,71,[],[],"[(1068, 892)]",[],[1],[33],[0.55],"[640.0, 512.0]",horizontal,"(890.0, 762.0)",[0.9],[0.508],1,2937.761
3,False,122,0.695,41,[],[],"[(1104, 876)]",[],[1],[31],[0.5166666666666666],"[640.0, 512.0]",horizontal,"(390.0, 262.0)",[0.6666666666666666],[0.479],1,2942.528
3,False,123,1.07,64,[],[],"[(1094, 883)]",[],[1],[30],[0.5],"[640.0, 512.0]",vertical,"(890.0, 262.0)",[1.3833333333333333],[0.459],1,2946.409
3,False,124,0.87,52,[],[],"[(1082, 886)]",[],[1],[30],[0.5],"[640.0, 512.0]",vertical,"(890.0, 762.0)",[1.05],[0.455],1,2952.216
3,False,125,0.79,47,[],[],"[(1067, 879)]",[],[1],[35],[0.5833333333333334],"[640.0, 512.0]",vertical,"(390.0, 262.0)",[1.6],[0.544],1,2956.798
3,False,126,0.698,41,[],[],"[(1066, 864)]",[],[1],[37],[0.6166666666666667],"[640.0, 512.0]",horizontal,"(890.0, 762.0)",[0.7833333333333333],[0.574],1,2961.938
3,False,127,0.862,51,[],[],"[(1071, 876)]",[],[1],[34],[0.5666666666666667],"[640.0, 512.0]",vertical,"(890.0, 762.0)",[1.6833333333333333],[0.522],1,2966.362
3,False,128,1.17,70,[],[],"[(1072, 885)]",[],[1],[30],[0.5],"[640.0, 512.0]",vertical,"(390.0, 262.0)",[0.9],[0.459],1,2971.652
3,False,129,1.116,66,[],[],"[(1064, 872)]",[],[1],[40],[0.6666666666666666],"[640.0, 512.0]",vertical,"(890.0, 762.0)",[1.3666666666666667],[0.625],1,2976.26
3,False,130,1.167,70,[],[],"[(1073, 867)]",[],[1],[13],[0.21666666666666667],"[640.0, 512.0]",horizontal,"(390.0, 262.0)",[1.45],[0.182],1,2981.291
3,False,131,1.164,69,[],[],"[(1067, 883)]",[],[1],[32],[0.5333333333333333],"[640.0, 512.0]",vertical,"(390.0, 262.0)",[1.0166666666666666],[0.493],1,2986.167
3,False,132,0.579,34,[],[],"[(1077, 881)]",[],[1],[34],[0.5666666666666667],"[640.0, 512.0]",vertical,"(890.0, 262.0)",[1.3833333333333333],[0.524],1,2991.008
3,False,133,1.079,64,[],[],"[(1064, 872)]",[],[1],[36],[0.6],"[640.0, 512.0]",vertical,"(890.0, 262.0)",[1.5666666666666667],[0.559],1,2995.787
3,False,134,0.897,53,[],[],"[(1067, 893)]",[],[1],[34],[0.5666666666666667],"[640.0, 512.0]",vertical,"(390.0, 762.0)",[1.1333333333333333],[0.522],1,3001.007
3,False,135,1.175,70,[],[],"[(1067, 870)]",[],[1],[32],[0.5333333333333333],"[640.0, 512.0]",vertical,"(890.0, 262.0)",[0.95],[0.5],1,3005.515
3,False,136,0.733,43,[],[],"[(1070, 879)]",[],[1],[35],[0.5833333333333334],"[640.0, 512.0]",horizontal,"(390.0, 762.0)",[0.6333333333333333],[0.56],1,3010.098
3,False,137,0.504,30,[],[],"[(1042, 884)]",[],[1],[41],[0.6833333333333333],"[640.0, 512.0]",vertical,"(390.0, 762.0)",[1.2833333333333332],[0.636],1,3013.962
3,False,138,0.806,48,[],[],"[(1067, 879)]",[],[1],[35],[0.5833333333333334],"[640.0, 512.0]",horizontal,"(390.0, 262.0)",[0.6],[0.54],1,3018.298
3,False,139,0.623,37,[],[],"[(1067, 885)]",[],[1],[33],[0.55],"[640.0, 512.0]",vertical,"(890.0, 762.0)",[1.0833333333333333],[0.51],1,3022.405
3,False,140,0.939,56,[],[],"[(1067, 886)]",[],[1],[39],[0.65],"[640.0, 512.0]",horizontal,"(890.0, 762.0)",[0.7166666666666667],[0.605],1,3026.621
3,False,141,0.96,57,[],[],"[(1045, 877)]",[],[1],[32],[0.5333333333333333],"[640.0, 512.0]",horizontal,"(390.0, 762.0)",[0.85],[0.492],1,3030.919
3,False,142,0.653,39,[],[],"[(1067, 890)]",[],[1],[35],[0.5833333333333334],"[640.0, 512.0]",horizontal,"(890.0, 262.0)",[1.0],[0.543],1,3035.156
3,False,143,0.583,34,[],[],"[(1067, 886)]",[],[1],[37],[0.6166666666666667],"[640.0, 512.0]",vertical,"(390.0, 262.0)",[0.85],[0.576],1,3039.311
3,False,144,0.783,46,[],[],"[(1058, 896)]",[],[1],[33],[0.55],"[640.0, 512.0]",horizontal,"(390.0, 262.0)",[1.0666666666666667],[0.502],1,3043.189
3,False,145,1.018,61,[],[],"[(1044, 871)]",[],[1],[32],[0.5333333333333333],"[640.0, 512.0]",vertical,"(890.0, 262.0)",[1.5166666666666666],[0.497],1,3047.589
3,False,146,0.5,30,[],[],"[(1076, 858)]",[],[1],[33],[0.55],"[640.0, 512.0]",horizontal,"(890.0, 262.0)",[1.6],[0.51],1,3052.665
3,False,147,1.015,60,[],[],"[(1057, 878)]",[],[1],[32],[0.5333333333333333],"[640.0, 512.0]",vertical,"(390.0, 762.0)",[1.4833333333333334],[0.49],1,3057.311
3,False,148,1.149,68,[],[],"[(1067, 893)]",[],[1],[10],[0.16666666666666666],"[640.0, 512.0]",horizontal,"(390.0, 262.0)",[1.45],[0.133],1,3062.563
3,False,149,0.642,38,[],[3099717],"[(1067, 896)]","[(1065, 901)]",[1],[36],[0.6],"[640.0, 512.0]",horizontal,"(390.0, 762.0)",[],[0],0,3067.454
3,False,150,0.563,33,[],[],"[(1062, 876)]",[],[1],[37],[0.6166666666666667],"[640.0, 512.0]",horizontal,"(890.0, 762.0)",[1.5666666666666667],[0.577],1,3078.107
3,False,151,0.501,30,[],[],"[(1075, 877)]",[],[1],[34],[0.5666666666666667],"[640.0, 512.0]",vertical,"(890.0, 762.0)",[0.6],[0.524],1,3082.887
3,False,152,0.562,33,[],[],"[(1097, 880)]",[],[1],[32],[0.5333333333333333],"[640.0, 512.0]",vertical,"(890.0, 262.0)",[0.6333333333333333],[0.492],1,3086.48
3,False,153,0.966,57,[],[],"[(1067, 829)]",[],[1],[31],[0.5166666666666666],"[640.0, 512.0]",vertical,"(390.0, 262.0)",[1.0],[0.472],1,3090.082
3,False,154,1.076,64,[],[],"[(1093, 884)]",[],[1],[32],[0.5333333333333333],"[640.0, 512.0]",vertical,"(390.0, 262.0)",[0.8],[0.491],1,3095.606
3,False,155,0.657,39,[],[],"[(1100, 870)]",[],[1],[36],[0.6],"[640.0, 512.0]",horizontal,"(890.0, 762.0)",[1.1666666666666667],[0.557],1,3099.93
3,False,156,0.957,57,[],[],"[(1115, 877)]",[],[1],[32],[0.5333333333333333],"[640.0, 512.0]",vertical,"(390.0, 262.0)",[0.9333333333333333],[0.491],1,3104.273
3,False,157,0.672,40,[],[],"[(1089, 860)]",[],[1],[28],[0.4666666666666667],"[640.0, 512.0]",horizontal,"(390.0, 262.0)",[0.9],[0.432],1,3108.932
3,False,158,0.544,32,[],[],"[(1094, 877)]",[],[1],[38],[0.6333333333333333],"[640.0, 512.0]",vertical,"(390.0, 762.0)",[0.5333333333333333],[0.591],1,3113.396
3,False,159,1.123,67,[],[],"[(1100, 882)]",[],[1],[36],[0.6],"[640.0, 512.0]",horizontal,"(890.0, 762.0)",[1.5833333333333333],[0.559],1,3117.218
3,False,160,0.911,54,[],[],"[(1081, 882)]",[],[1],[34],[0.5666666666666667],"[640.0, 512.0]",vertical,"(390.0, 262.0)",[1.15],[0.523],1,3122.651
3,False,161,0.774,46,[],[],"[(1067, 858)]",[],[1],[42],[0.7],"[640.0, 512.0]",horizontal,"(890.0, 262.0)",[0.9666666666666667],[0.657],1,3127.584
3,False,162,0.858,51,[],[],"[(1096, 860)]",[],[1],[27],[0.45],"[640.0, 512.0]",vertical,"(390.0, 262.0)",[0.5666666666666667],[0.412],1,3132.006
3,False,163,1.097,65,[],[],"[(1067, 842)]",[],[1],[37],[0.6166666666666667],"[640.0, 512.0]",horizontal,"(390.0, 262.0)",[0.9],[0.582],1,3135.945
3,False,164,0.588,35,[],[],"[(1039, 869)]",[],[1],[33],[0.55],"[640.0, 512.0]",vertical,"(390.0, 262.0)",[1.2166666666666666],[0.504],1,3193.267
3,False,165,0.696,41,[],[],"[(1098, 862)]",[],[1],[35],[0.5833333333333334],"[640.0, 512.0]",vertical,"(390.0, 262.0)",[0.8333333333333334],[0.545],1,3197.761
3,False,166,1.03,61,[],[],"[(1110, 872)]",[],[1],[32],[0.5333333333333333],"[640.0, 512.0]",vertical,"(890.0, 762.0)",[1.4166666666666667],[0.495],1,3201.758
3,False,167,0.817,49,[],[],"[(1058, 848)]",[],[1],[34],[0.5666666666666667],"[640.0, 512.0]",horizontal,"(890.0, 762.0)",[1.2666666666666666],[0.525],1,3206.743
3,False,168,1.092,65,[],[],"[(1110, 881)]",[],[1],[28],[0.4666666666666667],"[640.0, 512.0]",horizontal,"(390.0, 262.0)",[0.7666666666666666],[0.426],1,3211.424
3,False,169,0.837,50,[],[],"[(1111, 876)]",[],[1],[39],[0.65],"[640.0, 512.0]",horizontal,"(390.0, 262.0)",[0.5],[0.603],1,3215.696
3,False,170,0.64,38,[],[],"[(1110, 856)]",[],[1],[37],[0.6166666666666667],"[640.0, 512.0]",horizontal,"(390.0, 762.0)",[1.05],[0.571],1,3219.571
3,False,171,1.059,63,[],[],"[(1053, 872)]",[],[1],[21],[0.35],"[640.0, 512.0]",horizontal,"(390.0, 262.0)",[0.8166666666666667],[0.312],1,3223.864
3,False,172,0.824,49,[],[],"[(1062, 873)]",[],[1],[21],[0.35],"[640.0, 512.0]",horizontal,"(390.0, 262.0)",[1.2],[0.312],1,3228.099
3,False,173,0.711,42,[],[],"[(1100, 858)]",[],[1],[23],[0.3833333333333333],"[640.0, 512.0]",horizontal,"(390.0, 262.0)",[0.9166666666666666],[0.346],1,3232.702
3,False,174,1.01,60,[],[],"[(1098, 877)]",[],[1],[34],[0.5666666666666667],"[640.0, 512.0]",vertical,"(890.0, 762.0)",[1.6666666666666667],[0.521],1,3236.762
3,False,175,1.136,68,[],[],"[(1077, 874)]",[],[1],[35],[0.5833333333333334],"[640.0, 512.0]",horizontal,"(890.0, 762.0)",[1.5166666666666666],[0.543],1,3242.027
3,False,176,0.644,38,[],[],"[(1072, 883)]",[],[1],[34],[0.5666666666666667],"[640.0, 512.0]",horizontal,"(390.0, 762.0)",[0.8],[0.524],1,3247.149
3,False,177,0.909,54,[],[],"[(1083, 873)]",[],[1],[46],[0.7666666666666666],"[640.0, 512.0]",vertical,"(390.0, 762.0)",[1.0666666666666667],[0.719],1,3251.272
3,False,178,0.784,47,[],[],"[(1091, 886)]",[],[1],[38],[0.6333333333333333],"[640.0, 512.0]",vertical,"(390.0, 762.0)",[0.5],[0.592],1,3255.877
3,False,179,0.711,42,[],[],"[(1096, 886)]",[],[1],[38],[0.6333333333333333],"[640.0, 512.0]",vertical,"(890.0, 762.0)",[0.85],[0.588],1,3259.768
3,False,180,0.951,57,[],[],"[(1081, 876)]",[],[1],[32],[0.5333333333333333],"[640.0, 512.0]",horizontal,"(890.0, 262.0)",[0.7833333333333333],[0.495],1,3264.061
4,False,181,0.587,35,[],[],"[(1117, 876)]",[],[1],[44],[0.7333333333333333],"[640.0, 512.0]",vertical,"(890.0, 762.0)",[1.2333333333333334],[0.685],1,3268.209
4,False,182,0.746,44,[],[],"[(1078, 878)]",[],[1],[34],[0.5666666666666667],"[640.0, 512.0]",horizontal,"(890.0, 762.0)",[1.0666666666666667],[0.525],1,3272.616
4,False,183,0.686,41,[],[],"[(1103, 885)]",[],[1],[32],[0.5333333333333333],"[640.0, 512.0]",vertical,"(390.0, 762.0)",[1.65],[0.489],1,3276.928
4,False,184,0.618,37,[],[],"[(1067, 850)]",[],[1],[32],[0.5333333333333333],"[640.0, 512.0]",vertical,"(390.0, 262.0)",[1.0666666666666667],[0.491],1,3281.894
4,False,185,0.974,58,[],[],"[(1105, 860)]",[],[1],[34],[0.5666666666666667],"[640.0, 512.0]",vertical,"(890.0, 762.0)",[0.9166666666666666],[0.524],1,3286.221
4,False,186,0.727,43,[],[],"[(1067, 894)]",[],[1],[40],[0.6666666666666666],"[640.0, 512.0]",vertical,"(890.0, 762.0)",[1.3333333333333333],[0.623],1,3290.656
4,False,187,1.069,64,[],[],"[(1068, 855)]",[],[1],[35],[0.5833333333333334],"[640.0, 512.0]",vertical,"(390.0, 262.0)",[1.0833333333333333],[0.548],1,3295.418
4,False,188,0.775,46,[],[],"[(1072, 891)]",[],[1],[],[],"[640.0, 512.0]",vertical,"(390.0, 262.0)",[],[0],0,3300.036
4,False,189,0.584,35,[],[],"[(1101, 848)]",[],[1],[32],[0.5333333333333333],"[640.0, 512.0]",vertical,"(890.0, 762.0)",[1.45],[0.495],1,3303.869
4,False,190,0.708,42,[],[],"[(1081, 876)]",[],[1],[47],[0.7833333333333333],"[640.0, 512.0]",horizontal,"(390.0, 262.0)",[1.4333333333333333],[0.755],1,3308.895
4,False,191,0.857,51,[],[],"[(1095, 893)]",[],[1],[31],[0.5166666666666666],"[640.0, 512.0]",vertical,"(890.0, 262.0)",[1.0833333333333333],[0.477],1,3313.939
4,False,192,1.031,61,[],[],"[(1091, 868)]",[],[1],[34],[0.5666666666666667],"[640.0, 512.0]",horizontal,"(890.0, 262.0)",[0.5666666666666667],[0.523],1,3318.306
4,False,193,0.775,46,[],[],"[(1110, 857)]",[],[1],[33],[0.55],"[640.0, 512.0]",horizontal,"(890.0, 262.0)",[1.55],[0.505],1,3322.528
4,False,194,1.113,66,[],[],"[(1069, 862)]",[],[1],[36],[0.6],"[640.0, 512.0]",vertical,"(890.0, 262.0)",[0.8833333333333333],[0.557],1,3327.406
4,False,195,0.859,51,[],[],"[(1083, 865)]",[],[1],[36],[0.6],"[640.0, 512.0]",horizontal,"(890.0, 762.0)",[1.5],[0.551],1,3331.874
4,False,196,1.097,65,[],[],"[(1091, 887)]",[],[1],[40],[0.6666666666666666],"[640.0, 512.0]",vertical,"(390.0, 762.0)",[0.6],[0.621],1,3336.736
4,False,197,0.74,44,[],[],"[(1071, 863)]",[],[1],[7],[0.11666666666666667],"[640.0, 512.0]",horizontal,"(390.0, 262.0)",[1.25],[0.084],1,3341.078
4,False,198,0.618,37,[],[],"[(1118, 872)]",[],[1],[32],[0.5333333333333333],"[640.0, 512.0]",vertical,"(390.0, 762.0)",[1.6],[0.494],1,3345.15
4,False,199,0.709,42,[],[],"[(1110, 848)]",[],[1],[31],[0.5166666666666666],"[640.0, 512.0]",horizontal,"(390.0, 262.0)",[0.8833333333333333],[0.477],1,3349.84
4,False,200,0.647,38,[],[],"[(1081, 872)]",[],[1],[33],[0.55],"[640.0, 512.0]",horizontal,"(890.0, 262.0)",[0.65],[0.509],1,3354.055
4,False,201,0.9,54,[],[],"[(1112, 848)]",[],[1],[33],[0.55],"[640.0, 512.0]",horizontal,"(890.0, 762.0)",[1.6333333333333333],[0.502],1,3357.922
4,False,202,0.756,45,[],[],"[(1109, 846)]",[],[1],[28],[0.4666666666666667],"[640.0, 512.0]",horizontal,"(390.0, 262.0)",[1.3166666666666667],[0.429],1,3362.955
4,False,203,0.754,45,[],[],"[(1067, 884)]",[],[1],[32],[0.5333333333333333],"[640.0, 512.0]",vertical,"(390.0, 262.0)",[1.0166666666666666],[0.498],1,3367.611
4,False,204,1.088,65,[],[],"[(1067, 886)]",[],[1],[36],[0.6],"[640.0, 512.0]",vertical,"(390.0, 762.0)",[1.4166666666666667],[0.554],1,3372.021
4,False,205,1.011,60,[],[],"[(1067, 857)]",[],[1],[34],[0.5666666666666667],"[640.0, 512.0]",vertical,"(890.0, 262.0)",[0.95],[0.527],1,3377.062
4,False,206,1.047,62,[],[],"[(1111, 857)]",[],[1],[40],[0.6666666666666666],"[640.0, 512.0]",horizontal,"(390.0, 762.0)",[0.8333333333333334],[0.626],1,3381.864
4,False,207,0.969,58,[],[],"[(1089, 879)]",[],[1],[28],[0.4666666666666667],"[640.0, 512.0]",vertical,"(390.0, 262.0)",[0.8666666666666667],[0.426],1,3386.639
4,False,208,0.886,53,[],[],"[(1069, 890)]",[],[1],[37],[0.6166666666666667],"[640.0, 512.0]",horizontal,"(390.0, 762.0)",[1.2666666666666666],[0.571],1,3390.912
4,False,209,0.559,33,[],[],"[(1076, 851)]",[],[1],[37],[0.6166666666666667],"[640.0, 512.0]",vertical,"(890.0, 262.0)",[1.6166666666666667],[0.572],1,3395.7
4,False,210,0.891,53,[],[],"[(1067, 843)]",[],[1],[13],[0.21666666666666667],"[640.0, 512.0]",vertical,"(890.0, 262.0)",[1.4666666666666666],[0.182],1,3400.727
4,False,211,0.512,30,[],[],"[(1092, 898)]",[],[1],[37],[0.6166666666666667],"[640.0, 512.0]",horizontal,"(890.0, 262.0)",[0.55],[0.575],1,3405.282
4,False,212,0.849,50,[],[],"[(1100, 838)]",[],[1],[33],[0.55],"[640.0, 512.0]",vertical,"(890.0, 762.0)",[0.9333333333333333],[0.518],1,3408.911
4,False,213,0.676,40,[],[],"[(1078, 863)]",[],[1],[32],[0.5333333333333333],"[640.0, 512.0]",vertical,"(890.0, 262.0)",[1.2166666666666666],[0.489],1,3413.305
4,False,214,0.53,31,[],[],"[(1105, 848)]",[],[1],[35],[0.5833333333333334],"[640.0, 512.0]",horizontal,"(890.0, 762.0)",[0.8333333333333334],[0.55],1,3417.904
4,False,215,1.084,65,[],[],"[(1077, 861)]",[],[1],[35],[0.5833333333333334],"[640.0, 512.0]",horizontal,"(890.0, 262.0)",[0.8666666666666667],[0.542],1,3422.056
4,False,216,0.821,49,[],[],"[(1076, 864)]",[],[1],[40],[0.6666666666666666],"[640.0, 512.0]",horizontal,"(890.0, 762.0)",[1.65],[0.624],1,3426.632
4,False,217,1.003,60,[],[],"[(1096, 884)]",[],[1],[35],[0.5833333333333334],"[640.0, 512.0]",vertical,"(390.0, 262.0)",[0.9],[0.537],1,3431.593
4,False,218,0.638,38,[],[],"[(1096, 851)]",[],[1],[32],[0.5333333333333333],"[640.0, 512.0]",horizontal,"(390.0, 762.0)",[1.0333333333333332],[0.494],1,3436.105
4,False,219,1.102,66,[],[],"[(1091, 874)]",[],[1],[33],[0.55],"[640.0, 512.0]",vertical,"(890.0, 762.0)",[0.5166666666666666],[0.508],1,3440.251
4,False,220,0.938,56,[],[],"[(1108, 876)]",[],[1],[29],[0.48333333333333334],"[640.0, 512.0]",vertical,"(890.0, 262.0)",[1.3],[0.44],1,3444.465
4,False,221,0.79,47,[],[],"[(1077, 854)]",[],[1],[21],[0.35],"[640.0, 512.0]",vertical,"(390.0, 262.0)",[0.9666666666666667],[0.313],1,3449.317
4,False,222,1.119,67,[],[],"[(1100, 868)]",[],[1],[37],[0.6166666666666667],"[640.0, 512.0]",horizontal,"(890.0, 762.0)",[1.6],[0.575],1,3453.368
4,False,223,0.883,52,[],[],"[(1067, 879)]",[],[1],[33],[0.55],"[640.0, 512.0]",horizontal,"(890.0, 762.0)",[1.2833333333333332],[0.507],1,3458.73
4,False,224,0.583,34,[],[],"[(1102, 876)]",[],[1],[33],[0.55],"[640.0, 512.0]",vertical,"(890.0, 762.0)",[1.35],[0.506],1,3463.631
4,False,225,0.988,59,[],[],"[(1104, 883)]",[],[1],[17],[0.2833333333333333],"[640.0, 512.0]",horizontal,"(390.0, 262.0)",[1.15],[0.251],1,3468.218
4,False,226,0.624,37,[],[],"[(1053, 887)]",[],[1],[40],[0.6666666666666666],"[640.0, 512.0]",vertical,"(390.0, 762.0)",[1.05],[0.626],1,3472.656
4,False,227,0.625,37,[],[],"[(1072, 885)]",[],[1],[],[],"[640.0, 512.0]",horizontal,"(390.0, 262.0)",[],[0],0,3477.463
4,False,228,0.975,58,[],[],"[(1084, 853)]",[],[1],[32],[0.5333333333333333],"[640.0, 512.0]",vertical,"(390.0, 762.0)",[1.3],[0.492],1,3481.645
4,False,229,0.782,46,[],[],"[(1091, 888)]",[],[1],[39],[0.65],"[640.0, 512.0]",vertical,"(890.0, 262.0)",[1.0],[0.605],1,3487.058
4,False,230,0.791,47,[],[],"[(1077, 848)]",[],[1],[33],[0.55],"[640.0, 512.0]",horizontal,"(890.0, 762.0)",[1.2833333333333332],[0.507],1,3491.601
4,False,231,1.008,60,[],[],"[(1047, 892)]",[],[1],[35],[0.5833333333333334],"[640.0, 512.0]",vertical,"(890.0, 762.0)",[1.2166666666666666],[0.538],1,3496.397
4,False,232,0.512,30,[],[],"[(1105, 887)]",[],[1],[31],[0.5166666666666666],"[640.0, 512.0]",vertical,"(390.0, 262.0)",[0.6333333333333333],[0.476],1,3501.324
4,False,233,1.042,62,[],[],"[(1047, 889)]",[],[1],[31],[0.5166666666666666],"[640.0, 512.0]",horizontal,"(390.0, 262.0)",[1.05],[0.479],1,3505.016
4,False,234,1.046,62,[],[],"[(1066, 891)]",[],[1],[33],[0.55],"[640.0, 512.0]",vertical,"(890.0, 262.0)",[1.1333333333333333],[0.505],1,3509.673
4,False,235,1.074,64,[],[],"[(1077, 887)]",[],[1],[33],[0.55],"[640.0, 512.0]",horizontal,"(390.0, 262.0)",[0.6],[0.508],1,3514.388
4,False,236,1.042,62,[],[],"[(1086, 874)]",[],[1],[],[],"[640.0, 512.0]",horizontal,"(390.0, 262.0)",[],[0],0,3518.716
4,False,237,1.057,63,[],[],"[(1072, 843)]",[],[1],[32],[0.5333333333333333],"[640.0, 512.0]",vertical,"(390.0, 262.0)",[0.7],[0.492],1,3523.106
4,False,238,0.652,39,[],[],"[(1076, 877)]",[],[1],[3],[0.05],"[640.0, 512.0]",vertical,"(390.0, 262.0)",[1.4166666666666667],[0.02],1,3527.592
4,False,239,0.522,31,[],[],"[(1075, 840)]",[],[1],[43],[0.7166666666666667],"[640.0, 512.0]",horizontal,"(390.0, 762.0)",[0.7],[0.677],1,3531.894
4,False,240,0.689,41,[],[],"[(1105, 854)]",[],[1],[30],[0.5],"[640.0, 512.0]",horizontal,"(390.0, 262.0)",[0.9],[0.46],1,3535.852
5,False,241,0.671,40,[],[],"[(1077, 846)]",[],[1],[33],[0.55],"[640.0, 512.0]",horizontal,"(890.0, 762.0)",[1.55],[0.508],1,3540.064
5,False,242,1.063,63,[],[],"[(1106, 872)]",[],[1],[],[],"[640.0, 512.0]",horizontal,"(390.0, 262.0)",[],[0],0,3544.903
5,False,243,0.902,54,[],[],"[(1103, 873)]",[],[1],[9],[0.15],"[640.0, 512.0]",horizontal,"(390.0, 762.0)",[1.5166666666666666],[0.116],1,3549.335
5,False,244,0.932,55,[],[],"[(1106, 889)]",[],[1],[34],[0.5666666666666667],"[640.0, 512.0]",vertical,"(390.0, 762.0)",[0.6666666666666666],[0.524],1,3554.629
5,False,245,1.138,68,[],[],"[(1049, 867)]",[],[1],[32],[0.5333333333333333],"[640.0, 512.0]",horizontal,"(890.0, 762.0)",[0.5833333333333334],[0.498],1,3558.895
5,False,246,0.569,34,[],[],"[(1067, 884)]",[],[1],[34],[0.5666666666666667],"[640.0, 512.0]",vertical,"(890.0, 762.0)",[1.0666666666666667],[0.527],1,3563.187
5,False,247,0.789,47,[],[],"[(1053, 877)]",[],[1],[35],[0.5833333333333334],"[640.0, 512.0]",vertical,"(890.0, 762.0)",[1.3],[0.55],1,3567.463
5,False,248,0.512,30,[],[],"[(1080, 876)]",[],[1],[23],[0.3833333333333333],"[640.0, 512.0]",horizontal,"(390.0, 262.0)",[1.3833333333333333],[0.346],1,3572.17
5,False,249,0.589,35,[],[],"[(1076, 899)]",[],[1],[33],[0.55],"[640.0, 512.0]",horizontal,"(890.0, 762.0)",[1.5666666666666667],[0.508],1,3576.871
5,False,250,0.756,45,[],[],"[(1105, 852)]",[],[1],[31],[0.5166666666666666],"[640.0, 512.0]",vertical,"(390.0, 262.0)",[0.5],[0.472],1,3581.622
5,False,251,1.132,67,[],[],"[(1076, 848)]",[],[1],[32],[0.5333333333333333],"[640.0, 512.0]",vertical,"(890.0, 762.0)",[0.9833333333333333],[0.494],1,3585.49
5,False,252,0.888,53,[],[],"[(1110, 875)]",[],[1],[34],[0.5666666666666667],"[640.0, 512.0]",horizontal,"(890.0, 762.0)",[1.3833333333333333],[0.522],1,3590.286
5,False,253,0.52,31,[],[],"[(1067, 861)]",[],[1],[17],[0.2833333333333333],"[640.0, 512.0]",horizontal,"(390.0, 262.0)",[1.4],[0.246],1,3595.254
5,False,254,1.158,69,[],[],"[(1100, 868)]",[],[1],[31],[0.5166666666666666],"[640.0, 512.0]",horizontal,"(890.0, 262.0)",[1.2],[0.483],1,3599.596
5,False,255,0.687,41,[],[],"[(1078, 863)]",[],[1],[18],[0.3],"[640.0, 512.0]",vertical,"(390.0, 762.0)",[1.2],[0.266],1,3604.496
5,False,256,0.831,49,[],[],"[(1092, 848)]",[],[1],[32],[0.5333333333333333],"[640.0, 512.0]",horizontal,"(390.0, 762.0)",[0.7666666666666666],[0.498],1,3608.87
5,False,257,0.592,35,[],[],"[(1076, 883)]",[],[1],[6],[0.1],"[640.0, 512.0]",horizontal,"(390.0, 262.0)",[1.0666666666666667],[0.066],1,3613.192
5,False,258,0.551,33,[],[],"[(1067, 878)]",[],[1],[18],[0.3],"[640.0, 512.0]",horizontal,"(390.0, 762.0)",[0.9833333333333333],[0.267],1,3616.889
5,False,259,0.779,46,[],[],"[(1067, 852)]",[],[1],[33],[0.55],"[640.0, 512.0]",horizontal,"(890.0, 262.0)",[0.5333333333333333],[0.51],1,3620.868
5,False,260,1.147,68,[],[],"[(1096, 869)]",[],[1],[33],[0.55],"[640.0, 512.0]",vertical,"(890.0, 762.0)",[0.7666666666666666],[0.503],1,3624.748
5,False,261,0.526,31,[],[],"[(1067, 878)]",[],[1],[34],[0.5666666666666667],"[640.0, 512.0]",horizontal,"(390.0, 762.0)",[0.9666666666666667],[0.522],1,3629.1
5,False,262,0.588,35,[],[],"[(1052, 896)]",[],[1],[],[],"[640.0, 512.0]",horizontal,"(390.0, 262.0)",[],[0],0,3633.358
5,False,263,0.508,30,[],[],"[(1092, 858)]",[],[1],[38],[0.6333333333333333],"[640.0, 512.0]",vertical,"(390.0, 762.0)",[0.5],[0.586],1,3637.177
5,False,264,0.828,49,[],[],"[(1067, 867)]",[],[1],[11],[0.18333333333333332],"[640.0, 512.0]",horizontal,"(890.0, 762.0)",[1.3666666666666667],[0.152],1,3641.634
5,False,265,1.169,70,[],[],"[(1100, 885)]",[],[1],[51],[0.85],"[640.0, 512.0]",vertical,"(390.0, 762.0)",[1.3833333333333333],[0.804],0,3646.083
5,False,266,1.187,71,[],[],"[(1112, 878)]",[],[1],[],[],"[640.0, 512.0]",horizontal,"(890.0, 762.0)",[],[0],0,3839.969
5,False,267,0.895,53,[],[],"[(1098, 848)]",[],[1],[4],[0.06666666666666667],"[640.0, 512.0]",horizontal,"(390.0, 762.0)",[1.5166666666666666],[0.036],1,3887.357
5,False,268,0.708,42,[],[],"[(1052, 896)]",[],[1],[34],[0.5666666666666667],"[640.0, 512.0]",horizontal,"(390.0, 762.0)",[0.6],[0.529],1,3897.973
5,False,269,0.52,31,[],[],"[(1066, 888)]",[],[1],[32],[0.5333333333333333],"[640.0, 512.0]",horizontal,"(890.0, 262.0)",[0.9333333333333333],[0.497],1,3902.085
5,False,270,0.847,50,[],[],"[(1079, 900)]",[],[1],[31],[0.5166666666666666],"[640.0, 512.0]",vertical,"(890.0, 262.0)",[0.6166666666666667],[0.483],1,3905.885
5,False,271,0.843,50,[],[],"[(1090, 859)]",[],[1],[12],[0.2],"[640.0, 512.0]",vertical,"(390.0, 262.0)",[0.8833333333333333],[0.166],1,3909.711
5,False,272,1.104,66,[],[],"[(1094, 894)]",[],[1],[33],[0.55],"[640.0, 512.0]",horizontal,"(890.0, 762.0)",[0.5166666666666666],[0.506],1,3913.638
5,False,273,0.982,58,[],[],"[(1088, 895)]",[],[1],[33],[0.55],"[640.0, 512.0]",vertical,"(890.0, 262.0)",[1.0166666666666666],[0.515],1,3917.816
5,False,274,1.193,71,[],[],"[(1072, 877)]",[],[1],[30],[0.5],"[640.0, 512.0]",vertical,"(890.0, 262.0)",[0.7],[0.459],1,3922.507
5,False,275,0.886,53,[],[],"[(1111, 862)]",[],[1],[],[],"[640.0, 512.0]",horizontal,"(890.0, 262.0)",[],[0],0,3927.735
5,False,276,1.172,70,[],[],"[(1134, 892)]",[],[1],[],[],"[640.0, 512.0]",vertical,"(890.0, 262.0)",[],[0],0,3931.887
5,False,277,0.509,30,[],[],"[(1086, 861)]",[],[1],[3],[0.05],"[640.0, 512.0]",vertical,"(390.0, 262.0)",[1.1833333333333333],[0.02],1,3936.742
5,False,278,0.676,40,[],[],"[(1116, 873)]",[],[1],[33],[0.55],"[640.0, 512.0]",vertical,"(890.0, 762.0)",[0.5333333333333333],[0.511],1,3941.82
5,False,279,0.777,46,[],[],"[(1095, 880)]",[],[1],[32],[0.5333333333333333],"[640.0, 512.0]",horizontal,"(390.0, 262.0)",[0.5166666666666666],[0.491],1,3945.658
5,False,280,0.612,36,[],[],"[(1096, 882)]",[],[1],[4],[0.06666666666666667],"[640.0, 512.0]",horizontal,"(390.0, 262.0)",[1.1],[0.04],1,3949.508
5,False,281,0.603,36,[],[],"[(1134, 891)]",[],[1],[27],[0.45],"[640.0, 512.0]",vertical,"(390.0, 262.0)",[0.65],[0.412],1,3953.205
5,False,282,0.598,35,[],[],"[(1086, 873)]",[],[1],[20],[0.3333333333333333],"[640.0, 512.0]",vertical,"(390.0, 262.0)",[1.1333333333333333],[0.294],1,3956.884
5,False,283,0.7,42,[],[],"[(1132, 896)]",[],[1],[4],[0.06666666666666667],"[640.0, 512.0]",horizontal,"(390.0, 762.0)",[1.5666666666666667],[0.036],1,3960.885
5,False,284,0.517,31,[],[],"[(1063, 904)]",[],[1],[9],[0.15],"[640.0, 512.0]",horizontal,"(390.0, 762.0)",[1.55],[0.116],1,3965.32
5,False,285,0.92,55,[],[],"[(1105, 895)]",[],[1],[35],[0.5833333333333334],"[640.0, 512.0]",vertical,"(890.0, 762.0)",[0.7333333333333333],[0.546],1,3969.509
5,False,286,0.897,53,[],[],"[(1110, 901)]",[],[1],[32],[0.5333333333333333],"[640.0, 512.0]",horizontal,"(390.0, 262.0)",[0.5833333333333334],[0.491],1,3974.256
5,False,287,0.799,47,[],[],"[(1104, 888)]",[],[1],[35],[0.5833333333333334],"[640.0, 512.0]",vertical,"(890.0, 762.0)",[0.55],[0.541],1,3978.402
5,False,288,0.508,30,[],[],"[(1087, 889)]",[],[1],[12],[0.2],"[640.0, 512.0]",horizontal,"(890.0, 262.0)",[1.6],[0.166],1,3982.287
5,False,289,0.907,54,[],[],"[(1111, 869)]",[],[1],[],[],"[640.0, 512.0]",horizontal,"(890.0, 262.0)",[],[0],0,3986.641
5,False,290,1.099,65,[],[],"[(1077, 856)]",[],[1],[30],[0.5],"[640.0, 512.0]",horizontal,"(890.0, 262.0)",[1.25],[0.457],1,3990.965
5,False,291,0.577,34,[],[],"[(1063, 868)]",[],[1],[31],[0.5166666666666666],"[640.0, 512.0]",vertical,"(890.0, 262.0)",[0.85],[0.473],1,3996.231
5,False,292,1.092,65,[],[],"[(1119, 872)]",[],[1],[],[],"[640.0, 512.0]",horizontal,"(390.0, 762.0)",[],[0],0,4000.208
5,False,293,1.077,64,[],[],"[(1081, 862)]",[],[1],[29],[0.48333333333333334],"[640.0, 512.0]",vertical,"(890.0, 762.0)",[1.3333333333333333],[0.44],1,4004.468
5,False,294,0.789,47,[],[],"[(1100, 872)]",[],[1],[],[],"[640.0, 512.0]",horizontal,"(390.0, 262.0)",[],[0],0,4023.926
5,False,295,0.751,45,[],[],"[(1084, 882)]",[],[1],[],[],"[640.0, 512.0]",vertical,"(390.0, 262.0)",[],[0],0,4027.328
5,False,296,1.047,62,[],[],"[(1110, 872)]",[],[1],[],[],"[640.0, 512.0]",vertical,"(390.0, 262.0)",[],[0],0,4031.321
5,False,297,0.634,38,[],[],"[(1081, 879)]",[],[1],[32],[0.5333333333333333],"[640.0, 512.0]",horizontal,"(390.0, 262.0)",[0.95],[0.493],1,4035.459
5,False,298,1.142,68,[],[],"[(1081, 872)]",[],[1],[32],[0.5333333333333333],"[640.0, 512.0]",vertical,"(890.0, 762.0)",[0.7],[0.489],1,4042.782
5,False,299,0.78,46,[],[],"[(1081, 893)]",[],[1],[35],[0.5833333333333334],"[640.0, 512.0]",horizontal,"(890.0, 762.0)",[1.3166666666666667],[0.54],1,4046.978
5,False,300,1.155,69,[],[],"[(1110, 873)]",[],[1],[28],[0.4666666666666667],"[640.0, 512.0]",vertical,"(890.0, 262.0)",[1.0333333333333332],[0.426],1,4051.589
6,False,301,0.665,39,[],[],"[(1042, 893)]",[],[1],[35],[0.5833333333333334],"[640.0, 512.0]",vertical,"(390.0, 262.0)",[0.6333333333333333],[0.541],1,4056.07
6,False,302,0.636,38,[],[],"[(1081, 890)]",[],[1],[25],[0.4166666666666667],"[640.0, 512.0]",horizontal,"(390.0, 262.0)",[0.85],[0.377],1,4060.289
6,False,303,0.892,53,[],[],"[(1096, 902)]",[],[1],[],[],"[640.0, 512.0]",vertical,"(890.0, 262.0)",[],[0],0,4064.076
6,False,304,0.894,53,[],[],"[(1071, 864)]",[],[1],[34],[0.5666666666666667],"[640.0, 512.0]",vertical,"(390.0, 762.0)",[0.7],[0.525],1,4068.448
6,False,305,0.763,45,[],[],"[(1072, 883)]",[],[1],[31],[0.5166666666666666],"[640.0, 512.0]",horizontal,"(390.0, 262.0)",[0.55],[0.475],1,4072.903
6,False,306,0.928,55,[],[],"[(1129, 867)]",[],[1],[22],[0.36666666666666664],"[640.0, 512.0]",vertical,"(390.0, 262.0)",[0.9333333333333333],[0.329],1,4076.692
6,False,307,1.109,66,[],[],"[(1093, 858)]",[],[1],[],[],"[640.0, 512.0]",vertical,"(390.0, 262.0)",[],[0],0,4080.812
6,False,308,1.158,69,[],[],"[(1105, 911)]",[],[1],[],[],"[640.0, 512.0]",horizontal,"(890.0, 262.0)",[],[0],0,4083.939
6,False,309,1.076,64,[],[],"[(1055, 887)]",[],[1],[51],[0.85],"[640.0, 512.0]",horizontal,"(890.0, 762.0)",[1.35],[0.799],0,4392.676
6,False,310,0.734,44,[],[],"[(1061, 892)]",[],[1],[23],[0.3833333333333333],"[640.0, 512.0]",vertical,"(890.0, 262.0)",[1.4666666666666666],[0.342],1,4402.507
6,False,311,0.593,35,[],[],"[(1078, 878)]",[],[1],[39],[0.65],"[640.0, 512.0]",vertical,"(890.0, 262.0)",[0.6666666666666666],[0.603],1,4412.155
6,False,312,0.635,38,[],[],"[(1081, 879)]",[],[1],[28],[0.4666666666666667],"[640.0, 512.0]",horizontal,"(390.0, 762.0)",[1.1],[0.432],1,4423.426
6,False,313,1.069,64,[],[],"[(1080, 879)]",[],[1],[29],[0.48333333333333334],"[640.0, 512.0]",horizontal,"(890.0, 262.0)",[1.6833333333333333],[0.444],1,4427.749
6,False,314,0.696,41,[],[],"[(1081, 899)]",[],[1],[31],[0.5166666666666666],"[640.0, 512.0]",horizontal,"(390.0, 262.0)",[1.35],[0.476],1,4432.902
6,False,315,1.115,66,[],[],"[(1110, 885)]",[],[1],[36],[0.6],"[640.0, 512.0]",horizontal,"(890.0, 762.0)",[1.3333333333333333],[0.553],1,4437.46
6,False,316,0.9,54,[],[],"[(1095, 878)]",[],[1],[35],[0.5833333333333334],"[640.0, 512.0]",vertical,"(890.0, 762.0)",[0.6166666666666667],[0.542],1,4442.404
6,False,317,0.75,45,[],[],"[(1125, 897)]",[],[1],[42],[0.7],"[640.0, 512.0]",horizontal,"(890.0, 762.0)",[1.2833333333333332],[0.661],1,4446.604
6,False,318,1.109,66,[],[],"[(1093, 876)]",[],[1],[33],[0.55],"[640.0, 512.0]",vertical,"(890.0, 762.0)",[0.9666666666666667],[0.507],1,4451.413
6,False,319,1.015,60,[],[],"[(1078, 884)]",[],[1],[34],[0.5666666666666667],"[640.0, 512.0]",vertical,"(890.0, 262.0)",[1.1833333333333333],[0.529],1,4456.139
6,False,320,0.698,41,[],[],"[(1089, 868)]",[],[1],[30],[0.5],"[640.0, 512.0]",vertical,"(390.0, 762.0)",[1.55],[0.462],1,4461.076
6,False,321,1.145,68,[],[],"[(1067, 866)]",[],[1],[37],[0.6166666666666667],"[640.0, 512.0]",horizontal,"(390.0, 762.0)",[0.9666666666666667],[0.57],1,4465.823
6,False,322,0.575,34,[],[],"[(1067, 852)]",[],[1],"[51, 51]","[0.85, 0.85]","[640.0, 512.0]",vertical,"(890.0, 762.0)",[1.0833333333333333],"[0.801, 0.801]",0,4470.694
6,False,323,0.733,43,[],[],"[(1121, 865)]",[],[1],[31],[0.5166666666666666],"[640.0, 512.0]",vertical,"(390.0, 762.0)",[0.7],[0.473],1,4475.239
6,False,324,0.587,35,[],[],"[(1085, 873)]",[],[1],[],[],"[640.0, 512.0]",horizontal,"(390.0, 762.0)",[],[0],0,4478.974
6,False,325,1.043,62,[],[],"[(1076, 852)]",[],[1],[],[],"[640.0, 512.0]",vertical,"(390.0, 262.0)",[],[0],0,4483.124
6,False,326,0.591,35,[],[],"[(1078, 864)]",[],[1],[34],[0.5666666666666667],"[640.0, 512.0]",horizontal,"(890.0, 762.0)",[1.3333333333333333],[0.529],1,4487.753
6,False,327,0.954,57,[],[],"[(1104, 866)]",[],[1],[34],[0.5666666666666667],"[640.0, 512.0]",vertical,"(890.0, 262.0)",[0.8],[0.527],1,4492.605
6,False,328,0.789,47,[],[],"[(1108, 876)]",[],[1],[38],[0.6333333333333333],"[640.0, 512.0]",horizontal,"(890.0, 262.0)",[1.6833333333333333],[0.594],1,4496.992
6,False,329,0.994,59,[],[],"[(1102, 873)]",[],[1],[33],[0.55],"[640.0, 512.0]",vertical,"(890.0, 262.0)",[0.7333333333333333],[0.51],1,4502.076
6,False,330,0.738,44,[],[],"[(1081, 867)]",[],[1],[42],[0.7],"[640.0, 512.0]",vertical,"(390.0, 762.0)",[1.4333333333333333],[0.653],1,4506.25
6,False,331,0.76,45,[],[],"[(1128, 889)]",[],[1],[34],[0.5666666666666667],"[640.0, 512.0]",vertical,"(890.0, 762.0)",[1.5666666666666667],[0.521],1,4511.111
6,False,332,1.117,67,[],[],"[(1084, 891)]",[],[1],[38],[0.6333333333333333],"[640.0, 512.0]",vertical,"(390.0, 762.0)",[1.4333333333333333],[0.591],1,4516.075
6,False,333,1.068,64,[],[],"[(1079, 882)]",[],[1],[35],[0.5833333333333334],"[640.0, 512.0]",vertical,"(390.0, 762.0)",[0.85],[0.544],1,4521.144
6,False,334,0.861,51,[],[],"[(1069, 893)]",[],[1],[34],[0.5666666666666667],"[640.0, 512.0]",horizontal,"(890.0, 262.0)",[1.3833333333333333],[0.521],1,4525.827
6,False,335,1.185,71,[],[],"[(1081, 868)]",[],[1],[32],[0.5333333333333333],"[640.0, 512.0]",vertical,"(890.0, 262.0)",[1.3666666666666667],[0.493],1,4530.686
6,False,336,1.167,70,[],[],"[(1078, 877)]",[],[1],[30],[0.5],"[640.0, 512.0]",horizontal,"(390.0, 262.0)",[0.9666666666666667],[0.467],1,4535.967
6,False,337,1.169,70,[],[],"[(1086, 848)]",[],[1],[33],[0.55],"[640.0, 512.0]",vertical,"(890.0, 762.0)",[0.65],[0.505],1,4540.943
6,False,338,0.767,46,[],[],"[(1086, 886)]",[],[1],[33],[0.55],"[640.0, 512.0]",vertical,"(390.0, 762.0)",[0.9666666666666667],[0.508],1,4549.572
6,False,339,0.511,30,[],[],"[(1105, 879)]",[],[1],[34],[0.5666666666666667],"[640.0, 512.0]",vertical,"(890.0, 262.0)",[1.3],[0.526],1,4553.871
6,False,340,1.116,66,[],[],"[(1086, 854)]",[],[1],[34],[0.5666666666666667],"[640.0, 512.0]",horizontal,"(890.0, 262.0)",[1.1833333333333333],[0.534],1,4558.193
6,False,341,1.147,68,[],[],"[(1100, 888)]",[],[1],[33],[0.55],"[640.0, 512.0]",horizontal,"(890.0, 262.0)",[0.6333333333333333],[0.508],1,4563.129
6,False,342,0.948,56,[],[],"[(1096, 868)]",[],[1],[32],[0.5333333333333333],"[640.0, 512.0]",horizontal,"(390.0, 762.0)",[1.4],[0.497],1,4567.421
6,False,343,0.681,40,[],[],"[(1078, 869)]",[],[1],[40],[0.6666666666666666],"[640.0, 512.0]",vertical,"(890.0, 262.0)",[0.6333333333333333],[0.626],1,4572.321
6,False,344,0.758,45,[],[],"[(1098, 868)]",[],[1],[49],[0.8166666666666667],"[640.0, 512.0]",vertical,"(390.0, 762.0)",[1.6166666666666667],[0.772],1,4576.371
6,False,345,0.874,52,[],[9648960],"[(817, 563), (663, 499), (663, 499), (518, 914), (122, 782), (1131, 882)]","[(1131, 881)]","[0, 0, 0, 0, 0, 1]",[22],[0.36666666666666664],"[640.0, 512.0]",vertical,"(890.0, 262.0)",[],[0],0,4581.506
6,False,346,1.114,66,[],[14356640],"[(131, 681), (127, 679), (802, 552), (1123, 876)]","[(1109, 892)]","[0, 0, 0, 1]",[44],[0.7333333333333333],"[640.0, 512.0]",horizontal,"(890.0, 262.0)",[],[0],0,9627.366
6,False,347,1.039,62,[],[14444156],"[(1092, 855)]","[(1058, 879)]",[1],[31],[0.5166666666666666],"[640.0, 512.0]",vertical,"(890.0, 262.0)",[],[0],0,14335.06
6,False,348,0.831,49,[],[16324923],"[(1168, 387), (1207, 869)]","[(1227, 871)]","[0, 1]",[27],[0.45],"[640.0, 512.0]",vertical,"(390.0, 762.0)",[],[0],0,14422.557
