block,trial,trial_type,taps_start_loc_during_fix,taps_end_loc_during_fix,taps_on_lever_during_fix,taps_on_lever_s_during_fix,bar_orientation,target_xy,cti,rt,acc,time,pulses
0,1,target,"[(1050, 839)]",[],[1],[],horizontal,"(890.0, 262.0)",,"('fix', 0.067)",0,0.69,0
0,2,catch,"[(1133, 865)]",[],[1],[],vertical,"(390.0, 762.0)",1.45,nan,1,138.851,1
0,3,target,"[(1038, 882)]",[],[1],[0.6],vertical,"(890.0, 762.0)",0.65,0.551,1,144.203,1
0,4,target,"[(1029, 871)]",[],[1],[],vertical,"(890.0, 262.0)",,"('fix', 0.052)",0,3801.47,0
0,5,target,"[(1017, 863)]",[],[1],[0.85],horizontal,"(390.0, 262.0)",0.6,nan,0,3803.317,0
0,6,catch,"[(1039, 843)]",[],[1],[],vertical,"(390.0, 762.0)",1.4,nan,1,3812.72,1
0,7,target,"[(1022, 866)]",[],[1],[0.5],horizontal,"(390.0, 262.0)",0.9166666666666666,0.459,1,3817.755,1
0,8,target,"[(1014, 849)]",[],[1],[0.85],vertical,"(390.0, 762.0)",0.7,nan,0,3828.21,0
0,9,target,"[(1020, 833)]",[],[1],[0.8166666666666667],horizontal,"(390.0, 762.0)",1.0,0.767,1,3833.066,1
0,10,target,"[(1018, 893)]",[],[1],[0.31666666666666665],vertical,"(390.0, 262.0)",0.9333333333333333,0.279,1,3838.484,1
0,11,target,"[(1013, 829)]",[],[1],[],horizontal,"(890.0, 762.0)",,"('cti', 1.225)",0,3843.465,0
0,12,target,"[(1017, 860)]",[],[1],[0.7166666666666667],vertical,"(890.0, 262.0)",0.9,0.674,1,3847.884,1
0,13,target,"[(1013, 826)]",[],[1],[0.6166666666666667],horizontal,"(390.0, 262.0)",1.0333333333333332,0.574,1,3853.895,1
0,14,catch,"[(1108, 808)]",[],[1],[0.03333333333333333],vertical,"(390.0, 762.0)",1.35,"0.02,nan",0,3859.251,0
0,15,target,"[(1020, 840)]",[],[1],[0.7666666666666666],vertical,"(390.0, 262.0)",0.6333333333333333,0.717,1,3863.45,1
0,16,target,"[(1017, 846)]",[],[1],[0.06666666666666667],vertical,"(390.0, 762.0)",1.4666666666666666,0.035,0,3868.858,0
0,17,target,"[(1054, 849)]",[],[1],[0.5833333333333334],horizontal,"(890.0, 762.0)",0.5,0.545,1,3873.4,1
0,18,target,"[(1022, 827)]",[],[1],[0.23333333333333334],horizontal,"(890.0, 762.0)",1.3166666666666667,0.2,1,3877.883,1
0,19,target,"[(1012, 827)]",[],[1],[0.48333333333333334],horizontal,"(890.0, 262.0)",1.1833333333333333,0.443,1,3883.103,1
0,20,target,"[(1074, 826)]",[],[1],[0.43333333333333335],horizontal,"(890.0, 262.0)",1.3666666666666667,0.393,1,3888.135,2
0,21,target,"[(1071, 856)]",[],[1],[0.5833333333333334],vertical,"(890.0, 762.0)",1.55,0.537,1,3893.374,1
0,22,target,"[(1057, 842)]",[],[1],[0.5166666666666666],horizontal,"(890.0, 262.0)",1.2333333333333334,0.479,1,3898.622,1
0,23,target,"[(1054, 838)]",[],[1],[0.5166666666666666],vertical,"(390.0, 762.0)",1.0833333333333333,0.477,1,3903.792,1
0,24,target,"[(1052, 827)]",[],[1],[],vertical,"(890.0, 262.0)",,"('cti', 1.261)",0,3908.934,0
0,25,target,"[(1017, 849)]",[],[1],[0.6],vertical,"(890.0, 262.0)",0.9333333333333333,0.564,1,3913.452,1
0,26,target,"[(1065, 827)]",[],[1],[0.21666666666666667],horizontal,"(390.0, 762.0)",1.3166666666666667,0.181,1,3918.752,1
0,27,target,"[(1061, 825)]",[],[1],[0.5833333333333334],vertical,"(390.0, 262.0)",1.05,0.541,1,3923.834,1
0,28,target,"[(1077, 809)]",[],[1],[],vertical,"(890.0, 762.0)",,"('cti', 1.51)",0,3928.667,0
0,29,catch,"[(1022, 832)]",[],[1],[],vertical,"(890.0, 762.0)",1.0333333333333332,nan,1,3932.981,1
0,30,target,"[(1072, 820)]",[],[1],[0.05],horizontal,"(390.0, 762.0)",1.6166666666666667,0.019,0,3937.8,0
0,31,target,"[(1057, 798)]",[],[1],[0.5333333333333333],vertical,"(390.0, 762.0)",0.6833333333333333,0.489,1,3942.345,1
0,32,target,"[(1073, 811)]",[],[1],[0.5333333333333333],vertical,"(390.0, 262.0)",1.0333333333333332,0.488,1,3946.785,1
0,33,target,"[(1063, 834)]",[],[1],[0.5833333333333334],horizontal,"(890.0, 262.0)",0.5333333333333333,0.54,1,3951.634,1
0,34,target,"[(1072, 822)]",[],[1],[],vertical,"(890.0, 262.0)",,"('cti', 1.485)",0,3956.651,0
0,35,target,"[(1068, 812)]",[],[1],[0.5333333333333333],horizontal,"(390.0, 762.0)",1.0666666666666667,0.494,1,3961.202,1
0,36,target,"[(1059, 826)]",[],[1],[0.21666666666666667],horizontal,"(390.0, 262.0)",1.4166666666666667,0.183,1,3966.004,1
0,37,target,"[(1054, 832)]",[],[1],[0.6166666666666667],horizontal,"(390.0, 762.0)",1.2,0.57,1,3970.785,1
0,38,target,"[(1033, 826)]",[],[1],[0.45],vertical,"(890.0, 262.0)",0.7666666666666666,0.406,1,3975.767,2
0,39,target,"[(1010, 840)]",[],[1],[0.48333333333333334],vertical,"(890.0, 262.0)",0.6833333333333333,0.441,1,3980.593,1
0,40,target,"[(1072, 819)]",[],[1],[0.08333333333333333],vertical,"(390.0, 762.0)",1.65,0.053,0,3985.144,0
0,41,target,"[(1036, 828)]",[],[1],[0.55],horizontal,"(390.0, 262.0)",1.2833333333333332,0.507,1,3989.66,1
0,42,target,"[(1014, 831)]",[],[1],[0.2833333333333333],vertical,"(890.0, 762.0)",1.3833333333333333,0.245,1,3995.125,1
0,43,catch,"[(1069, 827)]",[],[1],[],horizontal,"(890.0, 762.0)",1.0833333333333333,nan,1,4000.435,1
0,44,target,"[(1052, 837)]",[],[1],[0.5],vertical,"(390.0, 762.0)",1.1833333333333333,0.456,1,4004.902,2
0,45,catch,"[(1053, 812)]",[],[1],[],vertical,"(890.0, 762.0)",1.1,nan,1,4010.501,1
0,46,target,"[(1024, 818)]",[],[1],[0.6333333333333333],vertical,"(390.0, 762.0)",0.5833333333333334,0.587,1,4014.968,1
0,47,target,"[(1073, 811)]",[],[1],[0.4666666666666667],horizontal,"(890.0, 262.0)",1.1833333333333333,0.427,1,4019.776,1
0,48,target,"[(1063, 816)]",[],[1],[0.6666666666666666],vertical,"(390.0, 262.0)",0.7166666666666667,0.619,1,4024.902,2
0,49,target,"[(1061, 829)]",[],[1],[0.31666666666666665],horizontal,"(390.0, 762.0)",1.3666666666666667,0.282,1,4030.318,1
0,50,catch,"[(1057, 798)]",[],[1],[],horizontal,"(390.0, 762.0)",,"('cti', 0.537),nan",0,4035.443,0
0,51,target,"[(1057, 819)]",[],[1],[0.05],horizontal,"(390.0, 762.0)",1.5666666666666667,0.017,0,4039.219,0
0,52,target,"[(1054, 829)]",[],[1],[0.5166666666666666],horizontal,"(890.0, 762.0)",1.1166666666666667,0.474,1,4043.91,1
0,53,target,"[(1061, 805)]",[],[1],[0.6166666666666667],vertical,"(390.0, 762.0)",1.05,0.576,1,4048.884,1
0,54,target,"[(1072, 842)]",[],[1],[0.85],vertical,"(390.0, 762.0)",1.0166666666666666,nan,0,4053.691,0
0,55,target,"[(1053, 830)]",[],[1],[0.48333333333333334],vertical,"(890.0, 262.0)",0.65,0.443,1,4058.735,1
0,56,target,"[(1061, 804)]",[],[1],[0.06666666666666667],horizontal,"(890.0, 262.0)",1.65,0.036,0,4063.529,0
0,57,catch,"[(1041, 838)]",[],[1],[],horizontal,"(390.0, 262.0)",1.0333333333333332,nan,1,4068.001,1
0,58,target,"[(1061, 822)]",[],[1],[0.5166666666666666],horizontal,"(890.0, 262.0)",1.2333333333333334,0.474,1,4072.742,1
0,59,target,"[(1057, 826)]",[],[1],[0.5666666666666667],horizontal,"(890.0, 762.0)",0.55,0.521,1,4078.186,1
0,60,catch,"[(1021, 837)]",[],[1],[],vertical,"(390.0, 762.0)",1.0166666666666666,nan,1,4082.618,2
0,61,catch,"[(1043, 824)]",[],[1],[],horizontal,"(390.0, 762.0)",,"('cti', 1.553),nan",0,4087.935,0
0,62,target,"[(1042, 838)]",[],[1],[0.6333333333333333],horizontal,"(890.0, 762.0)",0.7,0.592,1,4092.839,1
0,63,target,"[(1022, 810)]",[],[1],[0.5],horizontal,"(890.0, 262.0)",1.5333333333333332,0.459,1,4097.336,1
0,64,catch,"[(1017, 847)]",[],[1],[],horizontal,"(890.0, 262.0)",1.3833333333333333,nan,1,4102.519,1
0,65,target,"[(1057, 834)]",[],[1],[0.5166666666666666],horizontal,"(890.0, 262.0)",0.6833333333333333,0.479,1,4111.896,2
0,66,target,"[(1024, 837)]",[],[1],[],horizontal,"(390.0, 762.0)",,"('cti', 1.029)",0,4117.031,0
0,67,target,"[(1037, 825)]",[],[1],[0.4666666666666667],vertical,"(390.0, 262.0)",1.3666666666666667,0.428,1,4121.376,1
0,68,target,"[(1057, 814)]",[],[1],[0.6],vertical,"(390.0, 762.0)",1.4,0.553,1,4127.074,1
0,69,target,"[(1038, 839)]",[],[1],[0.5166666666666666],horizontal,"(890.0, 262.0)",0.75,0.474,1,4132.188,1
0,70,target,"[(1061, 817)]",[],[1],[0.55],horizontal,"(390.0, 262.0)",1.2333333333333334,0.507,1,4137.396,2
0,71,target,"[(1046, 849)]",[],[1],[0.5666666666666667],vertical,"(890.0, 762.0)",1.2666666666666666,0.52,1,4143.151,1
0,72,target,"[(1072, 818)]",[],[1],[],horizontal,"(890.0, 762.0)",,"('cti', 1.485)",0,4148.186,0
0,73,target,"[(1041, 833)]",[],[1],[0.5666666666666667],vertical,"(890.0, 762.0)",0.6666666666666666,0.525,1,4152.872,1
0,74,target,"[(1048, 809)]",[],[1],[0.5833333333333334],horizontal,"(390.0, 762.0)",0.6333333333333333,0.545,1,4157.214,1
0,75,target,"[(1064, 809)]",[],[1],[0.4],vertical,"(890.0, 762.0)",1.2333333333333334,0.358,1,4161.715,1
0,76,target,"[(1041, 810)]",[],[1],[],horizontal,"(390.0, 762.0)",,"('cti', 1.53)",0,4166.856,0
0,77,target,"[(1061, 811)]",[],[1],[0.5166666666666666],vertical,"(390.0, 762.0)",0.5666666666666667,0.483,1,4171.536,1
0,78,target,"[(1038, 842)]",[],[1],[0.5666666666666667],vertical,"(890.0, 762.0)",0.6333333333333333,0.523,1,4175.702,1
0,79,target,"[(1046, 835)]",[],[1],[0.5666666666666667],vertical,"(890.0, 762.0)",0.8166666666666667,0.524,1,4180.951,1
0,80,target,"[(1016, 831)]",[],[1],[0.45],vertical,"(390.0, 262.0)",1.2,0.417,1,4186.215,2
0,81,target,"[(1022, 831)]",[],[1],[0.6666666666666666],vertical,"(890.0, 762.0)",1.3166666666666667,0.623,1,4191.803,1
0,82,target,"[(1065, 827)]",[],[1],[0.8166666666666667],horizontal,"(390.0, 262.0)",1.15,0.776,1,4198.734,1
0,83,target,"[(1052, 803)]",[],[1],[0.85],horizontal,"(890.0, 762.0)",1.1166666666666667,nan,0,4204.319,0
0,84,target,"[(1013, 830)]",[],[1],[0.55],horizontal,"(390.0, 762.0)",1.3666666666666667,0.509,1,4209.218,1
0,85,target,"[(1072, 808)]",[],[1],[0.75],vertical,"(890.0, 262.0)",1.15,0.707,1,4214.998,1
0,86,target,"[(1074, 807)]",[],[1],[0.5166666666666666],vertical,"(890.0, 762.0)",1.2833333333333332,0.476,1,4220.1,1
0,87,catch,"[(1050, 813)]",[],[1],[],vertical,"(890.0, 762.0)",1.2,nan,1,4224.921,2
0,88,target,"[(1062, 828)]",[],[1],[],horizontal,"(890.0, 262.0)",,"('cti', 1.225)",0,4230.269,0
0,89,catch,"[(1045, 844)]",[],[1],[],horizontal,"(390.0, 762.0)",,"('cti', 0.549),nan",0,4234.585,0
0,90,target,"[(1045, 832)]",[],[1],[0.7166666666666667],horizontal,"(390.0, 762.0)",1.1666666666666667,0.673,1,4239.335,1
0,91,target,"[(1045, 843)]",[],[1],[0.6166666666666667],vertical,"(890.0, 762.0)",1.1333333333333333,0.573,1,4244.947,1
0,92,target,"[(1046, 831)]",[],[1],[0.6],vertical,"(890.0, 262.0)",1.0166666666666666,0.558,1,4250.185,1
0,93,target,"[(1047, 829)]",[],[1],[0.5],vertical,"(390.0, 762.0)",1.4666666666666666,0.462,1,4255.135,2
0,94,target,"[(1047, 842)]",[],[1],[0.85],horizontal,"(890.0, 762.0)",0.7833333333333333,nan,0,4261.17,0
0,95,target,"[(1014, 849)]",[],[1],[0.5333333333333333],vertical,"(890.0, 762.0)",0.5666666666666667,0.49,1,4266.252,1
0,96,target,"[(1014, 850)]",[],[1],[0.4666666666666667],vertical,"(390.0, 762.0)",1.5833333333333333,0.431,1,4271.37,1
0,97,target,"[(1053, 834)]",[],[1],[],horizontal,"(890.0, 262.0)",,"('cti', 1.545)",0,4304.82,0
0,98,target,"[(1057, 829)]",[],[1],[0.6833333333333333],horizontal,"(390.0, 762.0)",0.5833333333333334,0.641,1,4309.487,1
0,99,target,"[(1061, 808)]",[],[1],[0.55],vertical,"(890.0, 762.0)",0.8333333333333334,0.511,1,4314.47,1
0,100,catch,"[(998, 833), (1015, 851)]",[],"[0, 1]",[],horizontal,"(390.0, 262.0)",1.0,nan,1,4319.478,1
0,101,target,"[(1068, 839)]",[],[1],[0.48333333333333334],horizontal,"(390.0, 262.0)",1.2166666666666666,0.444,1,4694.162,2
0,102,target,"[(1057, 821)]",[],[1],[0.5166666666666666],horizontal,"(890.0, 762.0)",1.6333333333333333,0.475,1,4699.972,1
0,103,catch,"[(1056, 843)]",[],[1],[],vertical,"(390.0, 762.0)",1.6833333333333333,nan,1,4705.37,1
0,104,target,"[(1077, 821)]",[],[1],[0.26666666666666666],horizontal,"(390.0, 262.0)",1.4166666666666667,0.237,1,4710.538,1
0,105,target,"[(1030, 862)]",[],[1],[0.5833333333333334],vertical,"(890.0, 262.0)",1.1333333333333333,0.55,1,4716.005,2
0,106,target,"[(1057, 839)]",[],[1],[0.85],horizontal,"(890.0, 762.0)",0.7166666666666667,nan,0,4721.465,0
0,107,target,"[(1021, 824)]",[],[1],[0.75],horizontal,"(390.0, 262.0)",1.4,0.704,1,4726.107,1
0,108,target,"[(1077, 812)]",[],[1],[0.5166666666666666],horizontal,"(390.0, 262.0)",1.5,0.483,1,4731.841,1
0,109,target,"[(1081, 812)]",[],[1],[0.85],vertical,"(390.0, 762.0)",0.6333333333333333,nan,0,4736.873,0
0,110,target,"[(1030, 825)]",[],[1],[0.55],horizontal,"(890.0, 762.0)",1.1333333333333333,0.507,1,4741.138,1
0,111,target,"[(1099, 823)]",[],[1],[0.5166666666666666],horizontal,"(890.0, 762.0)",1.3333333333333333,0.477,1,4746.805,1
0,112,target,"[(1049, 812)]",[],[1],[0.5333333333333333],horizontal,"(390.0, 262.0)",0.9333333333333333,0.497,1,4752.407,1
0,113,target,"[(1100, 827)]",[],[1],[0.5666666666666667],vertical,"(890.0, 762.0)",0.5,0.528,1,4757.69,2
0,114,target,"[(1079, 832)]",[],[1],[0.26666666666666666],vertical,"(390.0, 262.0)",1.35,0.231,1,4762.719,1
0,115,target,"[(1025, 817)]",[],[1],[0.6333333333333333],vertical,"(390.0, 762.0)",0.5,0.588,1,4768.222,1
0,116,target,"[(1053, 820)]",[],[1],[0.5666666666666667],vertical,"(390.0, 262.0)",1.05,0.528,1,4773.041,1
0,117,target,"[(1049, 849)]",[],[1],[0.5333333333333333],horizontal,"(890.0, 762.0)",0.7833333333333333,0.49,1,4778.211,2
0,118,target,"[(1020, 826)]",[],[1],[0.5333333333333333],horizontal,"(390.0, 762.0)",0.85,0.495,1,4783.873,1
0,119,target,"[(1072, 810)]",[],[1],[0.5166666666666666],horizontal,"(890.0, 762.0)",0.9,0.478,1,4788.872,1
0,120,target,"[(1058, 815)]",[],[1],[0.5333333333333333],horizontal,"(390.0, 262.0)",1.1,0.495,1,4794.173,1
0,121,target,"[(1057, 827)]",[],[1],[0.85],horizontal,"(890.0, 262.0)",0.6333333333333333,nan,0,4799.507,0
0,122,target,"[(1017, 836)]",[],[1],[],horizontal,"(390.0, 262.0)",,"('cti', 1.576)",0,4804.072,0
0,123,target,"[(1013, 832)]",[],[1],[0.5666666666666667],horizontal,"(890.0, 762.0)",0.5833333333333334,0.528,1,4810.239,1
0,124,target,"[(1015, 822)]",[],[1],[0.48333333333333334],vertical,"(890.0, 762.0)",1.55,0.444,1,4814.723,1
0,125,catch,"[(1061, 821)]",[],[1],[],vertical,"(390.0, 762.0)",1.25,nan,1,4820.262,1
0,126,target,"[(1063, 843)]",[],[1],[0.55],vertical,"(390.0, 262.0)",1.1166666666666667,0.518,1,4825.289,2
0,127,target,"[(1022, 889)]",[],[1],[0.85],horizontal,"(890.0, 262.0)",1.0666666666666667,nan,0,4830.554,0
0,128,target,"[(1028, 845)]",[],[1],[0.85],horizontal,"(890.0, 262.0)",1.2833333333333332,nan,0,4835.291,0
0,129,target,"[(1036, 859)]",[],[1],[0.85],vertical,"(390.0, 762.0)",1.4666666666666666,nan,0,4840.892,0
0,130,target,"[(1010, 828)]",[],[1],[0.5333333333333333],vertical,"(390.0, 762.0)",0.8,0.489,1,4846.52,1
0,131,target,"[(1095, 795)]",[],[1],[],vertical,"(390.0, 262.0)",,"('cti', 1.351)",0,4852.156,0
0,132,catch,"[(1025, 884)]",[],[1],[],vertical,"(390.0, 262.0)",1.2333333333333334,nan,1,4856.69,1
0,133,target,"[(1010, 887)]",[],[1],[0.6166666666666667],vertical,"(890.0, 262.0)",1.1,0.576,1,5287.443,1
0,134,target,"[(1061, 843)]",[],[1],[0.5166666666666666],horizontal,"(390.0, 262.0)",0.5666666666666667,0.479,1,5292.972,1
0,135,target,"[(1077, 822)]",[],[1],[0.21666666666666667],vertical,"(890.0, 262.0)",1.6333333333333333,0.184,1,5297.826,2
0,136,target,"[(1007, 884)]",[],[1],[0.7833333333333333],vertical,"(890.0, 762.0)",0.7166666666666667,0.738,1,5303.692,1
0,137,target,"[(1010, 828)]",[],[1],[0.4166666666666667],vertical,"(390.0, 262.0)",1.1166666666666667,0.376,1,5309.025,1
0,138,target,"[(1077, 818)]",[],[1],[0.5],horizontal,"(390.0, 262.0)",0.6333333333333333,0.461,1,5314.239,1
0,139,target,"[(1077, 811)]",[],[1],[0.65],vertical,"(390.0, 762.0)",0.7166666666666667,0.609,1,5319.195,2
0,140,target,"[(1072, 803)]",[],[1],[0.5333333333333333],vertical,"(890.0, 762.0)",1.05,0.493,1,5324.373,1
0,141,target,"[(1012, 814)]",[],[1],[0.5833333333333334],vertical,"(890.0, 762.0)",0.7,0.541,1,5329.154,1
0,142,target,"[(1012, 829)]",[],[1],[0.6833333333333333],horizontal,"(890.0, 762.0)",0.9,0.641,1,5334.212,1
0,143,target,"[(1020, 822)]",[],[1],[0.5],horizontal,"(890.0, 762.0)",0.5833333333333334,0.457,1,5339.21,2
0,144,target,"[(1010, 815)]",[],[1],[0.85],vertical,"(390.0, 762.0)",0.8333333333333334,nan,0,5344.753,0
0,145,target,"[(1010, 842)]",[],[1],[0.7666666666666666],vertical,"(390.0, 262.0)",0.65,0.721,1,5349.242,1
0,146,target,"[(1073, 821)]",[],[1],[0.85],horizontal,"(890.0, 762.0)",1.1,nan,0,5354.592,0
0,147,target,"[(1010, 813)]",[],[1],[0.4666666666666667],horizontal,"(890.0, 262.0)",1.1833333333333333,0.424,1,5359.217,1
0,148,target,"[(1057, 825)]",[],[1],[0.55],horizontal,"(890.0, 262.0)",0.8166666666666667,0.512,1,5365.116,1
0,149,target,"[(1072, 814)]",[],[1],[0.45],vertical,"(390.0, 262.0)",1.2333333333333334,0.422,1,5370.158,1
0,150,target,"[(1072, 841)]",[],[1],[0.8],vertical,"(890.0, 762.0)",0.95,0.752,1,5375.308,2
0,151,target,"[(1080, 802)]",[],[1],[0.6],vertical,"(890.0, 762.0)",0.9333333333333333,0.551,1,5380.513,1
0,152,target,"[(1072, 811)]",[],[1],[0.5333333333333333],vertical,"(890.0, 762.0)",1.0333333333333332,0.493,1,5385.743,1
0,153,target,"[(1072, 829)]",[],[1],[0.5666666666666667],vertical,"(890.0, 762.0)",0.9166666666666666,0.529,1,5390.625,1
0,154,target,"[(1065, 819)]",[],[1],[0.1],vertical,"(890.0, 262.0)",1.6,0.069,0,5395.335,0
0,155,target,"[(1033, 816)]",[],[1],[0.18333333333333332],vertical,"(390.0, 762.0)",1.45,0.149,1,5400.141,1
0,156,catch,"[(1072, 805)]",[],[1],[],vertical,"(890.0, 262.0)",1.15,nan,1,5405.543,1
0,157,target,"[(1012, 821)]",[],[1],[0.55],horizontal,"(390.0, 262.0)",0.6833333333333333,0.51,1,5410.042,1
0,158,catch,"[(1013, 809)]",[],[1],[],horizontal,"(390.0, 262.0)",1.2,nan,1,5414.658,2
0,159,target,"[(1010, 813)]",[],[1],[0.85],horizontal,"(390.0, 762.0)",0.55,nan,0,5420.068,0
0,160,target,"[(1037, 817)]",[],[1],[0.85],vertical,"(390.0, 762.0)",1.6,"('cti', 1.584),nan",0,5424.377,0
0,161,target,"[(1010, 826)]",[],[1],[0.5],horizontal,"(890.0, 262.0)",0.65,0.459,1,5430.238,1
0,162,target,"[(1058, 827)]",[],[1],[0.85],vertical,"(390.0, 762.0)",0.8,nan,0,5435.142,0
0,163,target,"[(1017, 844)]",[],[1],[0.5166666666666666],horizontal,"(890.0, 262.0)",0.6,0.474,1,5439.961,1
0,164,catch,"[(1017, 832)]",[],[1],[],horizontal,"(390.0, 762.0)",1.0166666666666666,nan,1,5446.611,1
0,165,target,"[(1074, 825)]",[],[1],[0.85],vertical,"(890.0, 262.0)",0.6833333333333333,nan,0,5451.667,0
0,166,target,"[(1013, 841)]",[],[1],[0.5333333333333333],vertical,"(890.0, 762.0)",1.45,0.492,1,5456.494,1
0,167,target,"[(1017, 822)]",[],[1],[0.43333333333333335],vertical,"(890.0, 762.0)",1.6,0.399,1,5462.093,1
0,168,target,"[(1020, 807)]",[],[1],[0.5],vertical,"(890.0, 262.0)",1.25,0.467,1,5467.32,1
0,169,target,"[(1028, 827)]",[],[1],[0.5833333333333334],vertical,"(390.0, 762.0)",0.6166666666666667,0.541,1,5472.687,2
0,170,target,"[(1020, 797)]",[],[1],[0.55],vertical,"(390.0, 762.0)",1.15,0.51,1,5478.41,1
0,171,target,"[(1072, 818)]",[],[1],[0.55],vertical,"(890.0, 262.0)",0.8666666666666667,0.509,1,5483.427,1
0,172,target,"[(1047, 811)]",[],[1],[0.48333333333333334],horizontal,"(890.0, 262.0)",1.55,0.441,1,5488.743,1
0,173,target,"[(1017, 825)]",[],[1],[0.48333333333333334],horizontal,"(890.0, 262.0)",1.0166666666666666,0.444,1,5494.117,2
0,174,target,"[(1074, 810)]",[],[1],[0.85],horizontal,"(390.0, 262.0)",0.9666666666666667,nan,0,5499.235,0
0,175,target,"[(1065, 819)]",[],[1],[0.5333333333333333],horizontal,"(890.0, 762.0)",0.95,0.489,1,5504.01,1
0,176,target,"[(1053, 809)]",[],[1],[0.5666666666666667],horizontal,"(390.0, 762.0)",1.35,0.523,1,5508.837,1
0,177,target,"[(1017, 863)]",[],[1],[0.6],horizontal,"(390.0, 262.0)",0.85,0.555,1,5513.754,1
0,178,target,"[(1036, 829)]",[],[1],[0.23333333333333334],horizontal,"(390.0, 762.0)",1.4666666666666666,0.2,1,5533.26,2
0,179,target,"[(1063, 817)]",[],[1],[0.5166666666666666],vertical,"(390.0, 262.0)",0.5,0.473,1,5538.543,1
0,180,target,"[(1068, 807)]",[],[1],[0.6],vertical,"(890.0, 762.0)",0.7,0.563,1,5543.244,1
0,181,target,"[(1016, 823)]",[],[1],[0.55],horizontal,"(890.0, 262.0)",0.8333333333333334,0.507,1,5548.111,1
0,182,target,"[(1042, 806)]",[],[1],[0.6333333333333333],horizontal,"(890.0, 262.0)",0.8166666666666667,0.597,1,5552.793,2
0,183,target,"[(1017, 799)]",[],[1],[0.6833333333333333],horizontal,"(890.0, 262.0)",0.5833333333333334,0.633,1,5558.393,1
0,184,target,"[(1076, 812)]",[],[1],[0.5166666666666666],horizontal,"(890.0, 762.0)",1.3166666666666667,0.483,1,5563.194,1
0,185,catch,"[(1079, 817)]",[],[1],[],horizontal,"(890.0, 262.0)",1.3166666666666667,nan,1,5568.844,1
0,186,target,"[(1069, 816)]",[],[1],[0.5166666666666666],horizontal,"(890.0, 762.0)",0.8166666666666667,0.48,1,5573.828,2
0,187,target,"[(1069, 830)]",[],[1],[0.7833333333333333],horizontal,"(390.0, 762.0)",0.9666666666666667,0.741,1,5579.421,1
0,188,target,"[(1071, 837)]",[],[1],[0.85],vertical,"(390.0, 262.0)",0.95,nan,0,5584.943,0
0,189,target,"[(1068, 816)]",[],[1],[0.5666666666666667],horizontal,"(890.0, 762.0)",1.1666666666666667,0.526,1,5589.637,1
0,190,target,"[(1069, 812)]",[],[1],[0.85],horizontal,"(390.0, 762.0)",0.5666666666666667,nan,0,5594.896,0
0,191,target,"[(1068, 819)]",[],[1],[0.6],horizontal,"(390.0, 262.0)",1.3833333333333333,0.557,1,5599.695,1
0,192,target,"[(1068, 821)]",[],[1],[0.5166666666666666],horizontal,"(890.0, 762.0)",0.6833333333333333,0.472,1,5605.11,1
0,193,target,"[(1072, 821)]",[],[1],[0.55],vertical,"(390.0, 262.0)",1.0,0.505,1,5609.661,1
0,194,target,"[(1032, 815)]",[],[1],[0.85],vertical,"(890.0, 262.0)",1.3833333333333333,nan,0,5614.744,0
0,195,target,"[(1025, 845)]",[],[1],[0.65],horizontal,"(890.0, 762.0)",1.5,0.603,1,5620.127,1
0,196,target,"[(1069, 827)]",[],[1],[0.5333333333333333],horizontal,"(390.0, 262.0)",1.45,0.491,1,5630.66,1
0,197,target,"[(1067, 807)]",[],[1],[0.5],horizontal,"(890.0, 262.0)",1.1666666666666667,0.464,1,5636.253,1
0,198,target,"[(1068, 813)]",[],[1],[0.85],vertical,"(390.0, 262.0)",0.75,nan,0,5641.332,0
0,199,target,"[(1020, 828)]",[],[1],[0.6166666666666667],vertical,"(390.0, 762.0)",1.2666666666666666,0.57,1,5646.205,1
0,200,target,"[(1058, 820)]",[],[1],[0.5333333333333333],horizontal,"(390.0, 762.0)",0.6,0.495,1,5651.877,1
0,201,target,"[(1069, 872)]",[],[1],[0.3833333333333333],vertical,"(390.0, 262.0)",1.3333333333333333,0.343,1,5656.657,1
0,202,target,"[(1068, 810)]",[],[1],[0.75],vertical,"(890.0, 262.0)",0.8333333333333334,0.705,1,5662.195,2
0,203,target,"[(1068, 810)]",[],[1],[0.5],horizontal,"(390.0, 762.0)",1.5333333333333332,0.459,1,5667.595,1
0,204,target,"[(1029, 834)]",[],[1],[0.6166666666666667],vertical,"(390.0, 262.0)",0.7666666666666666,0.575,1,5672.682,1
0,205,target,"[(1020, 876)]",[],[1],[0.6],horizontal,"(390.0, 262.0)",0.6833333333333333,0.561,1,5677.389,1
0,206,catch,"[(1021, 814)]",[],[1],[],vertical,"(390.0, 262.0)",,"('cti', 1.447),nan",0,5683.677,0
0,207,target,"[(1022, 856)]",[],[1],[0.45],vertical,"(390.0, 262.0)",1.4,0.417,1,5688.241,1
0,208,target,"[(1021, 845)]",[],[1],[0.6166666666666667],horizontal,"(890.0, 262.0)",1.3,0.573,1,5744.844,1
0,209,target,"[(1020, 849)]",[],[1],[0.7],horizontal,"(890.0, 262.0)",1.0,0.655,1,5750.477,1
0,210,target,"[(1061, 809)]",[],[1],[0.6166666666666667],vertical,"(890.0, 262.0)",0.6333333333333333,0.575,1,5755.67,2
0,211,target,"[(1065, 830)]",[],[1],[0.5],vertical,"(390.0, 762.0)",1.2166666666666666,0.463,1,5761.119,1
0,212,target,"[(1065, 833)]",[],[1],[0.85],vertical,"(390.0, 762.0)",0.7833333333333333,nan,0,5766.091,0
0,213,target,"[(1068, 835)]",[],[1],[0.6166666666666667],horizontal,"(890.0, 262.0)",1.05,0.579,1,5770.505,1
0,214,target,"[(1018, 838)]",[],[1],[0.48333333333333334],vertical,"(890.0, 262.0)",1.5833333333333333,0.448,1,5776.195,1
0,215,target,"[(1065, 815)]",[],[1],[0.6166666666666667],horizontal,"(890.0, 762.0)",1.0333333333333332,0.577,1,5781.998,1
0,216,target,"[(1072, 812)]",[],[1],[0.23333333333333334],horizontal,"(890.0, 262.0)",1.5833333333333333,0.194,1,5787.207,2
0,217,target,"[(1075, 818)]",[],[1],[0.5333333333333333],vertical,"(890.0, 262.0)",1.1333333333333333,0.492,1,5792.845,1
0,218,target,"[(1065, 799)]",[],[1],[0.55],vertical,"(390.0, 762.0)",0.85,0.507,1,5798.125,1
0,219,target,"[(1065, 812)]",[],[1],[0.5],horizontal,"(890.0, 262.0)",1.3666666666666667,0.462,1,5803.045,1
0,220,target,"[(1013, 828)]",[],[1],[0.5666666666666667],horizontal,"(390.0, 262.0)",1.2,0.523,1,5808.728,2
0,221,target,"[(1068, 808)]",[],[1],[0.45],horizontal,"(390.0, 262.0)",1.45,0.409,1,5814.095,1
0,222,target,"[(1068, 822)]",[],[1],[0.5666666666666667],vertical,"(390.0, 262.0)",0.9833333333333333,0.525,1,5819.663,1
0,223,target,"[(1061, 847)]",[],[1],[0.5333333333333333],horizontal,"(890.0, 762.0)",1.3833333333333333,0.497,1,5824.646,1
0,224,target,"[(1068, 817)]",[],[1],[0.5333333333333333],vertical,"(390.0, 262.0)",1.2333333333333334,0.494,1,5830.456,2
0,225,target,"[(1068, 837)]",[],[1],[0.4166666666666667],vertical,"(390.0, 762.0)",1.4333333333333333,0.379,1,5835.991,1
0,226,target,"[(1070, 792)]",[],[1],[0.8333333333333334],vertical,"(390.0, 262.0)",0.7166666666666667,0.786,1,5841.662,1
0,227,target,"[(1071, 834)]",[],[1],[0.4666666666666667],vertical,"(890.0, 262.0)",1.5333333333333332,0.426,1,5846.662,1
0,228,target,"[(1019, 811)]",[],[1],[0.5],vertical,"(890.0, 762.0)",1.2166666666666666,0.464,1,5852.416,2
0,229,target,"[(1049, 825)]",[],[1],[0.7],vertical,"(390.0, 262.0)",1.3833333333333333,0.659,1,5858.263,1
0,230,target,"[(1065, 823)]",[],[1],[0.5333333333333333],horizontal,"(390.0, 262.0)",1.5166666666666666,0.492,1,5864.163,1
0,231,target,"[(1065, 824)]",[],[1],[0.5666666666666667],horizontal,"(890.0, 762.0)",1.4833333333333334,0.525,1,5869.862,1
0,232,catch,"[(1015, 812)]",[],[1],[],horizontal,"(890.0, 262.0)",1.4666666666666666,nan,1,5875.311,2
0,233,target,"[(1069, 831)]",[],[1],[0.6666666666666666],vertical,"(390.0, 762.0)",0.5166666666666666,0.625,1,5881.018,1
0,234,target,"[(1068, 830)]",[],[1],[0.5166666666666666],horizontal,"(390.0, 262.0)",1.5166666666666666,0.482,1,5886.175,1
0,235,target,"[(1054, 836)]",[],[1],[0.5],vertical,"(890.0, 262.0)",0.6166666666666667,0.461,1,5891.764,1
0,236,target,"[(1067, 836)]",[],[1],[0.5833333333333334],horizontal,"(890.0, 762.0)",1.5,0.537,1,5896.889,2
0,237,target,"[(1072, 815)]",[],[1],"[0.85, 0.85]",horizontal,"(890.0, 762.0)",0.9833333333333333,"0.805,nan",0,5903.444,0
0,238,target,"[(1072, 799)]",[],[1],[0.5166666666666666],vertical,"(890.0, 262.0)",0.6666666666666666,0.475,1,5908.371,1
0,239,target,"[(1072, 827)]",[],[1],[0.7666666666666666],vertical,"(390.0, 762.0)",1.5,0.725,1,5912.968,1
0,240,target,"[(1044, 825)]",[],[1],[0.7833333333333333],horizontal,"(890.0, 762.0)",1.1166666666666667,0.736,1,5918.89,1
0,241,target,"[(1068, 825)]",[],[1],[0.5666666666666667],vertical,"(390.0, 762.0)",0.5,0.526,1,5924.294,2
0,242,target,"[(1041, 857)]",[],[1],[0.6166666666666667],horizontal,"(890.0, 262.0)",0.7166666666666667,0.578,1,5929.444,1
0,243,target,"[(1021, 839)]",[],[1],[0.5],horizontal,"(890.0, 262.0)",1.55,0.459,1,5938.145,1
0,244,target,"[(1065, 811)]",[],[1],[0.5833333333333334],vertical,"(390.0, 262.0)",1.0833333333333333,0.548,1,5943.677,1
0,245,target,"[(1068, 816)]",[],[1],[0.5166666666666666],horizontal,"(390.0, 262.0)",1.4166666666666667,0.477,1,5948.78,2
0,246,target,"[(1072, 790)]",[],[1],[0.5166666666666666],horizontal,"(890.0, 262.0)",0.9166666666666666,0.477,1,5954.79,1
0,247,catch,"[(1068, 846)]",[],[1],[],vertical,"(890.0, 262.0)",1.1,nan,1,5959.48,1
0,248,target,"[(1068, 820)]",[],[1],[0.85],vertical,"(890.0, 262.0)",0.75,nan,0,5964.43,0
0,249,target,"[(1068, 817)]",[],[1],[0.5666666666666667],horizontal,"(890.0, 262.0)",0.7833333333333333,0.525,1,5969.33,1
0,250,target,"[(1068, 825)]",[],[1],[0.5],vertical,"(890.0, 762.0)",1.3666666666666667,0.457,1,5974.601,1
0,251,target,"[(1049, 828)]",[],[1],[0.55],vertical,"(390.0, 762.0)",1.45,0.511,1,5980.112,1
0,252,target,"[(1061, 812)]",[],[1],[0.85],horizontal,"(890.0, 762.0)",0.5,nan,0,5985.885,0
0,253,target,"[(1071, 857)]",[],[1],[0.5833333333333334],vertical,"(890.0, 762.0)",0.6,0.544,1,5990.28,1
0,254,catch,"[(1017, 837)]",[],[1],[],vertical,"(890.0, 762.0)",1.4333333333333333,nan,1,5995.338,1
0,255,catch,"[(1071, 840)]",[],[1],[],vertical,"(890.0, 762.0)",1.3333333333333333,nan,1,6000.862,1
0,256,target,"[(1017, 835)]",[],[1],[0.5],horizontal,"(890.0, 262.0)",1.2166666666666666,0.46,1,6005.563,2
0,257,target,"[(1068, 810)]",[],[1],[0.85],horizontal,"(890.0, 262.0)",1.6666666666666667,nan,0,6011.368,0
0,258,target,"[(1068, 853)]",[],[1],[0.48333333333333334],vertical,"(390.0, 262.0)",1.4166666666666667,0.445,1,6016.546,1
0,259,target,"[(1068, 825)]",[],[1],[0.6166666666666667],vertical,"(890.0, 262.0)",0.9,0.577,1,6023.34,1
0,260,target,"[(1069, 837)]",[],[1],[0.5666666666666667],vertical,"(890.0, 762.0)",1.2666666666666666,0.525,1,6028.688,1
0,261,target,"[(1072, 814)]",[],[1],[0.48333333333333334],horizontal,"(890.0, 262.0)",1.5833333333333333,0.441,1,6034.116,2
0,262,target,"[(1069, 809)]",[],[1],[0.55],vertical,"(890.0, 762.0)",1.1333333333333333,0.51,1,6039.897,1
0,263,target,"[(1069, 835)]",[],[1],[0.6],vertical,"(890.0, 262.0)",0.95,0.557,1,6045.279,1
0,264,target,"[(1068, 816)]",[],[1],[0.8],horizontal,"(890.0, 762.0)",0.95,0.754,1,6050.136,1
0,265,target,"[(1071, 827)]",[],[1],[0.6166666666666667],horizontal,"(390.0, 262.0)",1.2333333333333334,0.577,1,6055.697,2
0,266,target,"[(1068, 811)]",[],[1],[0.6333333333333333],horizontal,"(890.0, 762.0)",1.4166666666666667,0.593,1,6061.455,1
0,267,target,"[(1070, 824)]",[],[1],[0.48333333333333334],vertical,"(390.0, 762.0)",1.35,0.449,1,6067.063,1
0,268,target,"[(1068, 832)]",[],[1],[0.55],vertical,"(890.0, 762.0)",0.5,0.507,1,6072.914,1
0,269,target,"[(1069, 821)]",[],[1],[0.5166666666666666],vertical,"(890.0, 762.0)",1.5833333333333333,0.475,1,6077.263,2
0,270,target,"[(1068, 804)]",[],[1],[0.85],vertical,"(890.0, 262.0)",1.0666666666666667,nan,0,6083.29,0
0,271,target,"[(1038, 831)]",[],[1],[0.55],horizontal,"(390.0, 262.0)",0.9833333333333333,0.519,1,6088.048,1
0,272,target,"[(1067, 828)]",[],[1],[0.48333333333333334],vertical,"(390.0, 762.0)",1.6166666666666667,0.445,1,6093.247,1
0,273,target,"[(1041, 811)]",[],[1],[0.7],horizontal,"(390.0, 262.0)",1.4666666666666666,0.668,1,6099.559,1
0,274,target,"[(1024, 822)]",[],[1],[0.85],horizontal,"(390.0, 262.0)",0.6333333333333333,nan,0,6105.083,0
0,275,target,"[(1049, 816)]",[],[1],[0.85],vertical,"(390.0, 762.0)",1.2666666666666666,nan,0,6109.614,0
0,276,target,"[(1071, 825)]",[],[1],[0.65],horizontal,"(890.0, 262.0)",1.5333333333333332,0.611,1,6115.162,1
0,277,target,"[(1069, 809)]",[],[1],[0.5166666666666666],vertical,"(890.0, 762.0)",1.5833333333333333,0.476,1,6120.898,1
0,278,target,"[(1068, 820)]",[],[1],[0.5666666666666667],horizontal,"(890.0, 262.0)",1.2833333333333332,0.525,1,6126.163,1
0,279,target,"[(1024, 819)]",[],[1],[0.5833333333333334],horizontal,"(890.0, 762.0)",1.1166666666666667,0.539,1,6131.439,2
0,280,target,"[(1017, 821)]",[],[1],[0.6],horizontal,"(390.0, 762.0)",1.55,0.563,1,6137.265,1
0,281,target,"[(1068, 828)]",[],[1],[0.6],horizontal,"(890.0, 262.0)",1.1833333333333333,0.56,1,6142.796,1
0,282,target,"[(1063, 811)]",[],[1],[0.6166666666666667],vertical,"(890.0, 762.0)",0.5666666666666667,0.581,1,6148.381,1
0,283,target,"[(1068, 808)]",[],[1],[0.5833333333333334],vertical,"(890.0, 262.0)",1.1,0.538,1,6153.262,2
0,284,target,"[(1069, 817)]",[],[1],[0.85],horizontal,"(890.0, 762.0)",1.0,nan,0,6159.113,0
0,285,target,"[(1031, 809)]",[],[1],[0.6],vertical,"(390.0, 262.0)",0.6,0.564,1,6164.197,1
0,286,target,"[(1068, 812)]",[],[1],[0.5833333333333334],horizontal,"(890.0, 262.0)",0.7666666666666666,0.541,1,6168.729,1
0,287,target,"[(1069, 811)]",[],[1],[0.85],vertical,"(390.0, 762.0)",1.0166666666666666,nan,0,6173.314,0
0,288,target,"[(1066, 831)]",[],[1],[0.7666666666666666],vertical,"(890.0, 262.0)",1.2666666666666666,0.726,1,6178.547,1
0,289,catch,"[(1072, 821)]",[],[1],[],vertical,"(390.0, 762.0)",1.3666666666666667,nan,1,6184.585,1
0,290,target,"[(1071, 821)]",[],[1],[0.5333333333333333],horizontal,"(890.0, 762.0)",0.7666666666666666,0.501,1,6189.747,1
0,291,target,"[(1072, 799)]",[],[1],[0.5666666666666667],horizontal,"(390.0, 262.0)",1.6333333333333333,0.521,1,6194.476,2
0,292,target,"[(1029, 835)]",[],[1],[0.55],vertical,"(890.0, 262.0)",0.6,0.517,1,6200.45,1
0,293,target,"[(1057, 840)]",[],[1],[0.65],horizontal,"(890.0, 762.0)",1.6833333333333333,0.613,1,6205.308,1
0,294,target,"[(1041, 833)]",[],[1],[0.85],horizontal,"(390.0, 762.0)",0.85,nan,0,6211.222,0
0,295,target,"[(1014, 839)]",[],[1],[0.85],horizontal,"(390.0, 262.0)",1.5833333333333333,nan,0,6216.497,0
0,296,catch,"[(1036, 829)]",[],[1],[],horizontal,"(890.0, 262.0)",1.25,nan,1,6222.181,1
0,297,target,"[(1065, 833)]",[],[1],[0.6],vertical,"(890.0, 762.0)",1.15,0.563,1,6227.371,1
0,298,catch,"[(1021, 821)]",[],[1],[],horizontal,"(890.0, 762.0)",1.45,nan,1,6232.581,1
0,299,target,"[(1072, 819)]",[],[1],[0.6],horizontal,"(890.0, 262.0)",0.5166666666666666,0.569,1,6237.814,2
0,300,target,"[(1072, 817)]",[],[1],[0.55],horizontal,"(890.0, 762.0)",1.2833333333333332,0.505,1,6242.813,1
0,301,target,"[(1065, 813)]",[],[1],[0.55],vertical,"(890.0, 762.0)",0.5166666666666666,0.512,1,6247.9,1
0,302,target,"[(1072, 819)]",[],[1],[0.5666666666666667],horizontal,"(890.0, 262.0)",1.1166666666666667,0.524,1,6252.547,1
0,303,catch,"[(1072, 813)]",[],[1],[],horizontal,"(890.0, 262.0)",1.5666666666666667,nan,1,6257.45,2
0,304,target,"[(1068, 805)]",[],[1],[0.5],vertical,"(890.0, 762.0)",0.8166666666666667,0.458,1,6263.198,1
0,305,target,"[(1021, 849)]",[],[1],[0.48333333333333334],vertical,"(390.0, 262.0)",0.8333333333333334,0.443,1,6267.663,1
0,306,catch,"[(1037, 820)]",[],[1],[],horizontal,"(890.0, 262.0)",1.0666666666666667,nan,1,6274.109,1
0,307,target,"[(1072, 812)]",[],[1],[0.5666666666666667],horizontal,"(390.0, 762.0)",1.05,0.524,1,6278.464,2
0,308,target,"[(1074, 808)]",[],[1],[0.85],horizontal,"(390.0, 762.0)",0.5333333333333333,nan,0,6283.649,0
0,309,target,"[(1029, 819)]",[],[1],[0.55],horizontal,"(890.0, 262.0)",0.7166666666666667,0.51,1,6287.806,1
0,310,target,"[(1072, 816)]",[],[1],[0.6833333333333333],vertical,"(390.0, 762.0)",1.6166666666666667,0.637,1,6292.496,1
0,311,target,"[(1072, 822)]",[],[1],[0.5666666666666667],horizontal,"(390.0, 262.0)",1.1666666666666667,0.524,1,6298.549,1
0,312,target,"[(1041, 853)]",[],[1],[0.6166666666666667],horizontal,"(390.0, 262.0)",1.3333333333333333,0.579,1,6303.619,2
0,313,target,"[(1072, 817)]",[],[1],[0.7],horizontal,"(390.0, 262.0)",1.3166666666666667,0.662,1,6311.399,1
0,314,target,"[(1070, 819)]",[],[1],[0.6166666666666667],horizontal,"(390.0, 762.0)",1.25,0.577,1,6316.964,1
0,315,target,"[(1060, 826)]",[],[1],[0.7333333333333333],vertical,"(390.0, 262.0)",0.6,0.69,1,6322.714,1
0,316,catch,"[(1053, 814)]",[],[1],[],vertical,"(890.0, 762.0)",1.4,nan,1,6327.799,2
0,317,target,"[(1014, 838)]",[],[1],[0.5666666666666667],vertical,"(390.0, 262.0)",0.5666666666666667,0.521,1,6333.033,1
0,318,target,"[(1072, 813)]",[],[1],[0.4],vertical,"(890.0, 262.0)",1.5333333333333332,0.363,1,6337.757,1
0,319,target,"[(1072, 828)]",[],[1],[0.11666666666666667],horizontal,"(390.0, 762.0)",1.3666666666666667,0.086,0,6343.481,0
0,320,target,"[(1068, 816)]",[],[1],[0.85],vertical,"(390.0, 762.0)",0.8333333333333334,nan,0,6348.216,0
0,321,target,"[(1074, 818)]",[],[1],[0.6],horizontal,"(390.0, 762.0)",0.9666666666666667,0.559,1,6352.716,1
0,322,target,"[(1044, 811)]",[],[1],[0.85],horizontal,"(390.0, 762.0)",0.55,nan,0,6358.466,0
0,323,target,"[(1040, 821)]",[],[1],[0.85],horizontal,"(390.0, 762.0)",1.3333333333333333,nan,0,6362.982,0
0,324,target,"[(1058, 820)]",[],[1],[0.55],horizontal,"(890.0, 762.0)",1.4833333333333334,0.511,1,6368.188,1
0,325,target,"[(1068, 814)]",[],[1],[0.8166666666666667],vertical,"(390.0, 762.0)",1.4,0.779,1,6373.849,1
0,326,target,"[(1071, 810)]",[],[1],[0.7833333333333333],vertical,"(390.0, 762.0)",0.6,0.745,1,6379.799,1
0,327,target,"[(1072, 811)]",[],[1],[0.5166666666666666],horizontal,"(890.0, 262.0)",1.3,0.476,1,6384.799,2
0,328,target,"[(1072, 814)]",[],[1],[0.65],horizontal,"(390.0, 762.0)",0.7166666666666667,0.618,1,6390.35,1
0,329,target,"[(1067, 826)]",[],[1],[0.6333333333333333],horizontal,"(890.0, 262.0)",1.0,0.591,1,6395.591,1
0,330,catch,"[(1068, 825)]",[],[1],[],vertical,"(890.0, 262.0)",1.4333333333333333,nan,1,6401.083,1
0,331,target,"[(1070, 812)]",[],[1],[0.55],vertical,"(890.0, 262.0)",0.7666666666666666,0.515,1,6406.21,2
0,332,target,"[(1065, 799)]",[],[1],[0.5666666666666667],horizontal,"(890.0, 762.0)",1.0333333333333332,0.534,1,6411.595,1
0,333,target,"[(1068, 825)]",[],[1],[0.5666666666666667],vertical,"(890.0, 762.0)",0.95,0.52,1,6416.982,1
0,334,target,"[(1037, 812)]",[],[1],[0.3],horizontal,"(390.0, 262.0)",1.5666666666666667,0.266,1,6421.856,1
0,335,target,"[(1034, 824)]",[],[1],[0.55],vertical,"(890.0, 262.0)",1.05,0.508,1,6427.265,2
0,336,target,"[(1061, 843)]",[],[1],[0.5166666666666666],vertical,"(390.0, 762.0)",0.8333333333333334,0.478,1,6432.905,1
0,337,target,"[(1074, 814)]",[],[1],[0.5666666666666667],vertical,"(890.0, 262.0)",0.6666666666666666,0.53,1,6438.091,1
0,338,target,"[(1072, 825)]",[],[1],[0.4666666666666667],horizontal,"(890.0, 762.0)",1.6166666666666667,0.432,1,6442.676,1
0,339,catch,"[(1020, 811)]",[],[1],[],vertical,"(390.0, 762.0)",1.2166666666666666,nan,1,6448.035,2
0,340,target,"[(1072, 818)]",[],[1],[0.85],vertical,"(390.0, 262.0)",0.8,nan,0,6453.548,0
0,341,target,"[(1068, 848)]",[],[1],[0.5666666666666667],horizontal,"(390.0, 762.0)",1.4833333333333334,0.529,1,6458.225,1
0,342,target,"[(1022, 843)]",[],[1],[],horizontal,"(890.0, 762.0)",,"('cti', 1.214)",0,6466.5,0
0,343,target,"[(1072, 820)]",[],[1],[0.6333333333333333],vertical,"(390.0, 262.0)",0.6666666666666666,0.589,1,6472.149,1
0,344,target,"[(1075, 799)]",[],[1],[0.7833333333333333],horizontal,"(390.0, 262.0)",0.95,0.737,1,6477.182,1
0,345,target,"[(1071, 807)]",[],[1],[0.6166666666666667],vertical,"(390.0, 262.0)",0.5166666666666666,0.576,1,6482.634,1
0,346,target,"[(1070, 807)]",[],[1],[0.5166666666666666],horizontal,"(890.0, 262.0)",1.25,0.474,1,6487.121,2
0,347,target,"[(1068, 817)]",[],[1],[0.48333333333333334],vertical,"(890.0, 262.0)",1.5833333333333333,0.442,1,6493.066,1
0,348,target,"[(1044, 816)]",[],[1],[0.85],vertical,"(390.0, 762.0)",1.1666666666666667,nan,0,6498.443,0
0,349,target,"[(1068, 828)]",[],[1],[0.8333333333333334],horizontal,"(890.0, 262.0)",0.5833333333333334,0.788,1,6503.55,1
0,350,target,"[(1072, 813)]",[],[1],[0.6833333333333333],vertical,"(390.0, 262.0)",1.4166666666666667,0.639,1,6508.431,1
0,351,target,"[(1077, 819)]",[],[1],[0.5166666666666666],vertical,"(390.0, 262.0)",1.2666666666666666,0.478,1,6513.731,1
0,352,target,"[(1072, 818)]",[],[1],[0.55],vertical,"(390.0, 762.0)",1.3166666666666667,0.512,1,6519.181,2
0,353,target,"[(1068, 821)]",[],[1],[0.85],vertical,"(890.0, 262.0)",0.7,nan,0,6525.1,0
0,354,target,"[(1053, 821)]",[],[1],[0.65],horizontal,"(390.0, 762.0)",1.4666666666666666,0.605,1,6529.863,1
0,355,target,"[(1070, 819)]",[],[1],[0.7333333333333333],vertical,"(890.0, 262.0)",0.9166666666666666,0.69,1,6535.867,1
0,356,target,"[(1074, 815)]",[],[1],[0.6666666666666666],horizontal,"(890.0, 762.0)",0.8666666666666667,0.622,1,6540.976,1
0,357,target,"[(1070, 820)]",[],[1],[0.21666666666666667],horizontal,"(890.0, 762.0)",1.3833333333333333,0.186,1,6546.331,2
0,358,target,"[(1069, 823)]",[],[1],[0.55],vertical,"(890.0, 762.0)",0.5833333333333334,0.505,1,6552.217,1
0,359,target,"[(1068, 846)]",[],[1],[0.5166666666666666],vertical,"(890.0, 762.0)",0.7166666666666667,0.474,1,6556.95,1
0,360,target,"[(1076, 830)]",[],[1],[0.2833333333333333],vertical,"(890.0, 762.0)",1.4,0.249,1,6561.855,1
0,361,target,"[(1073, 813)]",[],[1],[0.6833333333333333],horizontal,"(390.0, 262.0)",0.5333333333333333,0.643,1,6566.836,2
0,362,target,"[(1072, 822)]",[],[1],[0.5833333333333334],horizontal,"(390.0, 762.0)",1.0166666666666666,0.549,1,6572.4,1
0,363,target,"[(1070, 803)]",[],[1],[0.55],horizontal,"(390.0, 762.0)",1.5166666666666666,0.51,1,6577.235,1
0,364,target,"[(1068, 825)]",[],[1],[0.8166666666666667],vertical,"(390.0, 762.0)",0.95,0.776,1,6583.129,1
0,365,target,"[(1045, 869)]",[],[1],[0.5666666666666667],horizontal,"(390.0, 762.0)",0.75,0.525,1,6588.486,2
0,366,target,"[(1072, 831)]",[],[1],[0.55],vertical,"(890.0, 262.0)",0.9166666666666666,0.507,1,6619.384,1
0,367,target,"[(1075, 816)]",[],[1],[0.43333333333333335],vertical,"(890.0, 762.0)",1.6666666666666667,0.395,1,6624.549,1
0,368,target,"[(1098, 799)]",[],[1],[0.4666666666666667],horizontal,"(390.0, 262.0)",1.6,0.424,1,6630.0,1
0,369,target,"[(1079, 824)]",[],[1],[0.35],vertical,"(390.0, 762.0)",1.6166666666666667,0.309,1,6635.238,2
0,370,target,"[(1077, 818)]",[],[1],[0.55],horizontal,"(890.0, 762.0)",0.75,0.508,1,6641.366,1
0,371,target,"[(1071, 818)]",[],[1],[0.6833333333333333],horizontal,"(890.0, 262.0)",0.55,0.643,1,6646.366,1
0,372,target,"[(1045, 845)]",[],[1],[0.48333333333333334],horizontal,"(890.0, 262.0)",1.4666666666666666,0.442,1,6651.185,1
0,373,target,"[(1056, 823)]",[],[1],[0.65],horizontal,"(890.0, 262.0)",0.7666666666666666,0.608,1,6656.817,2
0,374,target,"[(1016, 833)]",[],[1],[0.65],vertical,"(390.0, 262.0)",1.5,0.604,1,6662.054,1
0,375,target,"[(1013, 876)]",[],[1],[0.3],horizontal,"(890.0, 262.0)",1.2833333333333332,0.27,1,6667.774,1
0,376,target,"[(1025, 847)]",[],[1],[0.55],horizontal,"(890.0, 762.0)",1.1,0.51,1,7033.134,1
0,377,target,"[(1041, 842)]",[],[1],[0.21666666666666667],vertical,"(390.0, 262.0)",1.6166666666666667,0.183,1,7038.396,2
0,378,target,"[(1024, 843)]",[],[1],[0.5833333333333334],horizontal,"(890.0, 262.0)",0.7333333333333333,0.548,1,7044.419,1
0,379,target,"[(1025, 842)]",[],[1],[0.6333333333333333],vertical,"(890.0, 262.0)",0.9166666666666666,0.591,1,7049.273,1
0,380,target,"[(1038, 842)]",[],[1],[0.6333333333333333],vertical,"(390.0, 262.0)",1.1166666666666667,0.59,1,7054.399,1
0,381,target,"[(1010, 839)]",[],[1],[0.85],vertical,"(890.0, 762.0)",1.3666666666666667,nan,0,7059.42,0
0,382,target,"[(1022, 860)]",[],[1],[0.85],horizontal,"(390.0, 262.0)",1.4666666666666666,nan,0,7075.486,0
0,383,catch,"[(1057, 849)]",[],[1],[],horizontal,"(390.0, 262.0)",1.6666666666666667,nan,1,7811.623,1
0,384,catch,"[(1073, 831)]",[],[1],[],vertical,"(390.0, 762.0)",1.5166666666666666,nan,1,7817.107,1
0,385,target,"[(1013, 856)]",[],[1],[0.55],vertical,"(390.0, 762.0)",0.8833333333333333,0.508,1,7822.451,1
0,386,catch,"[(1010, 847)]",[],[1],[],vertical,"(890.0, 262.0)",1.2166666666666666,nan,1,7827.907,2
0,387,catch,"[(1061, 838)]",[],[1],[0.03333333333333333],horizontal,"(390.0, 762.0)",1.65,"0.019,nan",0,7833.641,0
0,388,target,"[(1010, 826)]",[],[1],[0.5166666666666666],horizontal,"(890.0, 262.0)",1.5666666666666667,0.479,1,7838.683,1
0,389,target,"[(1068, 828)]",[],[1],[0.5833333333333334],horizontal,"(890.0, 762.0)",0.85,0.541,1,7844.175,1
0,390,target,"[(1013, 817)]",[],[1],[0.8166666666666667],horizontal,"(390.0, 262.0)",0.8666666666666667,0.776,1,7849.289,1
0,391,target,"[(1078, 812)]",[],[1],[0.48333333333333334],horizontal,"(890.0, 262.0)",0.8333333333333334,0.446,1,7854.827,2
0,392,target,"[(1010, 820)]",[],[1],[0.5],horizontal,"(890.0, 262.0)",1.4166666666666667,0.461,1,7860.04,1
0,393,catch,"[(1072, 812)]",[],[1],[],vertical,"(890.0, 262.0)",1.5666666666666667,nan,1,7865.408,1
0,394,catch,"[(1072, 813)]",[],[1],[],vertical,"(390.0, 762.0)",1.5333333333333332,nan,1,7870.707,1
0,395,target,"[(1006, 850)]",[],[1],[0.85],horizontal,"(390.0, 762.0)",1.65,nan,0,7875.641,0
0,396,target,"[(1012, 850)]",[],[1],[0.6],vertical,"(890.0, 762.0)",1.2166666666666666,0.56,1,7892.058,1
0,397,target,"[(1065, 817)]",[],[1],[0.48333333333333334],horizontal,"(890.0, 262.0)",1.55,0.445,1,7903.656,1
0,398,target,"[(1022, 831)]",[],[1],[0.16666666666666666],vertical,"(890.0, 762.0)",1.25,0.134,1,7909.059,1
0,399,target,"[(1081, 817)]",[],[1],[0.65],vertical,"(390.0, 262.0)",1.0333333333333332,0.611,1,7914.065,2
0,400,target,"[(1072, 821)]",[],[1],[0.6833333333333333],horizontal,"(390.0, 262.0)",0.5166666666666666,0.644,1,7919.377,1
0,401,target,"[(1080, 825)]",[],[1],[0.85],vertical,"(390.0, 762.0)",0.8666666666666667,nan,0,7923.974,0
0,402,target,"[(1071, 819)]",[],[1],[0.85],horizontal,"(390.0, 262.0)",0.6333333333333333,nan,0,7928.284,0
0,403,target,"[(1037, 836)]",[],[1],[0.65],vertical,"(890.0, 762.0)",0.85,0.611,1,7933.207,1
0,404,catch,"[(1037, 822)]",[],[1],[],vertical,"(390.0, 262.0)",1.1666666666666667,nan,1,7938.807,1
0,405,target,"[(1045, 843)]",[],[1],[0.5833333333333334],horizontal,"(890.0, 762.0)",1.0166666666666666,0.542,1,7943.416,1
0,406,catch,"[(1072, 819)]",[],[1],[],vertical,"(890.0, 762.0)",1.2,nan,1,7948.972,2
0,407,target,"[(1072, 800)]",[],[1],[0.5333333333333333],horizontal,"(390.0, 262.0)",1.3166666666666667,0.493,1,7953.988,1
0,408,target,"[(1072, 805)]",[],[1],[0.45],vertical,"(890.0, 762.0)",1.35,0.409,1,7959.233,1
0,409,target,"[(1068, 846)]",[],[1],[0.5333333333333333],vertical,"(890.0, 762.0)",0.8333333333333334,0.491,1,7964.559,1
0,410,catch,"[(1061, 814)]",[],[1],[],horizontal,"(390.0, 262.0)",1.1666666666666667,nan,1,7970.008,2
0,411,target,"[(1080, 810)]",[],[1],[0.4666666666666667],horizontal,"(890.0, 762.0)",1.3166666666666667,0.424,1,7974.89,1
0,412,target,"[(1068, 815)]",[],[1],[0.4666666666666667],vertical,"(890.0, 762.0)",1.3166666666666667,0.423,1,7980.475,1
0,413,catch,"[(1072, 836)]",[],[1],[],horizontal,"(890.0, 262.0)",1.6,nan,1,7985.687,1
0,414,target,"[(1080, 803)]",[],[1],[],horizontal,"(890.0, 762.0)",,"('cti', 1.557)",0,7991.074,0
0,415,catch,"[(1054, 817)]",[],[1],[],vertical,"(890.0, 262.0)",1.6333333333333333,nan,1,7995.923,1
0,416,target,"[(1077, 811)]",[],[1],[0.5666666666666667],horizontal,"(390.0, 262.0)",0.9833333333333333,0.523,1,8000.987,1
0,417,catch,"[(1083, 814)]",[],[1],[],vertical,"(890.0, 762.0)",1.65,nan,1,8006.584,1
0,418,target,"[(1069, 795)]",[],[1],[0.85],vertical,"(890.0, 262.0)",0.8,nan,0,8011.941,0
0,419,target,"[(1029, 810)]",[],[1],[0.5666666666666667],vertical,"(890.0, 262.0)",1.15,0.523,1,8016.451,1
0,420,target,"[(1069, 801)]",[],[1],[0.5166666666666666],horizontal,"(890.0, 262.0)",1.3666666666666667,0.474,1,8021.61,1
0,421,target,"[(1087, 821)]",[],[1],[0.5666666666666667],vertical,"(890.0, 262.0)",1.2666666666666666,0.531,1,8026.859,1
0,422,catch,"[(1068, 814)]",[],[1],[],horizontal,"(890.0, 762.0)",1.3833333333333333,nan,1,8032.991,2
0,423,target,"[(1096, 809)]",[],[1],[0.5833333333333334],vertical,"(890.0, 262.0)",0.5666666666666667,0.538,1,8038.448,1
0,424,target,"[(1065, 820)]",[],[1],[0.5333333333333333],vertical,"(890.0, 762.0)",1.4666666666666666,0.494,1,8043.14,1
0,425,target,"[(1072, 824)]",[],[1],[0.5333333333333333],horizontal,"(390.0, 762.0)",0.75,0.494,1,8049.974,1
0,426,target,"[(1029, 844)]",[],[1],[0.5666666666666667],vertical,"(390.0, 762.0)",1.0833333333333333,0.528,1,8054.941,2
0,427,target,"[(1100, 799)]",[],[1],[0.6166666666666667],horizontal,"(890.0, 762.0)",0.85,0.579,1,8086.35,1
0,428,target,"[(1022, 832)]",[],[1],[0.3833333333333333],horizontal,"(890.0, 762.0)",1.4666666666666666,0.342,1,8091.071,1
0,429,target,"[(1068, 825)]",[],[1],[0.15],vertical,"(390.0, 262.0)",1.5666666666666667,0.117,1,8096.767,1
0,430,target,"[(1065, 816)]",[],[1],[0.43333333333333335],vertical,"(890.0, 262.0)",0.8,0.39,1,8102.358,2
0,431,target,"[(1065, 820)]",[],[1],[0.55],vertical,"(890.0, 262.0)",0.5,0.515,1,8107.791,1
0,432,target,"[(1053, 849)]",[],[1],[0.5],horizontal,"(890.0, 262.0)",0.7166666666666667,0.463,1,8112.508,1
0,433,target,"[(1068, 841)]",[],[1],[0.5],vertical,"(890.0, 262.0)",1.4666666666666666,0.455,1,8117.443,1
0,434,target,"[(1065, 820)]",[],[1],[0.85],horizontal,"(390.0, 762.0)",0.8,nan,0,8122.893,0
0,435,catch,"[(1026, 803)]",[],[1],[],vertical,"(890.0, 262.0)",1.6166666666666667,nan,1,8127.499,1
0,436,target,"[(1022, 826)]",[],[1],[0.85],vertical,"(390.0, 262.0)",1.0,nan,0,8133.197,0
0,437,target,"[(1068, 811)]",[],[1],[0.18333333333333332],vertical,"(890.0, 262.0)",1.6333333333333333,0.148,1,8138.154,1
0,438,catch,"[(1068, 812)]",[],[1],[],horizontal,"(890.0, 762.0)",1.1166666666666667,nan,1,8143.241,1
0,439,target,"[(1069, 823)]",[],[1],[0.7666666666666666],horizontal,"(390.0, 262.0)",0.5166666666666666,0.724,1,8147.858,1
0,440,target,"[(1065, 860)]",[],[1],[0.85],vertical,"(390.0, 262.0)",0.6,nan,0,8152.96,0
0,441,target,"[(1072, 798)]",[],[1],[0.5333333333333333],horizontal,"(390.0, 762.0)",1.3,0.491,1,8160.335,1
0,442,catch,"[(1065, 815)]",[],[1],[],horizontal,"(390.0, 762.0)",1.25,nan,1,8165.588,1
0,443,target,"[(1053, 824)]",[],[1],[0.85],horizontal,"(390.0, 762.0)",0.5,nan,0,8170.646,0
0,444,catch,"[(1065, 807)]",[],[1],[],horizontal,"(890.0, 262.0)",1.6666666666666667,nan,1,8175.011,1
0,445,target,"[(1065, 828)]",[],[1],[0.45],horizontal,"(390.0, 262.0)",1.65,0.414,1,8180.609,1
0,446,target,"[(1065, 818)]",[],[1],[0.65],vertical,"(390.0, 762.0)",1.6,0.611,1,8186.209,1
0,447,target,"[(1065, 846)]",[],[1],[0.7833333333333333],vertical,"(390.0, 762.0)",1.3333333333333333,0.738,1,8191.858,2
0,448,catch,"[(1065, 815)]",[],[1],[],vertical,"(890.0, 762.0)",1.6666666666666667,nan,1,8198.099,1
0,449,target,"[(1068, 805)]",[],[1],[0.5333333333333333],horizontal,"(890.0, 262.0)",1.1333333333333333,0.495,1,8203.008,1
0,450,target,"[(1068, 800)]",[],[1],[0.36666666666666664],vertical,"(890.0, 262.0)",1.3666666666666667,0.33,1,8208.092,1
0,451,target,"[(1080, 798)]",[],[1],[0.6333333333333333],vertical,"(390.0, 262.0)",0.8666666666666667,0.589,1,8213.51,2
0,452,target,"[(1029, 817)]",[],[1],[0.7],vertical,"(890.0, 262.0)",0.55,0.657,1,8218.76,1
0,453,target,"[(1072, 784)]",[],[1],[0.25],vertical,"(390.0, 762.0)",1.5666666666666667,0.217,1,8223.047,1
0,454,target,"[(1068, 827)]",[],[1],[0.5333333333333333],horizontal,"(890.0, 762.0)",1.15,0.491,1,8228.358,1
0,455,target,"[(1033, 870)]",[],[1],[0.2833333333333333],horizontal,"(390.0, 762.0)",1.4166666666666667,0.249,1,8233.459,2
0,456,target,"[(1065, 853)]",[],[1],[0.5],vertical,"(890.0, 262.0)",0.8166666666666667,0.458,1,8239.892,1
0,457,target,"[(1061, 791)]",[],[1],[0.5],horizontal,"(890.0, 262.0)",0.85,0.461,1,8245.778,1
0,458,target,"[(1064, 795)]",[],[1],[0.65],horizontal,"(890.0, 262.0)",1.2,0.609,1,8250.626,1
0,459,target,"[(1061, 796)]",[],[1],[0.5333333333333333],vertical,"(890.0, 762.0)",0.7333333333333333,0.493,1,8256.091,2
0,460,target,"[(1073, 799)]",[],[1],[0.48333333333333334],horizontal,"(890.0, 762.0)",0.8,0.447,1,8261.633,1
0,461,target,"[(1070, 817)]",[],[1],[0.5666666666666667],horizontal,"(390.0, 762.0)",0.8666666666666667,0.521,1,8266.077,1
0,462,catch,"[(1079, 818)]",[],[1],[],vertical,"(390.0, 762.0)",1.5166666666666666,nan,1,8271.042,1
0,463,catch,"[(1029, 824)]",[],[1],[],vertical,"(390.0, 762.0)",1.2,nan,1,8276.077,2
0,464,target,"[(1075, 813)]",[],[1],[0.55],vertical,"(390.0, 262.0)",1.5333333333333332,0.503,1,8281.218,1
0,465,target,"[(1072, 809)]",[],[1],[0.85],horizontal,"(890.0, 262.0)",0.6166666666666667,nan,0,8286.594,0
0,466,target,"[(1063, 804)]",[],[1],[0.6333333333333333],vertical,"(890.0, 262.0)",0.7166666666666667,0.588,1,8291.232,1
0,467,catch,"[(1073, 790)]",[],[1],[],vertical,"(390.0, 262.0)",1.4,nan,1,8296.009,1
0,468,target,"[(1072, 791)]",[],[1],[0.5833333333333334],horizontal,"(890.0, 262.0)",0.7333333333333333,0.541,1,8301.076,1
0,469,target,"[(1069, 798)]",[],[1],[0.5],horizontal,"(890.0, 262.0)",1.1,0.464,1,8305.771,2
0,470,target,"[(1065, 797)]",[],[1],[0.5333333333333333],horizontal,"(390.0, 762.0)",1.1666666666666667,0.505,1,8311.559,1
0,471,target,"[(1070, 844)]",[],[1],[0.7333333333333333],horizontal,"(890.0, 262.0)",0.5833333333333334,0.692,1,8316.221,1
0,472,target,"[(1037, 832)]",[],[1],[0.6333333333333333],vertical,"(390.0, 262.0)",1.3,0.591,1,8321.01,1
0,473,target,"[(1063, 817)]",[],[1],[0.6166666666666667],horizontal,"(390.0, 762.0)",0.7833333333333333,0.575,1,8327.155,2
0,474,target,"[(1072, 801)]",[],[1],[0.45],horizontal,"(890.0, 262.0)",1.5833333333333333,0.412,1,8332.493,1
0,475,target,"[(1041, 825)]",[],[1],[0.55],vertical,"(890.0, 762.0)",0.8,0.507,1,8337.96,1
0,476,target,"[(1026, 825)]",[],[1],[0.16666666666666666],horizontal,"(890.0, 762.0)",1.6833333333333333,0.133,1,8343.025,1
0,477,target,"[(1068, 815)]",[],[1],[0.65],horizontal,"(890.0, 762.0)",0.8166666666666667,0.614,1,8348.414,2
0,478,target,"[(1068, 812)]",[],[1],[0.25],horizontal,"(390.0, 762.0)",1.65,0.218,1,8354.009,1
0,479,target,"[(1068, 830)]",[],[1],[0.55],horizontal,"(390.0, 262.0)",0.7166666666666667,0.508,1,8359.439,1
0,480,target,"[(1070, 797)]",[],[1],[0.45],horizontal,"(890.0, 262.0)",1.1166666666666667,0.413,1,8364.492,1
0,481,target,"[(1068, 829)]",[],[1],[0.6166666666666667],horizontal,"(890.0, 262.0)",0.5666666666666667,0.572,1,8369.576,2
0,482,target,"[(1037, 866)]",[],[1],[0.5166666666666666],horizontal,"(390.0, 262.0)",1.35,0.472,1,8374.839,1
0,483,target,"[(1071, 830)]",[],[1],[0.85],vertical,"(390.0, 762.0)",1.35,nan,0,10008.388,0
0,484,target,"[(1049, 837)]",[],[1],[0.5666666666666667],vertical,"(890.0, 262.0)",0.65,0.524,1,10013.302,1
0,485,target,"[(1071, 813)]",[],[1],[],vertical,"(390.0, 762.0)",,"('cti', 1.475)",0,10018.242,0
0,486,target,"[(1072, 827)]",[],[1],[0.5333333333333333],vertical,"(890.0, 262.0)",1.1166666666666667,0.492,1,10022.826,1
0,487,catch,"[(1073, 807)]",[],[1],[],horizontal,"(390.0, 762.0)",1.1333333333333333,nan,1,10027.818,1
0,488,target,"[(1069, 828)]",[],[1],[0.6166666666666667],horizontal,"(390.0, 762.0)",0.7,0.572,1,10032.569,1
0,489,target,"[(1061, 814)]",[],[1],[0.4166666666666667],vertical,"(390.0, 762.0)",1.3333333333333333,0.376,1,10037.393,2
0,490,target,"[(1068, 813)]",[],[1],[0.6],horizontal,"(890.0, 262.0)",1.0833333333333333,0.56,1,10043.169,1
0,491,target,"[(1068, 807)]",[],[1],[0.5833333333333334],vertical,"(390.0, 262.0)",0.5333333333333333,0.544,1,10048.404,1
0,492,target,"[(1068, 812)]",[],[1],[0.7333333333333333],vertical,"(390.0, 762.0)",0.85,0.687,1,10053.158,1
0,493,target,"[(1005, 871)]",[],[1],[0.11666666666666667],vertical,"(890.0, 762.0)",1.3833333333333333,0.086,0,10058.015,0
0,494,target,"[(1058, 833)]",[],[1],[0.6],vertical,"(890.0, 762.0)",0.95,0.558,1,10063.203,1
0,495,target,"[(1072, 818)]",[],[1],[0.55],vertical,"(890.0, 262.0)",0.8,0.505,1,10068.494,1
0,496,target,"[(1068, 819)]",[],[1],[0.85],vertical,"(890.0, 262.0)",0.5833333333333334,nan,0,10073.471,0
0,497,target,"[(1029, 829)]",[],[1],[0.7166666666666667],vertical,"(390.0, 262.0)",1.0166666666666666,0.67,1,10078.201,1
0,498,target,"[(1072, 806)]",[],[1],[],vertical,"(890.0, 762.0)",,"('cti', 1.155)",0,10083.365,0
0,499,target,"[(1068, 812)]",[],[1],[0.85],vertical,"(390.0, 262.0)",0.8166666666666667,nan,0,10087.686,0
0,500,target,"[(1072, 825)]",[],[1],[0.5833333333333334],horizontal,"(890.0, 262.0)",0.9666666666666667,0.538,1,10092.514,1
0,501,target,"[(1077, 796)]",[],[1],[0.85],horizontal,"(390.0, 762.0)",0.8666666666666667,nan,0,10097.824,0
0,502,target,"[(1075, 811)]",[],[1],[0.6],horizontal,"(890.0, 262.0)",0.85,0.56,1,10102.486,1
0,503,target,"[(1078, 820)]",[],[1],[0.85],horizontal,"(390.0, 762.0)",1.05,nan,0,10107.571,0
0,504,target,"[(1039, 817)]",[],[1],[0.5166666666666666],vertical,"(890.0, 262.0)",1.5833333333333333,0.48,1,10112.171,1
0,505,target,"[(1081, 818)]",[],[1],[0.5666666666666667],horizontal,"(890.0, 262.0)",0.85,0.526,1,10117.652,1
0,506,target,"[(1057, 814)]",[],[1],[0.6166666666666667],horizontal,"(390.0, 262.0)",1.25,0.572,1,10122.603,1
0,507,target,"[(1037, 823)]",[],[1],[0.7166666666666667],horizontal,"(890.0, 262.0)",0.7666666666666666,0.679,1,10127.868,2
0,508,target,"[(1038, 824)]",[],[1],[0.85],horizontal,"(390.0, 262.0)",1.5833333333333333,nan,0,10133.335,0
0,509,target,"[(1068, 811)]",[],[1],[0.85],horizontal,"(390.0, 762.0)",0.8,nan,0,10142.753,0
0,510,target,"[(1033, 817)]",[],[1],[0.85],vertical,"(890.0, 262.0)",1.35,nan,0,10147.337,0
0,511,target,"[(1034, 845)]",[],[1],[0.5833333333333334],horizontal,"(890.0, 762.0)",1.1,0.544,1,10152.97,1
0,512,target,"[(1068, 805)]",[],[1],[0.55],horizontal,"(390.0, 262.0)",0.6333333333333333,0.512,1,10158.554,1
0,513,target,"[(1072, 812)]",[],[1],[0.7666666666666666],horizontal,"(890.0, 262.0)",0.9333333333333333,0.724,1,10163.048,1
0,514,target,"[(1072, 814)]",[],[1],[0.55],vertical,"(390.0, 262.0)",0.8,0.511,1,10168.387,2
0,515,target,"[(1073, 813)]",[],[1],[0.6166666666666667],horizontal,"(890.0, 762.0)",0.6333333333333333,0.573,1,10173.52,1
0,516,target,"[(1017, 819)]",[],[1],[0.8333333333333334],vertical,"(390.0, 262.0)",1.0666666666666667,0.795,1,10177.83,1
0,517,target,"[(1068, 811)]",[],[1],[0.85],vertical,"(390.0, 762.0)",0.6833333333333333,nan,0,10183.42,0
0,518,target,"[(1037, 802)]",[],[1],[0.85],vertical,"(890.0, 262.0)",1.3333333333333333,nan,0,10187.737,0
0,519,target,"[(1047, 831)]",[],[1],[0.85],vertical,"(890.0, 762.0)",0.6666666666666666,nan,0,10192.854,0
0,520,target,"[(1061, 819)]",[],[1],[0.6333333333333333],horizontal,"(890.0, 762.0)",1.0666666666666667,0.589,1,10197.407,1
0,521,target,"[(1065, 802)]",[],[1],[0.85],horizontal,"(390.0, 262.0)",1.65,nan,0,10202.972,0
0,522,catch,"[(1061, 824)]",[],[1],[],vertical,"(390.0, 262.0)",1.5166666666666666,nan,1,10208.202,1
0,523,target,"[(1040, 833)]",[],[1],[0.6166666666666667],horizontal,"(390.0, 262.0)",1.5166666666666666,0.571,1,10213.139,1
0,524,target,"[(1069, 802)]",[],[1],[0.8],vertical,"(890.0, 262.0)",0.6833333333333333,0.753,1,10218.905,1
0,525,target,"[(1069, 798)]",[],[1],[0.7666666666666666],vertical,"(390.0, 262.0)",1.2166666666666666,0.723,1,10224.247,2
0,526,target,"[(1065, 813)]",[],[1],[0.4666666666666667],horizontal,"(890.0, 762.0)",1.4666666666666666,0.427,1,10230.316,1
0,527,target,"[(1080, 813)]",[],[1],[0.48333333333333334],vertical,"(890.0, 262.0)",1.65,0.442,1,10235.653,1
0,528,catch,"[(1072, 820)]",[],[1],[],horizontal,"(390.0, 762.0)",1.15,nan,1,10241.608,1
0,529,target,"[(1068, 805)]",[],[1],[0.5333333333333333],horizontal,"(390.0, 262.0)",1.1833333333333333,0.498,1,10246.238,2
0,530,target,"[(1084, 822)]",[],[1],[0.5666666666666667],horizontal,"(890.0, 762.0)",0.6666666666666666,0.524,1,10251.904,1
0,531,target,"[(1072, 795)]",[],[1],[0.85],vertical,"(890.0, 762.0)",0.55,nan,0,10256.656,0
0,532,target,"[(1025, 839)]",[],[1],[0.7666666666666666],horizontal,"(390.0, 262.0)",0.95,0.719,1,10261.295,1
0,533,target,"[(1021, 846)]",[],[1],[0.5333333333333333],horizontal,"(890.0, 262.0)",0.7166666666666667,0.501,1,10268.355,1
0,534,target,"[(1033, 820)]",[],[1],[0.55],horizontal,"(390.0, 762.0)",0.7666666666666666,0.51,1,10277.366,1
0,535,target,"[(1072, 809)]",[],[1],[0.55],horizontal,"(890.0, 262.0)",1.4166666666666667,0.517,1,10282.266,2
0,536,target,"[(1042, 799)]",[],[1],[0.48333333333333334],vertical,"(890.0, 762.0)",1.4333333333333333,0.451,1,10288.29,1
0,537,target,"[(1078, 793)]",[],[1],[0.5166666666666666],vertical,"(890.0, 762.0)",1.2333333333333334,0.485,1,10293.622,1
0,538,target,"[(1025, 826)]",[],[1],[0.5666666666666667],horizontal,"(890.0, 262.0)",1.2166666666666666,0.523,1,10298.539,1
0,539,target,"[(1030, 796)]",[],[1],[0.4],horizontal,"(890.0, 762.0)",1.6666666666666667,0.361,1,10303.767,2
0,540,target,"[(1074, 813)]",[],[1],[0.5],horizontal,"(890.0, 762.0)",1.1833333333333333,0.47,1,10310.011,1
0,541,target,"[(1017, 827)]",[],[1],[0.65],horizontal,"(890.0, 762.0)",1.25,0.611,1,10315.372,1
0,542,target,"[(1077, 821)]",[],[1],[0.5166666666666666],vertical,"(890.0, 262.0)",1.1666666666666667,0.478,1,10321.471,1
0,543,target,"[(1075, 833)]",[],[1],[0.15],horizontal,"(890.0, 762.0)",1.5,0.117,1,10326.695,2
0,544,target,"[(1011, 852)]",[],[1],[0.5333333333333333],vertical,"(890.0, 262.0)",0.9333333333333333,0.494,1,10332.315,1
0,545,target,"[(1022, 857)]",[],[1],[0.85],vertical,"(890.0, 762.0)",0.75,nan,0,10637.288,0
0,546,target,"[(1068, 856)]",[],[1],[0.5833333333333334],horizontal,"(390.0, 762.0)",0.75,0.541,1,10649.924,1
0,547,catch,"[(1072, 804)]",[],[1],[],vertical,"(890.0, 762.0)",1.1333333333333333,nan,1,10654.841,1
0,548,target,"[(1068, 807)]",[],[1],[0.35],horizontal,"(890.0, 262.0)",1.4333333333333333,0.312,1,10659.741,1
0,549,target,"[(986, 862), (1037, 815)]",[],"[0, 1]",[0.45],horizontal,"(390.0, 262.0)",1.2833333333333332,0.416,1,10664.94,2
0,550,target,"[(1046, 814)]",[],[1],[0.5166666666666666],horizontal,"(390.0, 762.0)",1.3666666666666667,0.478,1,10682.525,1
0,551,target,"[(1075, 802)]",[],[1],[],vertical,"(390.0, 262.0)",,"('cti', 1.488)",0,10687.591,0
0,552,target,"[(1072, 822)]",[],[1],[0.5166666666666666],vertical,"(890.0, 762.0)",1.5833333333333333,0.48,1,10692.474,1
0,553,target,"[(1075, 828)]","[(1017, 864)]",[1],[0.48333333333333334],horizontal,"(890.0, 762.0)",,"('bar', 0.497)",0,10698.241,0
0,554,target,"[(1006, 876)]",[],[1],[0.75],vertical,"(890.0, 762.0)",1.0166666666666666,0.703,1,10701.124,1
0,555,target,"[(1017, 822)]",[],[1],[0.45],vertical,"(890.0, 262.0)",1.3333333333333333,0.409,1,10706.738,1
0,556,catch,"[(1085, 804)]",[],[1],[],vertical,"(390.0, 762.0)",1.25,nan,1,10712.006,1
0,557,target,"[(1077, 816)]",[],[1],[0.7833333333333333],horizontal,"(390.0, 262.0)",1.05,0.732,1,10716.627,2
0,558,target,"[(1079, 808)]","[(1017, 864)]",[1],[0.45],vertical,"(390.0, 262.0)",,"('bar', 0.464)",0,10722.507,0
0,559,target,"[(1019, 835)]",[],[1],[0.6],vertical,"(890.0, 762.0)",1.15,0.555,1,10725.147,1
0,560,target,"[(1070, 808)]",[],[1],[0.5833333333333334],horizontal,"(390.0, 762.0)",0.6833333333333333,0.542,1,10730.441,1
0,561,target,"[(1063, 821)]",[],[1],[0.5166666666666666],vertical,"(390.0, 262.0)",1.4333333333333333,0.476,1,10735.358,1
0,562,target,"[(1017, 820)]",[],[1],[],vertical,"(390.0, 762.0)",,"('cti', 1.263)",0,10740.509,0
0,563,target,"[(1038, 820)]",[],[1],[0.8333333333333334],horizontal,"(390.0, 762.0)",0.8333333333333334,0.79,1,10745.123,1
0,564,catch,"[(1072, 801)]",[],[1],[],vertical,"(890.0, 762.0)",1.5833333333333333,nan,1,10750.642,1
0,565,target,"[(1074, 816)]",[],[1],[0.5833333333333334],vertical,"(890.0, 762.0)",1.1666666666666667,0.542,1,10755.492,1
0,566,target,"[(1034, 807)]",[],[1],[0.6166666666666667],horizontal,"(890.0, 762.0)",1.25,0.574,1,10760.625,2
0,567,target,"[(1020, 821)]",[],[1],[0.8],horizontal,"(890.0, 262.0)",0.6833333333333333,0.756,1,10766.272,1
0,568,target,"[(1069, 806)]",[],[1],[0.85],horizontal,"(390.0, 262.0)",0.7833333333333333,nan,0,10771.747,0
0,569,target,"[(1050, 815)]",[],[1],[0.5333333333333333],horizontal,"(390.0, 262.0)",0.7166666666666667,0.497,1,10776.606,1
0,570,target,"[(1072, 811)]",[],[1],[0.85],horizontal,"(390.0, 762.0)",0.6,nan,0,10781.676,0
0,571,target,"[(1023, 801)]",[],[1],[0.5833333333333334],horizontal,"(890.0, 262.0)",1.1166666666666667,0.543,1,10785.942,1
0,572,catch,"[(1085, 825)]",[],[1],[],vertical,"(390.0, 262.0)",1.5,nan,1,10791.414,1
0,573,target,"[(1061, 804)]",[],[1],[0.6166666666666667],horizontal,"(890.0, 262.0)",0.8,0.584,1,10796.263,1
0,574,target,"[(1072, 803)]",[],[1],[0.5666666666666667],horizontal,"(390.0, 262.0)",0.7333333333333333,0.526,1,10801.074,2
0,575,target,"[(1077, 799)]",[],[1],[0.3333333333333333],horizontal,"(390.0, 262.0)",1.5666666666666667,0.294,1,10806.524,1
0,576,target,"[(1068, 808)]",[],[1],[0.5666666666666667],horizontal,"(890.0, 762.0)",0.65,0.526,1,10811.975,1
0,577,target,"[(1041, 808)]",[],[1],[0.5333333333333333],horizontal,"(890.0, 262.0)",0.5833333333333334,0.492,1,10816.74,1
0,578,target,"[(1070, 810)]",[],[1],[0.85],horizontal,"(890.0, 262.0)",0.5166666666666666,nan,0,10821.362,0
0,579,target,"[(1037, 819)]",[],[1],[0.5833333333333334],vertical,"(390.0, 762.0)",0.75,0.546,1,10825.725,1
0,580,target,"[(1038, 813)]",[],[1],[0.5333333333333333],horizontal,"(890.0, 262.0)",1.3833333333333333,0.501,1,10830.425,1
0,581,target,"[(1016, 856)]",[],[1],[0.3833333333333333],vertical,"(890.0, 762.0)",1.45,0.351,1,10835.858,1
0,582,target,"[(1073, 807)]",[],[1],[0.6666666666666666],vertical,"(890.0, 262.0)",0.75,0.621,1,10841.399,2
0,583,catch,"[(1021, 803)]",[],[1],[],horizontal,"(390.0, 262.0)",1.1333333333333333,nan,1,10846.478,1
0,584,target,"[(1071, 819)]",[],[1],[0.6333333333333333],horizontal,"(890.0, 762.0)",1.0166666666666666,0.593,1,10850.741,1
0,585,catch,"[(1069, 792)]",[],[1],[],horizontal,"(390.0, 762.0)",1.6,nan,1,10855.789,1
0,586,target,"[(1072, 821)]",[],[1],[0.65],horizontal,"(890.0, 762.0)",0.9833333333333333,0.612,1,10861.202,2
0,587,target,"[(1061, 778)]",[],[1],[0.55],vertical,"(390.0, 262.0)",1.4,0.507,1,10866.941,1
0,588,target,"[(1068, 816)]",[],[1],[0.85],horizontal,"(390.0, 262.0)",0.9,nan,0,10872.186,0
0,589,target,"[(1029, 812)]",[],[1],[0.5833333333333334],horizontal,"(890.0, 762.0)",0.9333333333333333,0.546,1,10877.291,1
0,590,target,"[(1072, 827)]",[],[1],[0.55],horizontal,"(390.0, 762.0)",1.15,0.509,1,10882.407,1
0,591,target,"[(1070, 809)]",[],[1],[0.85],horizontal,"(890.0, 262.0)",0.85,nan,0,10887.763,0
0,592,target,"[(1072, 815)]",[],[1],[0.85],horizontal,"(390.0, 262.0)",0.95,nan,0,10892.701,0
0,593,target,"[(1066, 798)]",[],[1],[0.6666666666666666],vertical,"(890.0, 762.0)",1.0166666666666666,0.617,1,10897.692,1
0,594,target,"[(1088, 820)]",[],[1],[0.5333333333333333],horizontal,"(890.0, 762.0)",1.4833333333333334,0.489,1,10902.74,1
0,595,target,"[(1072, 813)]",[],[1],[0.5],horizontal,"(390.0, 262.0)",1.6,0.457,1,10907.967,1
0,596,catch,"[(1025, 798)]",[],[1],[],horizontal,"(890.0, 262.0)",1.2333333333333334,nan,1,10913.573,2
0,597,target,"[(1092, 806)]",[],[1],[0.16666666666666666],vertical,"(890.0, 762.0)",1.5666666666666667,0.133,1,10919.091,1
0,598,target,"[(1074, 816)]",[],[1],[0.6],horizontal,"(390.0, 262.0)",0.5,0.551,1,10924.092,1
0,599,target,"[(1065, 812)]",[],[1],[0.55],vertical,"(390.0, 262.0)",0.5333333333333333,0.507,1,10928.783,1
0,600,target,"[(1026, 814)]",[],[1],[0.5833333333333334],vertical,"(890.0, 762.0)",1.1166666666666667,0.537,1,10933.592,2
0,601,target,"[(1068, 803)]",[],[1],[0.08333333333333333],vertical,"(390.0, 762.0)",1.65,0.05,0,10939.408,0
0,602,target,"[(1077, 786)]",[],[1],[0.6],vertical,"(390.0, 262.0)",1.3166666666666667,0.552,1,10944.187,1
0,603,target,"[(1068, 809)]",[],[1],[0.5666666666666667],horizontal,"(890.0, 262.0)",1.0,0.53,1,10949.442,1
0,604,target,"[(1028, 831)]",[],[1],[0.5333333333333333],horizontal,"(390.0, 262.0)",1.2,0.491,1,10954.804,1
0,605,target,"[(1084, 834)]",[],[1],[0.7333333333333333],vertical,"(390.0, 762.0)",1.2,0.683,1,10960.292,2
0,606,target,"[(1077, 815)]",[],[1],[0.85],horizontal,"(390.0, 262.0)",0.5833333333333334,nan,0,10966.49,0
0,607,target,"[(1068, 833)]",[],[1],[0.55],horizontal,"(890.0, 262.0)",1.0333333333333332,0.507,1,10971.082,1
0,608,target,"[(1061, 821)]",[],[1],[0.5166666666666666],vertical,"(890.0, 262.0)",0.8166666666666667,0.475,1,10976.155,1
0,609,target,"[(1013, 880)]",[],[1],[0.85],vertical,"(390.0, 262.0)",0.7333333333333333,nan,0,10981.026,0
0,610,target,"[(1066, 864)]",[],[1],[0.85],horizontal,"(890.0, 262.0)",1.5,nan,0,11145.473,0
0,611,target,"[(1053, 842)]",[],[1],[0.85],vertical,"(390.0, 262.0)",0.7,nan,0,11151.141,0
0,612,target,"[(1023, 861)]",[],[1],[0.7],horizontal,"(390.0, 762.0)",0.5333333333333333,0.65,1,11155.557,1
0,613,target,"[(1072, 832)]",[],[1],[0.6],vertical,"(390.0, 262.0)",1.0333333333333332,0.553,1,11162.847,1
0,614,target,"[(1017, 822)]",[],[1],[0.6333333333333333],vertical,"(890.0, 262.0)",0.6666666666666666,0.594,1,11167.976,1
0,615,target,"[(1037, 799)]",[],[1],[0.85],horizontal,"(890.0, 262.0)",0.5166666666666666,nan,0,11172.443,0
0,616,target,"[(1042, 795)]",[],[1],[0.85],horizontal,"(890.0, 262.0)",0.9,nan,0,11176.894,0
0,617,target,"[(1057, 810)]",[],[1],[0.5833333333333334],horizontal,"(390.0, 762.0)",1.0666666666666667,0.542,1,11182.209,1
0,618,catch,"[(1072, 810)]",[],[1],[],vertical,"(390.0, 262.0)",1.5166666666666666,nan,1,11187.293,1
0,619,target,"[(1077, 820)]",[],[1],[0.7666666666666666],vertical,"(390.0, 262.0)",1.2833333333333332,0.723,1,11192.477,1
0,620,catch,"[(1078, 817)]",[],[1],[],horizontal,"(390.0, 762.0)",1.55,nan,1,11198.093,2
0,621,target,"[(1080, 807)]",[],[1],[0.85],horizontal,"(890.0, 762.0)",0.5,nan,0,11203.308,0
0,622,target,"[(1072, 803)]",[],[1],[0.5333333333333333],vertical,"(390.0, 262.0)",1.6166666666666667,0.493,1,11207.634,1
0,623,target,"[(1068, 799)]",[],[1],[0.5333333333333333],vertical,"(390.0, 762.0)",0.5833333333333334,0.491,1,11213.359,1
0,624,target,"[(1072, 816)]",[],[1],[0.5666666666666667],vertical,"(390.0, 262.0)",1.55,0.528,1,11218.209,1
0,625,target,"[(1071, 808)]",[],[1],[0.55],horizontal,"(390.0, 762.0)",0.5666666666666667,0.509,1,11223.821,2
0,626,target,"[(1077, 804)]",[],[1],[0.5333333333333333],vertical,"(890.0, 262.0)",1.5666666666666667,0.485,1,11229.143,1
0,627,target,"[(1069, 803)]",[],[1],[0.5333333333333333],horizontal,"(390.0, 262.0)",1.3833333333333333,0.494,1,11234.543,1
0,628,target,"[(1072, 810)]",[],[1],[0.48333333333333334],vertical,"(390.0, 262.0)",1.6333333333333333,0.447,1,11240.076,1
0,629,target,"[(1040, 796)]",[],[1],[0.5666666666666667],horizontal,"(390.0, 262.0)",0.5666666666666667,0.527,1,11245.933,2
0,630,target,"[(1014, 830)]",[],[1],[0.55],vertical,"(390.0, 262.0)",0.9833333333333333,0.522,1,11251.094,1
0,631,catch,"[(1065, 826)]",[],[1],[],horizontal,"(890.0, 762.0)",1.4166666666666667,nan,1,11255.938,1
0,632,target,"[(1043, 848)]",[],[1],[0.6],horizontal,"(890.0, 762.0)",0.9166666666666666,0.565,1,11261.484,1
0,633,target,"[(1065, 800)]",[],[1],[0.5166666666666666],horizontal,"(390.0, 262.0)",0.9,0.474,1,11266.927,2
0,634,target,"[(1044, 823)]",[],[1],[],vertical,"(890.0, 762.0)",,"('cti', 0.573)",0,11271.951,0
0,635,target,"[(1022, 826)]",[],[1],[0.5666666666666667],vertical,"(890.0, 262.0)",0.5166666666666666,0.523,1,11275.993,1
0,636,target,"[(1065, 813)]",[],[1],[0.6],horizontal,"(890.0, 762.0)",1.1166666666666667,0.566,1,11281.094,1
0,637,target,"[(1067, 825)]",[],[1],[0.85],vertical,"(390.0, 762.0)",0.6166666666666667,nan,0,11286.581,0
0,638,target,"[(1041, 822)]",[],[1],[0.6333333333333333],vertical,"(890.0, 262.0)",0.5333333333333333,0.591,1,11291.327,1
0,639,target,"[(1061, 822)]",[],[1],[0.5666666666666667],vertical,"(390.0, 762.0)",1.1166666666666667,0.527,1,11296.461,1
0,640,target,"[(1069, 833)]",[],[1],[0.5833333333333334],vertical,"(890.0, 262.0)",0.9,0.543,1,11301.321,1
0,641,target,"[(1042, 800)]",[],[1],[0.65],vertical,"(390.0, 262.0)",1.3666666666666667,0.608,1,11306.621,2
0,642,target,"[(1070, 804)]",[],[1],[0.55],horizontal,"(390.0, 262.0)",1.3666666666666667,0.514,1,11312.36,1
0,643,target,"[(1072, 834)]",[],[1],[0.75],vertical,"(390.0, 262.0)",0.65,0.701,1,11317.928,1
0,644,target,"[(1072, 813)]",[],[1],[0.6166666666666667],horizontal,"(390.0, 762.0)",1.5,0.574,1,11322.743,1
0,645,target,"[(1080, 813)]","[(1016, 856)]",[1],[0.13333333333333333],horizontal,"(390.0, 262.0)",,"('bar', 0.15)",0,11328.597,0
0,646,target,"[(1065, 823)]",[],[1],[0.6],horizontal,"(890.0, 762.0)",0.9333333333333333,0.562,1,11331.077,1
0,647,target,"[(1065, 810)]",[],[1],[0.85],vertical,"(390.0, 762.0)",0.85,nan,0,11336.377,0
0,648,catch,"[(1061, 809)]",[],[1],[],horizontal,"(390.0, 762.0)",1.2833333333333332,nan,1,11341.243,1
0,649,catch,"[(1072, 822)]",[],[1],[],vertical,"(890.0, 762.0)",1.45,nan,1,11345.927,1
0,650,target,"[(1061, 813)]",[],[1],[0.6],horizontal,"(390.0, 762.0)",1.6166666666666667,0.555,1,11351.256,1
0,651,target,"[(1072, 809)]",[],[1],[0.5],horizontal,"(890.0, 762.0)",1.45,0.458,1,11356.966,2
0,652,target,"[(1080, 793)]",[],[1],[0.5833333333333334],horizontal,"(890.0, 262.0)",1.35,0.538,1,11363.101,1
0,653,catch,"[(1063, 816)]",[],[1],[],horizontal,"(390.0, 262.0)",1.0666666666666667,nan,1,11368.438,1
0,654,target,"[(1025, 827)]",[],[1],[0.7166666666666667],vertical,"(890.0, 762.0)",0.75,0.673,1,11373.021,1
0,655,catch,"[(1063, 818)]",[],[1],[],horizontal,"(890.0, 262.0)",1.2333333333333334,nan,1,11379.76,2
0,656,target,"[(1049, 821)]",[],[1],[0.6166666666666667],horizontal,"(390.0, 262.0)",1.6,0.578,1,11384.887,1
0,657,target,"[(1061, 813)]",[],[1],[0.85],horizontal,"(890.0, 762.0)",0.6666666666666666,nan,0,11390.784,0
0,658,target,"[(1058, 822)]",[],[1],[0.11666666666666667],vertical,"(390.0, 762.0)",1.45,0.084,0,11394.81,0
0,659,target,"[(1064, 819)]",[],[1],[0.5833333333333334],horizontal,"(390.0, 762.0)",1.3666666666666667,0.544,1,11399.92,1
0,660,target,"[(1068, 821)]",[],[1],[0.6666666666666666],vertical,"(390.0, 262.0)",1.6333333333333333,0.622,1,11404.994,1
0,661,target,"[(1057, 826)]",[],[1],[0.48333333333333334],vertical,"(390.0, 262.0)",1.6833333333333333,0.445,1,11410.744,1
0,662,target,"[(1061, 825)]",[],[1],[0.5666666666666667],vertical,"(890.0, 262.0)",0.6666666666666666,0.526,1,11416.8,2
0,663,target,"[(1010, 839)]",[],[1],[0.6166666666666667],horizontal,"(390.0, 762.0)",1.2166666666666666,0.574,1,11421.758,1
0,664,target,"[(1060, 828)]",[],[1],[0.85],vertical,"(390.0, 262.0)",0.5166666666666666,nan,0,11427.109,0
0,665,target,"[(1057, 806)]",[],[1],[0.85],vertical,"(390.0, 262.0)",0.9166666666666666,nan,0,11431.577,0
0,666,target,"[(997, 890), (1017, 846)]",[],"[0, 1]",[0.5166666666666666],horizontal,"(390.0, 762.0)",1.3666666666666667,0.475,1,11436.177,1
0,667,target,"[(1057, 820)]",[],[1],[0.5],horizontal,"(890.0, 262.0)",0.6666666666666666,0.467,1,12178.816,1
0,668,target,"[(1058, 803)]",[],[1],[0.85],horizontal,"(390.0, 762.0)",0.9166666666666666,nan,0,12183.645,0
0,669,catch,"[(1053, 849)]",[],[1],[],horizontal,"(390.0, 762.0)",1.4833333333333334,nan,1,12188.248,1
0,670,target,"[(1057, 826)]",[],[1],[0.6666666666666666],vertical,"(390.0, 762.0)",1.6333333333333333,0.632,1,12193.384,1
0,671,target,"[(1062, 833)]",[],[1],[0.55],vertical,"(390.0, 262.0)",1.3166666666666667,0.507,1,12199.016,1
0,672,target,"[(1047, 808)]",[],[1],[0.6166666666666667],vertical,"(390.0, 762.0)",1.05,0.573,1,12204.048,2
0,673,target,"[(1058, 814)]",[],[1],[0.5166666666666666],horizontal,"(890.0, 262.0)",0.6166666666666667,0.471,1,12209.759,1
0,674,catch,"[(1061, 799)]",[],[1],[],vertical,"(390.0, 762.0)",1.1333333333333333,nan,1,12214.424,1
0,675,target,"[(1061, 820)]",[],[1],[0.5666666666666667],horizontal,"(890.0, 762.0)",0.5333333333333333,0.526,1,12218.774,1
0,676,target,"[(1055, 809)]",[],[1],[0.2833333333333333],vertical,"(390.0, 262.0)",1.6,0.247,1,12223.182,2
0,677,target,"[(1065, 819)]",[],[1],[0.6166666666666667],horizontal,"(390.0, 762.0)",0.9166666666666666,0.574,1,12228.465,1
0,678,target,"[(1058, 806)]",[],[1],[0.48333333333333334],vertical,"(890.0, 762.0)",1.3,0.443,1,12233.315,1
0,679,target,"[(1068, 813)]",[],[1],[0.7333333333333333],vertical,"(390.0, 262.0)",0.6833333333333333,0.685,1,12238.732,1
0,680,target,"[(1072, 828)]",[],[1],[0.65],horizontal,"(890.0, 762.0)",0.6666666666666666,0.606,1,12243.974,2
0,681,target,"[(1041, 823)]",[],[1],[0.5166666666666666],vertical,"(390.0, 262.0)",0.6,0.472,1,12249.191,1
0,682,target,"[(1069, 838)]",[],[1],[],horizontal,"(890.0, 262.0)",,"('cti', 0.519)",0,12253.833,0
0,683,target,"[(1053, 822)]",[],[1],[0.26666666666666666],horizontal,"(890.0, 262.0)",1.5166666666666666,0.233,1,12257.38,1
0,684,target,"[(1067, 815)]",[],[1],[0.6166666666666667],horizontal,"(890.0, 262.0)",1.15,0.581,1,12262.983,1
0,685,target,"[(1049, 840)]",[],[1],[0.7666666666666666],vertical,"(890.0, 262.0)",0.9166666666666666,0.722,1,12268.333,1
0,686,target,"[(1037, 809)]",[],[1],[0.3833333333333333],vertical,"(890.0, 262.0)",1.65,0.347,1,12273.567,2
0,687,target,"[(1072, 792)]",[],[1],[0.55],horizontal,"(890.0, 262.0)",0.8833333333333333,0.509,1,12279.57,1
0,688,catch,"[(1072, 823)]",[],[1],[],vertical,"(890.0, 262.0)",1.6333333333333333,nan,1,12284.211,1
0,689,target,"[(1065, 806)]",[],[1],[0.5166666666666666],horizontal,"(890.0, 262.0)",1.4333333333333333,0.473,1,12289.231,1
0,690,target,"[(1074, 806)]",[],[1],[0.6666666666666666],vertical,"(390.0, 262.0)",0.75,0.623,1,12294.782,2
0,691,target,"[(1079, 808)]",[],[1],[0.4666666666666667],horizontal,"(390.0, 762.0)",1.3,0.429,1,12300.047,1
0,692,target,"[(1077, 826)]",[],[1],[0.5666666666666667],vertical,"(390.0, 762.0)",1.0833333333333333,0.525,1,12305.306,1
0,693,target,"[(1067, 810)]",[],[1],[0.5833333333333334],horizontal,"(390.0, 262.0)",0.55,0.546,1,12310.482,1
0,694,target,"[(1053, 811)]",[],[1],[0.5],vertical,"(890.0, 762.0)",1.55,0.461,1,12314.782,2
0,695,target,"[(1063, 814)]",[],[1],[0.21666666666666667],horizontal,"(390.0, 262.0)",1.6333333333333333,0.186,1,12320.844,1
0,696,target,"[(1074, 808)]",[],[1],[0.6166666666666667],horizontal,"(890.0, 262.0)",1.1666666666666667,0.569,1,12326.465,1
0,697,target,"[(1072, 814)]",[],[1],[0.5333333333333333],horizontal,"(390.0, 262.0)",0.7166666666666667,0.5,1,12331.273,1
0,698,target,"[(1064, 804)]",[],[1],[0.7333333333333333],vertical,"(390.0, 762.0)",0.6666666666666666,0.685,1,12336.417,2
0,699,target,"[(1064, 792)]",[],[1],[0.5166666666666666],vertical,"(390.0, 762.0)",1.35,0.475,1,12341.692,1
0,700,target,"[(1065, 800)]",[],[1],[0.8333333333333334],horizontal,"(390.0, 762.0)",0.55,0.795,1,12347.034,1
0,701,target,"[(1068, 815)]",[],[1],[0.7666666666666666],vertical,"(890.0, 762.0)",1.05,0.718,1,12351.833,1
0,702,target,"[(1067, 807)]",[],[1],[0.3],horizontal,"(390.0, 762.0)",1.6166666666666667,0.266,1,12356.929,2
0,703,catch,"[(1069, 782)]",[],[1],[],vertical,"(890.0, 762.0)",1.6833333333333333,nan,1,12363.098,1
0,704,target,"[(1072, 828)]",[],[1],[0.65],horizontal,"(890.0, 762.0)",0.75,0.605,1,12368.048,1
0,705,target,"[(1036, 812)]",[],[1],[0.5666666666666667],vertical,"(890.0, 762.0)",1.15,0.524,1,12372.818,1
0,706,target,"[(1065, 805)]",[],[1],[0.6166666666666667],horizontal,"(890.0, 762.0)",0.8833333333333333,0.572,1,12377.724,2
0,707,target,"[(1067, 802)]",[],[1],[0.5333333333333333],vertical,"(390.0, 762.0)",1.4666666666666666,0.493,1,12382.715,1
0,708,target,"[(1070, 821)]",[],[1],[0.85],vertical,"(390.0, 762.0)",0.6666666666666666,nan,0,12388.241,0
0,709,target,"[(1015, 857)]",[],[1],[0.5166666666666666],horizontal,"(890.0, 762.0)",1.3,0.481,1,12392.653,1
0,710,target,"[(1073, 831)]",[],[1],[0.5],vertical,"(890.0, 262.0)",1.6333333333333333,0.456,1,12398.112,1
0,711,target,"[(1067, 804)]",[],[1],[0.7666666666666666],vertical,"(390.0, 762.0)",0.9,0.723,1,12403.584,1
0,712,target,"[(1023, 817)]",[],[1],[0.85],vertical,"(390.0, 262.0)",0.8,nan,0,12408.495,0
0,713,target,"[(1061, 826)]",[],[1],[0.85],vertical,"(890.0, 262.0)",1.1166666666666667,nan,0,12412.751,0
0,714,catch,"[(1067, 820)]",[],[1],[],vertical,"(890.0, 262.0)",1.5333333333333332,nan,1,12417.55,1
0,715,target,"[(1068, 812)]",[],[1],[0.5333333333333333],vertical,"(890.0, 262.0)",0.55,0.493,1,12422.367,1
0,716,target,"[(1074, 811)]","[(1092, 854)]",[1],[0.3333333333333333],horizontal,"(890.0, 762.0)",,"('bar', 0.345)",0,12426.607,0
0,717,target,"[(1057, 849)]",[],[1],[0.16666666666666666],vertical,"(890.0, 262.0)",1.65,0.133,1,12429.3,1
0,718,target,"[(1065, 817)]",[],[1],[0.26666666666666666],vertical,"(890.0, 262.0)",1.55,0.23,1,12435.684,1
0,719,target,"[(1061, 808)]",[],[1],[0.5333333333333333],vertical,"(890.0, 762.0)",1.0833333333333333,0.497,1,12440.71,1
0,720,target,"[(1053, 813)]",[],[1],[0.7166666666666667],vertical,"(390.0, 762.0)",0.5666666666666667,0.669,1,12445.833,2
0,721,target,"[(1053, 798)]",[],[1],[0.4166666666666667],horizontal,"(890.0, 762.0)",1.5333333333333332,0.387,1,12451.15,1
0,722,target,"[(1053, 811)]",[],[1],[0.5666666666666667],horizontal,"(390.0, 262.0)",0.9666666666666667,0.522,1,12456.321,1
0,723,catch,"[(1061, 805)]",[],[1],[],vertical,"(890.0, 762.0)",1.2166666666666666,nan,1,12461.435,1
0,724,target,"[(1058, 809)]",[],[1],[0.85],vertical,"(890.0, 762.0)",0.65,nan,0,12465.917,0
0,725,target,"[(1022, 836)]",[],[1],[0.6666666666666666],vertical,"(390.0, 762.0)",1.1166666666666667,0.621,1,12470.617,1
0,726,target,"[(1064, 815)]",[],[1],[0.35],horizontal,"(890.0, 262.0)",1.4166666666666667,0.314,1,12476.201,1
0,727,target,"[(1021, 829)]",[],[1],[0.6],vertical,"(890.0, 262.0)",0.5833333333333334,0.559,1,12481.582,1
0,728,target,"[(1065, 819)]",[],[1],[0.6833333333333333],horizontal,"(890.0, 762.0)",0.7333333333333333,0.635,1,12486.128,2
0,729,target,"[(1072, 796)]",[],[1],[0.4666666666666667],vertical,"(390.0, 762.0)",1.45,0.43,1,12491.285,1
0,730,target,"[(1057, 800)]",[],[1],[0.5],vertical,"(890.0, 262.0)",1.05,0.459,1,12496.567,1
0,731,target,"[(1053, 819)]",[],[1],[0.5333333333333333],horizontal,"(390.0, 762.0)",1.3166666666666667,0.488,1,12501.25,1
0,732,target,"[(1053, 830)]",[],[1],[0.6],vertical,"(390.0, 262.0)",0.5,0.555,1,12506.251,2
0,733,target,"[(1053, 799)]",[],[1],[0.48333333333333334],vertical,"(390.0, 262.0)",1.5,0.456,1,12511.4,1
0,734,target,"[(1067, 817)]",[],[1],[0.5166666666666666],vertical,"(890.0, 762.0)",1.2166666666666666,0.474,1,12516.852,1
0,735,target,"[(1077, 814)]",[],[1],[0.85],horizontal,"(390.0, 262.0)",0.9333333333333333,nan,0,12521.835,0
0,736,target,"[(1053, 817)]",[],[1],[0.5666666666666667],horizontal,"(390.0, 262.0)",1.0833333333333333,0.525,1,12526.687,1
0,737,target,"[(1055, 812)]",[],[1],[0.35],vertical,"(890.0, 762.0)",1.4833333333333334,0.314,1,12531.872,1
0,738,target,"[(1053, 809)]",[],[1],[0.5833333333333334],vertical,"(890.0, 762.0)",1.4666666666666666,0.537,1,12537.384,1
0,739,catch,"[(1053, 805)]",[],[1],[],vertical,"(890.0, 762.0)",1.0833333333333333,nan,1,12542.837,2
0,740,target,"[(1069, 810)]",[],[1],[0.7666666666666666],vertical,"(390.0, 762.0)",0.5,0.725,1,12547.467,1
0,741,target,"[(1067, 813)]",[],[1],[0.5666666666666667],vertical,"(390.0, 262.0)",1.2333333333333334,0.525,1,12552.017,1
0,742,target,"[(1069, 798)]",[],[1],[0.5833333333333334],vertical,"(890.0, 262.0)",0.9,0.54,1,12557.291,1
0,743,target,"[(1032, 833)]",[],[1],[0.75],vertical,"(890.0, 262.0)",1.6666666666666667,0.702,1,12562.37,2
0,744,target,"[(1061, 826)]",[],[1],[0.5666666666666667],vertical,"(890.0, 262.0)",0.7333333333333333,0.516,1,12568.667,1
0,745,target,"[(1057, 831)]",[],[1],[0.6666666666666666],horizontal,"(890.0, 762.0)",1.0,0.622,1,12573.791,1
0,746,target,"[(1067, 794)]",[],[1],[0.5166666666666666],horizontal,"(890.0, 262.0)",0.9333333333333333,0.478,1,12579.352,1
0,747,target,"[(1057, 820)]",[],[1],[0.3333333333333333],vertical,"(390.0, 262.0)",1.45,0.294,1,12584.366,2
0,748,target,"[(1009, 850)]",[],[1],[0.55],vertical,"(890.0, 762.0)",0.6333333333333333,0.507,1,12590.351,1
0,749,target,"[(1029, 825)]",[],[1],[0.5333333333333333],horizontal,"(390.0, 762.0)",1.4166666666666667,0.491,1,12604.045,1
0,750,target,"[(1039, 813)]",[],[1],[0.6],horizontal,"(390.0, 762.0)",0.6833333333333333,0.556,1,12609.262,1
0,751,catch,"[(1076, 820)]",[],[1],[],horizontal,"(890.0, 762.0)",1.6166666666666667,nan,1,12614.216,2
0,752,target,"[(1057, 813)]",[],[1],[0.36666666666666664],horizontal,"(890.0, 262.0)",1.6666666666666667,0.327,1,12619.735,1
0,753,target,"[(1064, 841)]",[],[1],[0.5166666666666666],vertical,"(890.0, 262.0)",1.1666666666666667,0.477,1,12625.219,1
0,754,target,"[(1064, 814)]",[],[1],[0.6333333333333333],horizontal,"(390.0, 762.0)",1.2333333333333334,0.6,1,12630.769,1
0,755,target,"[(1069, 819)]",[],[1],[],vertical,"(390.0, 262.0)",,"('cti', 0.454)",0,12636.233,0
0,756,target,"[(1035, 809)]",[],[1],[0.5333333333333333],horizontal,"(890.0, 262.0)",1.1166666666666667,0.492,1,12639.901,1
0,757,target,"[(1074, 824)]",[],[1],[0.4666666666666667],horizontal,"(390.0, 262.0)",1.5166666666666666,0.426,1,12645.469,1
0,758,target,"[(1057, 801)]",[],[1],[0.85],horizontal,"(890.0, 762.0)",0.8666666666666667,nan,0,12650.962,0
0,759,target,"[(1061, 816)]",[],[1],[0.7],horizontal,"(890.0, 762.0)",1.1,0.652,1,12655.478,1
0,760,target,"[(1069, 836)]",[],[1],[0.4666666666666667],vertical,"(390.0, 262.0)",1.6166666666666667,0.428,1,12660.956,1
0,761,target,"[(1058, 818)]",[],[1],[0.5333333333333333],horizontal,"(890.0, 262.0)",0.85,0.492,1,12666.652,1
0,762,target,"[(1052, 815)]",[],[1],[0.85],horizontal,"(390.0, 762.0)",1.1,nan,0,12671.819,0
0,763,target,"[(1057, 817)]",[],[1],[0.7333333333333333],vertical,"(390.0, 762.0)",0.9,0.684,1,12676.728,1
0,764,target,"[(1077, 816)]",[],[1],[0.65],vertical,"(390.0, 762.0)",0.5166666666666666,0.609,1,12682.043,1
0,765,target,"[(1057, 810)]",[],[1],[0.6333333333333333],horizontal,"(390.0, 262.0)",0.8833333333333333,0.599,1,12686.985,1
0,766,target,"[(1069, 812)]",[],[1],[0.6],vertical,"(390.0, 262.0)",0.9166666666666666,0.562,1,12692.054,2
0,767,target,"[(1053, 815)]",[],[1],[0.75],horizontal,"(390.0, 262.0)",1.2,0.704,1,12697.636,1
0,768,target,"[(1065, 810)]",[],[1],[0.48333333333333334],vertical,"(890.0, 262.0)",1.45,0.447,1,12703.201,1
0,769,target,"[(1025, 810)]",[],[1],[0.85],horizontal,"(390.0, 262.0)",0.6666666666666666,nan,0,12708.824,0
0,770,target,"[(1058, 818)]",[],[1],[0.85],horizontal,"(890.0, 262.0)",0.9,nan,0,12713.769,0
0,771,target,"[(1053, 808)]",[],[1],[0.7833333333333333],vertical,"(890.0, 762.0)",0.9833333333333333,0.748,1,12718.581,1
0,772,target,"[(1063, 823)]",[],[1],[0.6333333333333333],vertical,"(890.0, 262.0)",0.6333333333333333,0.59,1,12723.802,1
0,773,target,"[(1022, 805)]",[],[1],[0.5833333333333334],vertical,"(890.0, 262.0)",1.4333333333333333,0.539,1,12728.4,1
0,774,target,"[(1077, 828)]",[],[1],[0.6333333333333333],vertical,"(390.0, 762.0)",1.1333333333333333,0.592,1,12734.118,2
0,775,target,"[(1077, 832)]",[],[1],[0.6],horizontal,"(390.0, 262.0)",0.9166666666666666,0.561,1,12739.627,1
0,776,target,"[(1053, 828)]",[],[1],[0.36666666666666664],vertical,"(890.0, 262.0)",1.4833333333333334,0.329,1,12744.489,1
0,777,target,"[(1057, 827)]",[],[1],[0.5166666666666666],vertical,"(390.0, 762.0)",1.6333333333333333,0.487,1,12750.336,1
0,778,catch,"[(1050, 821)]",[],[1],[],horizontal,"(890.0, 762.0)",1.4,nan,1,12756.179,2
0,779,target,"[(1053, 822)]",[],[1],[0.5333333333333333],vertical,"(890.0, 762.0)",1.1,0.492,1,12761.436,1
0,780,target,"[(1072, 807)]",[],[1],[],horizontal,"(390.0, 262.0)",,"('cti', 0.425)",0,12766.596,0
0,781,catch,"[(1061, 822)]",[],[1],[],horizontal,"(890.0, 262.0)",1.6333333333333333,nan,1,12769.936,1
0,782,catch,"[(1063, 814)]",[],[1],[],vertical,"(390.0, 262.0)",1.6666666666666667,nan,1,12775.567,1
0,783,target,"[(1067, 810)]","[(1018, 875)]",[1],[0.95],vertical,"(890.0, 762.0)",,"('bar', 0.951)",0,12780.853,0
0,784,target,"[(1025, 833)]",[],[1],[0.5833333333333334],horizontal,"(890.0, 262.0)",1.5166666666666666,0.538,1,12784.202,1
0,785,catch,"[(1079, 804)]",[],[1],[],horizontal,"(390.0, 262.0)",,"('cti', 0.216),nan",0,12789.715,0
0,786,target,"[(1068, 813)]",[],[1],[0.85],horizontal,"(390.0, 262.0)",0.8,nan,0,12793.067,0
0,787,target,"[(1069, 825)]",[],[1],[0.5833333333333334],vertical,"(890.0, 262.0)",1.45,0.541,1,12797.889,1
0,788,target,"[(1062, 813)]",[],[1],[0.5833333333333334],vertical,"(390.0, 262.0)",1.5666666666666667,0.541,1,12803.547,1
0,789,target,"[(1074, 828)]",[],[1],[0.5],vertical,"(890.0, 762.0)",1.5,0.466,1,12808.977,1
0,790,catch,"[(1037, 795)]",[],[1],[],vertical,"(890.0, 262.0)",1.15,nan,1,12814.68,2
0,791,target,"[(1076, 813)]",[],[1],[0.5333333333333333],horizontal,"(390.0, 762.0)",1.2833333333333332,0.491,1,12819.835,1
0,792,catch,"[(1053, 809)]",[],[1],[],horizontal,"(390.0, 762.0)",,"('cti', 1.641),nan",0,12824.904,0
0,793,target,"[(1073, 811)]",[],[1],[0.85],horizontal,"(890.0, 762.0)",0.9,nan,0,12829.926,0
0,794,target,"[(1022, 857)]",[],[1],[0.85],vertical,"(390.0, 262.0)",1.2833333333333332,nan,0,12834.386,0
0,795,target,"[(1069, 850)]",[],[1],[0.6333333333333333],vertical,"(390.0, 262.0)",0.5166666666666666,0.587,1,14979.282,1
0,796,target,"[(1076, 814)]",[],[1],[0.6666666666666666],vertical,"(890.0, 262.0)",1.3333333333333333,0.622,1,14984.607,1
0,797,target,"[(1086, 816)]",[],[1],[0.23333333333333334],horizontal,"(390.0, 262.0)",1.4666666666666666,0.198,1,14990.186,1
0,798,target,"[(1057, 789)]",[],[1],[0.6166666666666667],horizontal,"(390.0, 762.0)",1.0333333333333332,0.572,1,14995.381,2
0,799,target,"[(1072, 823)]",[],[1],[0.5],vertical,"(890.0, 262.0)",1.4,0.457,1,15000.998,1
0,800,target,"[(1057, 816)]",[],[1],[0.4666666666666667],horizontal,"(890.0, 262.0)",1.45,0.426,1,15006.518,1
0,801,target,"[(1069, 813)]",[],[1],[0.6],horizontal,"(390.0, 762.0)",0.6,0.556,1,15011.716,1
0,802,catch,"[(1077, 819)]",[],[1],[],horizontal,"(390.0, 762.0)",1.3166666666666667,nan,1,15016.749,2
0,803,target,"[(1068, 833)]",[],[1],[0.5333333333333333],vertical,"(890.0, 262.0)",1.5,0.489,1,15022.198,1
0,804,target,"[(1100, 809)]","[(1037, 838)]",[1],[0.1],horizontal,"(390.0, 762.0)",,"('bar', 0.115)",0,15027.816,0
0,805,target,"[(1069, 837)]",[],[1],[0.65],horizontal,"(390.0, 262.0)",1.0666666666666667,0.604,1,15030.166,1
0,806,target,"[(1063, 800)]",[],[1],[0.31666666666666665],vertical,"(390.0, 262.0)",0.9666666666666667,0.278,1,15035.447,1
0,807,target,"[(1079, 796)]",[],[1],[0.25],horizontal,"(390.0, 762.0)",1.4166666666666667,0.218,1,15040.548,1
0,808,target,"[(1080, 810)]",[],[1],[0.55],vertical,"(890.0, 262.0)",0.8166666666666667,0.509,1,15045.574,2
0,809,target,"[(1079, 793)]",[],[1],[],horizontal,"(890.0, 762.0)",,"('cti', 1.532)",0,15051.148,0
0,810,target,"[(1061, 823)]",[],[1],[0.5833333333333334],horizontal,"(890.0, 762.0)",1.1,0.544,1,15055.5,1
0,811,target,"[(1077, 809)]","[(1021, 862)]",[1],[0.35],horizontal,"(390.0, 262.0)",,"('bar', 0.367)",0,15060.724,0
0,812,target,"[(1060, 828)]",[],[1],[0.4],vertical,"(890.0, 262.0)",1.6,0.36,1,15063.415,1
0,813,target,"[(1066, 804)]",[],[1],[0.85],vertical,"(390.0, 262.0)",0.8,nan,0,15068.708,0
0,814,target,"[(1053, 813)]",[],[1],[0.85],vertical,"(890.0, 762.0)",0.5166666666666666,nan,0,15073.383,0
0,815,target,"[(1060, 797)]",[],[1],[0.85],horizontal,"(390.0, 762.0)",1.2333333333333334,nan,0,15078.128,0
0,816,target,"[(1025, 833)]",[],[1],[0.85],vertical,"(890.0, 762.0)",0.85,nan,0,15083.06,0
0,817,target,"[(1062, 816)]",[],[1],[0.6],horizontal,"(390.0, 762.0)",0.8833333333333333,0.553,1,15088.789,1
0,818,target,"[(1081, 807)]",[],[1],[0.5],horizontal,"(890.0, 762.0)",1.3666666666666667,0.462,1,15093.824,1
0,819,target,"[(1053, 815)]",[],[1],[0.5833333333333334],horizontal,"(390.0, 762.0)",0.7166666666666667,0.55,1,15099.575,1
0,820,target,"[(1073, 812)]",[],[1],[0.35],vertical,"(890.0, 762.0)",1.6,0.311,1,15103.907,2
0,821,target,"[(1049, 807)]",[],[1],[0.55],horizontal,"(390.0, 762.0)",1.25,0.507,1,15110.002,1
0,822,target,"[(1069, 815)]",[],[1],[0.18333333333333332],horizontal,"(890.0, 762.0)",1.5666666666666667,0.153,1,15115.316,1
0,823,target,"[(1074, 819)]",[],[1],[0.45],horizontal,"(890.0, 762.0)",1.3166666666666667,0.411,1,15120.8,1
0,824,target,"[(1063, 817)]",[],[1],[0.21666666666666667],horizontal,"(390.0, 762.0)",1.4333333333333333,0.184,1,15126.0,2
0,825,target,"[(1061, 799)]",[],[1],[0.1],horizontal,"(890.0, 262.0)",1.6666666666666667,0.067,0,15131.639,0
0,826,target,"[(1028, 830)]",[],[1],[0.5],vertical,"(390.0, 262.0)",0.6833333333333333,0.464,1,15136.594,1
0,827,target,"[(1035, 834)]",[],[1],[0.6833333333333333],horizontal,"(890.0, 762.0)",0.65,0.637,1,15140.814,1
0,828,target,"[(1063, 826)]",[],[1],[0.5],vertical,"(390.0, 262.0)",1.1833333333333333,0.455,1,15146.467,1
0,829,target,"[(1058, 807)]",[],[1],[0.55],vertical,"(890.0, 262.0)",0.7166666666666667,0.524,1,15151.666,2
0,830,target,"[(1057, 799)]",[],[1],[0.43333333333333335],vertical,"(890.0, 762.0)",1.6,0.39,1,15157.132,1
0,831,target,"[(1069, 808)]",[],[1],[0.5833333333333334],vertical,"(390.0, 262.0)",0.8333333333333334,0.541,1,15162.682,1
0,832,target,"[(1069, 816)]",[],[1],[0.6333333333333333],vertical,"(390.0, 762.0)",0.6833333333333333,0.584,1,15167.732,1
0,833,target,"[(1070, 814)]",[],[1],[0.5333333333333333],horizontal,"(890.0, 762.0)",1.2833333333333332,0.492,1,15172.882,2
0,834,target,"[(1077, 803)]","[(1017, 879)]",[1],[1.05],horizontal,"(390.0, 762.0)",,"('bar', 1.068)",0,15178.264,0
0,835,target,"[(1022, 828)]",[],[1],[0.2],vertical,"(390.0, 262.0)",1.5,0.167,1,15181.556,1
0,836,target,"[(1061, 808)]",[],[1],[0.5],horizontal,"(890.0, 262.0)",1.45,0.461,1,15187.279,1
0,837,target,"[(1057, 802)]",[],[1],[0.6333333333333333],horizontal,"(390.0, 762.0)",0.55,0.591,1,15192.518,1
0,838,target,"[(1053, 811)]",[],[1],[0.75],horizontal,"(890.0, 262.0)",1.0333333333333332,0.7,1,15197.032,2
0,839,target,"[(1028, 856)]",[],[1],[0.5166666666666666],horizontal,"(890.0, 762.0)",0.7166666666666667,0.471,1,15202.509,1
0,840,target,"[(1042, 817)]",[],[1],[0.5833333333333334],vertical,"(390.0, 262.0)",0.85,0.54,1,15773.629,1
0,841,target,"[(1055, 818)]",[],[1],[0.6333333333333333],vertical,"(890.0, 762.0)",0.5166666666666666,0.597,1,15778.814,1
0,842,target,"[(1068, 840)]",[],[1],[0.5166666666666666],vertical,"(390.0, 262.0)",0.6,0.479,1,15783.147,2
0,843,target,"[(1042, 837)]",[],[1],[0.5166666666666666],horizontal,"(390.0, 762.0)",1.4333333333333333,0.479,1,15788.399,1
0,844,target,"[(1036, 828)]",[],[1],[0.5166666666666666],vertical,"(890.0, 762.0)",1.1666666666666667,0.479,1,15793.669,1
0,845,target,"[(1055, 845)]",[],[1],[0.6666666666666666],horizontal,"(390.0, 262.0)",1.35,0.627,1,15798.847,1
0,846,target,"[(1055, 827)]",[],[1],[0.3333333333333333],horizontal,"(390.0, 262.0)",1.25,0.295,1,15803.97,2
0,847,target,"[(1066, 822)]",[],[1],[0.85],horizontal,"(390.0, 262.0)",1.1833333333333333,nan,0,15809.425,0
0,848,target,"[(1033, 835)]",[],[1],[0.5666666666666667],vertical,"(890.0, 762.0)",0.5666666666666667,0.526,1,15814.149,1
0,849,target,"[(1070, 805)]",[],[1],[0.5833333333333334],horizontal,"(890.0, 762.0)",1.0833333333333333,0.541,1,15819.786,1
0,850,target,"[(1073, 843)]",[],[1],[0.4666666666666667],vertical,"(890.0, 262.0)",1.2166666666666666,0.426,1,15824.61,1
0,851,target,"[(1077, 841)]",[],[1],[0.7833333333333333],horizontal,"(390.0, 262.0)",0.75,0.737,1,15829.961,2
0,852,target,"[(1077, 824)]",[],[1],[0.21666666666666667],vertical,"(890.0, 762.0)",1.3666666666666667,0.181,1,15835.07,1
0,853,target,"[(1061, 817)]",[],[1],[0.5833333333333334],vertical,"(390.0, 262.0)",0.95,0.541,1,15840.271,1
0,854,target,"[(1061, 830)]",[],[1],[0.65],horizontal,"(390.0, 262.0)",1.05,0.608,1,15845.186,1
0,855,target,"[(1073, 836)]",[],[1],[0.5833333333333334],horizontal,"(390.0, 262.0)",0.55,0.54,1,15850.379,2
0,856,catch,"[(1065, 797)]",[],[1],[],horizontal,"(390.0, 262.0)",1.4166666666666667,nan,1,15856.07,1
0,857,catch,"[(1060, 814)]",[],[1],[],horizontal,"(890.0, 262.0)",1.4166666666666667,nan,1,15860.921,1
0,858,catch,"[(1061, 812)]",[],[1],[0.03333333333333333],horizontal,"(390.0, 762.0)",1.6166666666666667,"0.019,nan",0,15866.103,0
0,859,target,"[(1061, 818)]",[],[1],[0.85],vertical,"(390.0, 762.0)",1.4333333333333333,nan,0,15870.744,0
0,860,catch,"[(1063, 819)]",[],[1],[],vertical,"(890.0, 262.0)",1.6,nan,1,15875.904,1
0,861,target,"[(1063, 809)]",[],[1],[0.75],vertical,"(390.0, 262.0)",0.8333333333333334,0.712,1,15881.681,1
0,862,target,"[(1072, 818)]",[],[1],[0.65],vertical,"(390.0, 262.0)",1.3333333333333333,0.613,1,15886.67,1
0,863,target,"[(1064, 819)]",[],[1],[0.13333333333333333],horizontal,"(390.0, 262.0)",1.6833333333333333,0.102,1,15892.271,2
0,864,target,"[(1058, 808)]",[],[1],[0.5666666666666667],vertical,"(890.0, 762.0)",0.6833333333333333,0.527,1,15898.204,1
0,865,target,"[(1072, 816)]",[],[1],[0.48333333333333334],vertical,"(390.0, 762.0)",1.45,0.45,1,15902.654,1
0,866,target,"[(1061, 808)]",[],[1],[0.7],horizontal,"(890.0, 762.0)",0.8666666666666667,0.657,1,15907.776,1
0,867,target,"[(1066, 829)]",[],[1],[0.36666666666666664],vertical,"(890.0, 762.0)",1.1833333333333333,0.33,1,15913.318,2
0,868,target,"[(1068, 814)]",[],[1],[0.6],vertical,"(390.0, 762.0)",0.7833333333333333,0.562,1,15918.841,1
0,869,target,"[(1061, 813)]",[],[1],[0.45],vertical,"(390.0, 762.0)",1.3333333333333333,0.416,1,15923.645,1
0,870,catch,"[(1077, 814)]",[],[1],[],vertical,"(890.0, 262.0)",1.5166666666666666,nan,1,15929.354,1
0,871,target,"[(1071, 833)]",[],[1],[0.55],vertical,"(890.0, 762.0)",0.6,0.511,1,15934.084,2
0,872,target,"[(1057, 793)]",[],[1],[0.5],horizontal,"(890.0, 262.0)",0.9833333333333333,0.467,1,15939.121,1
0,873,target,"[(1061, 812)]",[],[1],[0.3],vertical,"(390.0, 262.0)",1.35,0.271,1,15944.061,1
0,874,catch,"[(1065, 805)]",[],[1],[],horizontal,"(890.0, 262.0)",1.25,nan,1,15948.917,1
0,875,target,"[(1065, 800)]",[],[1],[0.5833333333333334],vertical,"(390.0, 762.0)",1.3833333333333333,0.544,1,15954.077,2
0,876,target,"[(1029, 820)]",[],[1],[],vertical,"(890.0, 262.0)",,"('cti', 1.597)",0,15959.978,0
0,877,target,"[(1031, 818)]",[],[1],[0.5333333333333333],horizontal,"(890.0, 262.0)",1.2166666666666666,0.494,1,15965.415,1
0,878,target,"[(1061, 799)]",[],[1],[0.55],horizontal,"(890.0, 762.0)",1.0666666666666667,0.511,1,15971.477,1
0,879,target,"[(1063, 835)]",[],[1],[0.5833333333333334],vertical,"(890.0, 262.0)",1.7,0.541,1,15976.971,1
0,880,target,"[(1061, 814)]",[],[1],[0.85],vertical,"(390.0, 762.0)",0.95,nan,0,15982.621,0
0,881,target,"[(1064, 824)]",[],[1],[0.5833333333333334],vertical,"(890.0, 262.0)",0.9666666666666667,0.542,1,15987.591,1
0,882,target,"[(1061, 812)]",[],[1],[0.6333333333333333],horizontal,"(890.0, 762.0)",1.15,0.59,1,15993.29,1
0,883,target,"[(1073, 821)]",[],[1],[0.5166666666666666],horizontal,"(890.0, 762.0)",1.2666666666666666,0.48,1,15998.393,1
0,884,target,"[(1057, 846)]",[],[1],[0.55],vertical,"(390.0, 262.0)",0.9833333333333333,0.514,1,16003.287,2
0,885,target,"[(1061, 838)]",[],[1],[0.55],vertical,"(890.0, 762.0)",0.8166666666666667,0.514,1,16009.121,1
0,886,target,"[(1069, 824)]",[],[1],[0.5333333333333333],horizontal,"(390.0, 762.0)",0.7,0.494,1,16014.077,1
0,887,target,"[(1061, 821)]",[],[1],[0.5166666666666666],horizontal,"(890.0, 262.0)",0.55,0.476,1,16019.072,1
0,888,target,"[(1072, 832)]",[],[1],[0.08333333333333333],horizontal,"(890.0, 262.0)",1.2166666666666666,0.053,0,16023.347,0
0,889,target,"[(1061, 819)]",[],[1],[0.85],vertical,"(890.0, 762.0)",0.7833333333333333,nan,0,16027.924,0
0,890,catch,"[(1061, 821)]",[],[1],[],vertical,"(890.0, 762.0)",1.1833333333333333,nan,1,16032.853,1
0,891,target,"[(1057, 822)]",[],[1],[0.6],vertical,"(390.0, 762.0)",1.0666666666666667,0.56,1,16037.943,1
0,892,target,"[(1061, 818)]",[],[1],[0.5333333333333333],vertical,"(890.0, 262.0)",1.25,0.489,1,16042.972,1
0,893,target,"[(1072, 831)]",[],[1],[0.4666666666666667],horizontal,"(890.0, 262.0)",1.3333333333333333,0.428,1,16047.937,2
0,894,target,"[(1061, 811)]",[],[1],[0.8166666666666667],horizontal,"(890.0, 262.0)",0.9833333333333333,0.778,1,16053.855,1
0,895,target,"[(1073, 823)]",[],[1],[0.4666666666666667],horizontal,"(390.0, 262.0)",1.25,0.43,1,16059.001,1
0,896,target,"[(1061, 804)]",[],[1],[0.7333333333333333],horizontal,"(890.0, 762.0)",0.7666666666666666,0.691,1,16064.071,1
0,897,target,"[(1080, 805)]",[],[1],[0.3333333333333333],horizontal,"(890.0, 762.0)",1.6166666666666667,0.302,1,16069.037,2
0,898,target,"[(1065, 800)]",[],[1],[0.43333333333333335],horizontal,"(390.0, 762.0)",1.35,0.395,1,16075.039,1
0,899,target,"[(1022, 859)]",[],[1],[0.65],vertical,"(890.0, 262.0)",1.6333333333333333,0.612,1,16080.405,1
0,900,target,"[(1065, 838)]",[],[1],[0.5333333333333333],vertical,"(390.0, 762.0)",1.0,0.504,1,16112.072,1
0,901,catch,"[(1059, 813)]",[],[1],[],horizontal,"(890.0, 762.0)",1.05,nan,1,16117.205,2
0,902,target,"[(1068, 828)]",[],[1],[0.85],horizontal,"(890.0, 762.0)",0.6666666666666666,nan,0,16122.521,0
0,903,target,"[(1025, 828)]",[],[1],[0.5],vertical,"(390.0, 262.0)",1.2333333333333334,0.466,1,16127.396,1
0,904,target,"[(1061, 814)]",[],[1],[0.4],horizontal,"(390.0, 262.0)",1.5666666666666667,0.361,1,16132.589,1
0,905,target,"[(1059, 818)]",[],[1],[0.8166666666666667],vertical,"(390.0, 762.0)",0.55,0.771,1,16137.959,1
0,906,catch,"[(1057, 828)]",[],[1],[],vertical,"(890.0, 762.0)",1.3333333333333333,nan,1,16142.636,2
0,907,target,"[(1067, 832)]",[],[1],[0.45],horizontal,"(890.0, 762.0)",1.6,0.419,1,16147.826,1
0,908,target,"[(1061, 819)]",[],[1],[0.5833333333333334],horizontal,"(390.0, 262.0)",0.8833333333333333,0.544,1,16153.212,1
0,909,catch,"[(1077, 851)]",[],[1],[],horizontal,"(890.0, 262.0)",,"('cti', 0.15),nan",0,16158.45,0
0,910,target,"[(1061, 813)]",[],[1],[0.65],horizontal,"(890.0, 762.0)",0.9666666666666667,0.613,1,16161.905,1
0,911,target,"[(1063, 820)]",[],[1],[0.65],vertical,"(390.0, 762.0)",0.7833333333333333,0.616,1,16167.609,1
0,912,target,"[(1061, 824)]",[],[1],[0.5833333333333334],horizontal,"(390.0, 762.0)",0.5333333333333333,0.549,1,16172.705,1
0,913,catch,"[(1068, 804)]",[],[1],[],horizontal,"(390.0, 762.0)",,"('cti', 1.51),nan",0,16177.22,0
