block,practice,trial,change_interval_s,change_interval_frames,taps_start_time_during_fix,taps_end_time_during_fix,taps_start_loc_during_fix,taps_end_loc_during_fix,taps_on_lever_during_fix,taps_on_lever_frame_during_fix,taps_on_lever_s_during_fix,fix_xy,bar_orientation,target_xy,cti,rt,acc,time
1,TRUE,1,1.14,68,,10437,"(1209, 882)","(1193, 903)",1,61,1.016666667,"640.0, 512.0",horizontal,"(890.0, 762.0)",,0,0,0.099
1,TRUE,2,0.906,54,,,"(1184, 879)",,1,92,1.533333333,"640.0, 512.0",vertical,"(390.0, 762.0)",1.1,0.606,1,4.564
1,TRUE,3,0.898,53,,,"(1126, 883)",,1,,,"640.0, 512.0",horizontal,"(390.0, 262.0)",,0,0,8.899
1,TRUE,4,1.369,82,,,"(1190, 880)",,1,132,2.2,"640.0, 512.0",horizontal,"(890.0, 762.0)",0.75,0.815,0,12.299
1,FALSE,1,1.429,85,,,"(1200, 881)",,1,115,1.916666667,"640.0, 512.0",horizontal,"(890.0, 262.0)",1.333333333,0.478,1,16.783
1,FALSE,2,0.552,33,,,"(1171, 884)",,1,,,"640.0, 512.0",horizontal,"(390.0, 262.0)",,0,0,21.681
1,FALSE,3,1.208,72,,,"(1186, 880)",,1,,,"640.0, 512.0",horizontal,"(890.0, 262.0)",,0,0,24.121
1,FALSE,4,1.298,77,,,"(1205, 865)",,1,117,1.95,"640.0, 512.0",vertical,"(890.0, 762.0)",1.1,0.637,1,31.863
1,FALSE,5,0.443,26,,,"(1176, 866)",,1,40,0.666666667,"640.0, 512.0",horizontal,"(890.0, 262.0)",1.466666667,0.218,1,36.454
1,FALSE,6,0.73,43,,,"(1187, 896)",,1,,,"640.0, 512.0",vertical,"(390.0, 762.0)",,0,0,40.284
1,FALSE,7,0.684,41,,,"(1187, 868)",,1,84,1.4,"640.0, 512.0",vertical,"(390.0, 262.0)",0.566666667,0.689,1,43.36
1,FALSE,8,1.462,87,,,"(1172, 872)",,1,122,2.033333333,"640.0, 512.0",horizontal,"(390.0, 762.0)",0.633333333,0.554,1,46.943
1,FALSE,9,0.873,52,,,"(1175, 859)",,1,,,"640.0, 512.0",vertical,"(890.0, 262.0)",,0,0,51.091
1,FALSE,10,1.059,63,,,"(1199, 859)",,1,,,"640.0, 512.0",vertical,"(890.0, 262.0)",,0,0,53.717
1,FALSE,11,0.984,59,,,"(1243, 942), (1216, 855)",,"0, 1",87,1.45,"640.0, 512.0",vertical,"(890.0, 262.0)",0.833333333,0.445,1,63.245
1,FALSE,12,0.54,32,,,"(1196, 854)",,1,73,1.216666667,"640.0, 512.0",horizontal,"(890.0, 262.0)",1.466666667,0.661,1,69.734
1,FALSE,13,1.091,65,,,"(1165, 891)",,1,97,1.616666667,"640.0, 512.0",horizontal,"(890.0, 762.0)",1.183333333,0.508,1,73.91
1,FALSE,14,0.748,44,,,"(1156, 918)",,1,94,1.566666667,"640.0, 512.0",horizontal,"(890.0, 262.0)",0.7,0.8,0,78.198
1,FALSE,15,1.014,60,,,"(1142, 907)",,1,99,1.65,"640.0, 512.0",vertical,"(390.0, 762.0)",1.566666667,0.618,1,82.066
1,FALSE,16,0.779,46,,,"(1153, 886)",,1,79,1.316666667,"640.0, 512.0",vertical,"(890.0, 762.0)",1.316666667,0.525,1,96.907
1,FALSE,17,1.21,72,,,"(1149, 890)",,1,108,1.8,"640.0, 512.0",horizontal,"(390.0, 762.0)",0.666666667,0.57,1,100.979
1,FALSE,18,1.18,70,,,"(1146, 877)",,1,120,2,"640.0, 512.0",horizontal,"(390.0, 262.0)",1.566666667,0.804,0,104.963
1,FALSE,19,0.343,20,,,"(1192, 908)",,1,70,1.166666667,"640.0, 512.0",vertical,"(890.0, 762.0)",1.05,0.805,0,110.924
1,FALSE,20,1.433,85,,,"(1137, 913)",,1,130,2.166666667,"640.0, 512.0",horizontal,"(390.0, 762.0)",0.75,0.731,1,114.677
1,FALSE,21,0.918,55,,,"(1107, 896)",,1,87,1.45,"640.0, 512.0",horizontal,"(890.0, 262.0)",0.7,0.509,1,119.633
1,FALSE,22,0.339,20,,,"(1110, 893)",,1,53,0.883333333,"640.0, 512.0",vertical,"(390.0, 262.0)",0.966666667,0.527,1,123.288
1,FALSE,23,1.189,71,,,"(1112, 863)",,1,107,1.783333333,"640.0, 512.0",vertical,"(890.0, 762.0)",0.5,0.573,1,126.666
1,FALSE,24,1.241,74,,,"(1142, 901)",,1,106,1.766666667,"640.0, 512.0",vertical,"(890.0, 262.0)",0.6,0.508,1,130.395
1,FALSE,25,1.49,89,,,"(1141, 904)",,1,126,2.1,"640.0, 512.0",horizontal,"(390.0, 762.0)",1.5,0.597,1,134.229
1,FALSE,26,0.96,57,,,"(1137, 879)",,1,95,1.583333333,"640.0, 512.0",vertical,"(390.0, 762.0)",1.583333333,0.602,1,139.282
1,FALSE,27,1.026,61,,,"(1121, 885)",,1,97,1.616666667,"640.0, 512.0",vertical,"(890.0, 762.0)",1.166666667,0.574,1,143.88
1,FALSE,28,1.006,60,,,"(1132, 894)",,1,95,1.583333333,"640.0, 512.0",horizontal,"(390.0, 262.0)",1.65,0.553,1,148.129
1,FALSE,29,0.903,54,,,"(1119, 880)",,1,89,1.483333333,"640.0, 512.0",vertical,"(890.0, 762.0)",1.333333333,0.556,1,152.799
1,FALSE,30,0.665,39,,,"(1117, 880)",,1,80,1.333333333,"640.0, 512.0",vertical,"(390.0, 762.0)",1.05,0.655,1,157.1
1,FALSE,31,1.069,64,,,"(1117, 900)",,1,99,1.65,"640.0, 512.0",vertical,"(890.0, 262.0)",1.1,0.558,1,160.928
1,FALSE,32,1.199,71,,,"(1136, 903)",,1,107,1.783333333,"640.0, 512.0",vertical,"(890.0, 762.0)",0.633333333,0.58,1,165.146
1,FALSE,33,0.723,43,,,"(1129, 889)",,1,82,1.366666667,"640.0, 512.0",horizontal,"(390.0, 762.0)",0.833333333,0.631,1,169.031
1,FALSE,34,0.833,49,,,"(1138, 877)",,1,83,1.383333333,"640.0, 512.0",horizontal,"(890.0, 262.0)",1.1,0.547,1,172.712
1,FALSE,35,1.13,67,,,"(1118, 880)",,1,101,1.683333333,"640.0, 512.0",vertical,"(890.0, 262.0)",0.666666667,0.536,1,176.716
1,FALSE,36,0.372,22,,,"(1138, 906)",,1,58,0.966666667,"640.0, 512.0",vertical,"(890.0, 262.0)",0.516666667,0.578,1,180.558
1,FALSE,37,0.832,49,,,"(1117, 880)",,1,90,1.5,"640.0, 512.0",vertical,"(390.0, 762.0)",0.6,0.651,1,183.534
1,FALSE,38,0.319,19,,,"(1112, 888)",,1,54,0.9,"640.0, 512.0",vertical,"(890.0, 762.0)",0.983333333,0.56,1,187.08
1,FALSE,39,1.368,82,,,"(1121, 880)",,1,116,1.933333333,"640.0, 512.0",horizontal,"(890.0, 262.0)",1.05,0.539,1,190.45
1,FALSE,40,1.198,71,,,"(1121, 891)",,1,106,1.766666667,"640.0, 512.0",horizontal,"(390.0, 262.0)",1.483333333,0.554,1,194.9
1,FALSE,41,0.318,19,,,"(1126, 887)",,1,57,0.95,"640.0, 512.0",vertical,"(890.0, 762.0)",1.1,0.611,1,199.611
1,FALSE,42,0.447,26,,,"(1097, 892)",,1,76,1.266666667,"640.0, 512.0",horizontal,"(890.0, 762.0)",1.366666667,0.808,0,203.146
1,FALSE,43,1.088,65,,,"(1111, 903)",,1,98,1.633333333,"640.0, 512.0",horizontal,"(890.0, 262.0)",0.6,0.534,1,207.264
1,FALSE,44,0.918,55,,,"(1102, 860)",,1,90,1.5,"640.0, 512.0",horizontal,"(890.0, 262.0)",1.4,0.556,1,211.349
1,FALSE,45,0.557,33,,,"(1136, 865)",,1,71,1.183333333,"640.0, 512.0",vertical,"(390.0, 762.0)",1.3,0.607,1,215.761
1,FALSE,46,0.517,31,,,"(1075, 897)",,1,"81, 81","1.35, 1.35","640.0, 512.0",horizontal,"(890.0, 762.0)",0.716666667,"0.803, 0.803",0,219.746
1,FALSE,47,1.5,90,,,"(1124, 888)",,1,129,2.15,"640.0, 512.0",horizontal,"(390.0, 262.0)",1.633333333,0.625,1,223.263
1,FALSE,48,0.888,53,,,"(1148, 901)",,1,86,1.433333333,"640.0, 512.0",horizontal,"(890.0, 262.0)",1.166666667,0.525,1,228.549
1,FALSE,49,1.395,83,,,"(1087, 884)",,1,119,1.983333333,"640.0, 512.0",vertical,"(390.0, 262.0)",1,0.592,1,232.628
1,FALSE,50,1.095,65,,,"(1114, 903)",,1,99,1.65,"640.0, 512.0",vertical,"(890.0, 262.0)",0.783333333,0.54,1,237.13
1,FALSE,51,0.438,26,,,"(1142, 913)",,1,60,1,"640.0, 512.0",vertical,"(890.0, 762.0)",0.85,0.541,1,241.025
1,FALSE,52,0.33,19,,,"(1119, 892)",,1,53,0.883333333,"640.0, 512.0",horizontal,"(890.0, 262.0)",1.666666667,0.538,1,244.354
1,FALSE,53,0.37,22,,,"(1090, 889)",,1,62,1.033333333,"640.0, 512.0",horizontal,"(890.0, 762.0)",0.783333333,0.636,1,248.414
1,FALSE,54,1.313,78,,,"(1087, 896)",,1,119,1.983333333,"640.0, 512.0",horizontal,"(390.0, 762.0)",1.616666667,0.651,1,251.714
1,FALSE,55,1.059,63,,,"(1120, 880)",,1,99,1.65,"640.0, 512.0",vertical,"(390.0, 262.0)",1.1,0.579,1,256.782
1,FALSE,56,0.534,32,,,"(1110, 893)",,1,76,1.266666667,"640.0, 512.0",horizontal,"(890.0, 762.0)",1.416666667,0.701,1,260.967
1,FALSE,57,0.833,49,,,"(1118, 908)",,1,85,1.416666667,"640.0, 512.0",vertical,"(890.0, 762.0)",1.633333333,0.576,1,265.158
1,FALSE,58,0.471,28,,,"(1126, 892)",,1,67,1.116666667,"640.0, 512.0",vertical,"(390.0, 762.0)",1.416666667,0.63,1,269.632
1,FALSE,59,0.546,32,,,"(1148, 865)",,1,63,1.05,"640.0, 512.0",horizontal,"(890.0, 262.0)",0.7,0.496,1,273.655
1,FALSE,60,0.419,25,,,"(1124, 896)",,1,75,1.25,"640.0, 512.0",vertical,"(390.0, 262.0)",0.866666667,0.799,0,276.86
2,FALSE,61,1.216,72,,,"(1133, 889)",,1,104,1.733333333,"640.0, 512.0",horizontal,"(890.0, 262.0)",0.833333333,0.506,1,280.462
2,FALSE,62,0.319,19,,,"(1113, 884)",,1,55,0.916666667,"640.0, 512.0",vertical,"(890.0, 762.0)",1.6,0.578,1,284.601
2,FALSE,63,0.323,19,,,"(1122, 909)",,1,55,0.916666667,"640.0, 512.0",horizontal,"(390.0, 762.0)",1.166666667,0.566,1,288.574
2,FALSE,64,1.012,60,,,"(1081, 889)",,1,100,1.666666667,"640.0, 512.0",horizontal,"(890.0, 762.0)",0.683333333,0.641,1,292.114
2,FALSE,65,0.331,19,,,"(1101, 896)",,1,51,0.85,"640.0, 512.0",horizontal,"(890.0, 262.0)",1.033333333,0.504,1,295.97
2,FALSE,66,1.134,68,,,"(1093, 926)",,1,102,1.7,"640.0, 512.0",vertical,"(890.0, 262.0)",1.516666667,0.542,1,299.336
2,FALSE,67,0.328,19,,,"(1098, 894)",,1,60,1,"640.0, 512.0",vertical,"(890.0, 762.0)",0.566666667,0.656,1,304.038
2,FALSE,68,0.909,54,,,"(1098, 903)",,1,89,1.483333333,"640.0, 512.0",vertical,"(890.0, 762.0)",0.9,0.559,1,307.111
2,FALSE,69,1.016,60,,,"(1106, 903)",,1,110,1.833333333,"640.0, 512.0",vertical,"(390.0, 262.0)",0.55,0.81,0,310.964
2,FALSE,70,1.046,62,,,"(1152, 886)",,1,100,1.666666667,"640.0, 512.0",horizontal,"(390.0, 762.0)",1.183333333,0.609,1,314.83
2,FALSE,71,0.714,42,,,"(1111, 899)",,1,77,1.283333333,"640.0, 512.0",vertical,"(390.0, 262.0)",1.616666667,0.559,1,319.174
2,FALSE,72,1.448,86,,,"(1113, 908)",,1,133,2.216666667,"640.0, 512.0",vertical,"(890.0, 762.0)",1.183333333,0.759,1,323.568
2,FALSE,73,0.937,56,,,"(1116, 893)",,1,91,1.516666667,"640.0, 512.0",horizontal,"(390.0, 262.0)",1.033333333,0.557,1,328.424
2,FALSE,74,0.4,24,,,"(1121, 897)",,1,74,1.233333333,"640.0, 512.0",horizontal,"(890.0, 762.0)",1.133333333,0.807,0,332.426
2,FALSE,75,1.04,62,,,"(1141, 889)",,1,106,1.766666667,"640.0, 512.0",horizontal,"(390.0, 762.0)",0.5,0.702,1,336.251
2,FALSE,76,0.502,30,,,"(1097, 894)",,1,79,1.316666667,"640.0, 512.0",vertical,"(390.0, 262.0)",0.716666667,0.786,1,340.036
2,FALSE,77,1.154,69,,,"(1123, 904)",,1,104,1.733333333,"640.0, 512.0",horizontal,"(390.0, 762.0)",1.4,0.551,1,343.616
2,FALSE,78,0.35,21,,,"(1096, 902)",,1,59,0.983333333,"640.0, 512.0",horizontal,"(890.0, 762.0)",1.266666667,0.609,1,348.234
2,FALSE,79,0.938,56,,,"(1116, 898)",,1,92,1.533333333,"640.0, 512.0",vertical,"(390.0, 762.0)",1.4,0.577,1,352.015
2,FALSE,80,1.45,87,,,"(1096, 872)",,1,129,2.15,"640.0, 512.0",vertical,"(390.0, 762.0)",0.866666667,0.674,1,356.395
2,FALSE,81,0.971,58,,,"(1123, 901)",,1,93,1.55,"640.0, 512.0",vertical,"(390.0, 762.0)",1.533333333,0.563,1,361.914
2,FALSE,82,0.745,44,,,"(1105, 884)",,1,79,1.316666667,"640.0, 512.0",vertical,"(890.0, 762.0)",0.766666667,0.556,1,366.497
2,FALSE,83,0.713,42,,,"(1142, 884)",,1,77,1.283333333,"640.0, 512.0",vertical,"(390.0, 262.0)",1.15,0.557,1,370.053
2,FALSE,84,1,60,,,"(1120, 883)",,1,94,1.566666667,"640.0, 512.0",horizontal,"(890.0, 762.0)",1.466666667,0.54,1,373.947
2,FALSE,85,0.494,29,,,"(1113, 885)",,1,79,1.316666667,"640.0, 512.0",vertical,"(890.0, 762.0)",1.616666667,0.802,0,378.434
2,FALSE,86,0.895,53,,,"(1154, 900)",,1,86,1.433333333,"640.0, 512.0",horizontal,"(890.0, 262.0)",1.2,0.523,1,382.876
2,FALSE,87,0.633,37,,,"(1153, 887)",,1,70,1.166666667,"640.0, 512.0",horizontal,"(890.0, 262.0)",0.716666667,0.52,1,387.114
2,FALSE,88,1.337,80,,,"(1122, 878)",,1,117,1.95,"640.0, 512.0",vertical,"(390.0, 762.0)",1.583333333,0.588,1,390.521
2,FALSE,89,0.873,52,,,"(1129, 877)",,1,90,1.5,"640.0, 512.0",horizontal,"(390.0, 262.0)",0.85,0.609,1,395.586
2,FALSE,90,1.301,78,,,"(1113, 893)",,1,113,1.883333333,"640.0, 512.0",horizontal,"(390.0, 262.0)",0.583333333,0.558,1,399.496
2,FALSE,91,0.42,25,,,"(1123, 908)",,1,60,1,"640.0, 512.0",vertical,"(890.0, 262.0)",0.8,0.562,1,403.518
2,FALSE,92,0.776,46,,,"(1124, 905)",,1,84,1.4,"640.0, 512.0",horizontal,"(390.0, 762.0)",1.366666667,0.605,1,406.817
2,FALSE,93,0.87,52,,,"(1089, 903)",,1,89,1.483333333,"640.0, 512.0",vertical,"(890.0, 262.0)",0.533333333,0.59,1,411.063
2,FALSE,94,0.491,29,,,"(1098, 916)",,1,63,1.05,"640.0, 512.0",vertical,"(890.0, 262.0)",1.016666667,0.544,1,414.566
2,FALSE,95,1.443,86,,,"(1107, 906)",,1,,,"640.0, 512.0",horizontal,"(890.0, 262.0)",,0,0,418.184
2,FALSE,96,1.461,87,,,"(1121, 890)",,1,122,2.033333333,"640.0, 512.0",vertical,"(890.0, 762.0)",0.933333333,0.559,1,421.697
2,FALSE,97,1.006,60,,,"(1105, 900)",,1,100,1.666666667,"640.0, 512.0",horizontal,"(890.0, 762.0)",1.666666667,0.648,1,426.182
2,FALSE,98,0.531,31,,,"(1093, 910)",,1,69,1.15,"640.0, 512.0",horizontal,"(890.0, 262.0)",0.533333333,0.605,1,430.994
2,FALSE,99,1.105,66,,,"(1113, 902)",,1,105,1.75,"640.0, 512.0",horizontal,"(390.0, 262.0)",1.35,0.62,1,434.152
2,FALSE,100,0.66,39,,,"(1099, 902)",,1,76,1.266666667,"640.0, 512.0",horizontal,"(390.0, 762.0)",0.916666667,0.592,1,438.75
2,FALSE,101,1.092,65,,,"(1121, 920)",,1,103,1.716666667,"640.0, 512.0",vertical,"(890.0, 762.0)",1.033333333,0.61,1,442.443
2,FALSE,102,1.251,75,,,"(1116, 898)",,1,100,1.666666667,"640.0, 512.0",vertical,"(890.0, 262.0)",1.616666667,0.399,1,446.689
2,FALSE,103,1.333,79,,,"(1116, 909)",,1,112,1.866666667,"640.0, 512.0",horizontal,"(390.0, 262.0)",1.55,0.523,1,451.417
2,FALSE,104,0.354,21,,,"(1111, 914)",,1,71,1.183333333,"640.0, 512.0",vertical,"(390.0, 262.0)",1.6,0.793,0,456.265
2,FALSE,105,0.92,55,,,"(1099, 922)",,1,89,1.483333333,"640.0, 512.0",vertical,"(890.0, 262.0)",0.833333333,0.537,1,460.49
2,FALSE,106,1.439,86,,,"(1112, 910)",,1,125,2.083333333,"640.0, 512.0",horizontal,"(390.0, 762.0)",0.716666667,0.622,1,464.881
2,FALSE,107,1.382,82,,,"(1118, 893)",,1,119,1.983333333,"640.0, 512.0",vertical,"(890.0, 762.0)",0.55,0.584,1,469.147
2,FALSE,108,0.734,44,,,"(1110, 883)",,1,94,1.566666667,"640.0, 512.0",vertical,"(390.0, 762.0)",1.616666667,0.809,0,473.247
2,FALSE,109,1.341,80,,,"(1136, 887)",,1,129,2.15,"640.0, 512.0",horizontal,"(390.0, 762.0)",1.483333333,0.791,1,477.916
2,FALSE,110,1.358,81,,,"(1134, 894)",,1,121,2.016666667,"640.0, 512.0",vertical,"(390.0, 762.0)",1.683333333,0.642,1,483.077
2,FALSE,111,0.628,37,,,"(1105, 902)",,1,76,1.266666667,"640.0, 512.0",horizontal,"(390.0, 762.0)",1.083333333,0.621,1,488.235
2,FALSE,112,1.035,62,,,"(1093, 878)",,1,98,1.633333333,"640.0, 512.0",horizontal,"(390.0, 762.0)",1.216666667,0.577,1,492.118
2,FALSE,113,1.196,71,,,"(1097, 879)",,1,109,1.816666667,"640.0, 512.0",horizontal,"(890.0, 262.0)",1.383333333,0.606,1,496.514
2,FALSE,114,1.468,88,,,"(1123, 893)",,1,131,2.183333333,"640.0, 512.0",horizontal,"(890.0, 762.0)",0.5,0.69,1,501.217
2,FALSE,115,0.645,38,,,"(1130, 892)",,1,73,1.216666667,"640.0, 512.0",vertical,"(390.0, 762.0)",1.633333333,0.552,1,505.445
2,FALSE,116,0.912,54,,,"(1099, 915)",,1,83,1.383333333,"640.0, 512.0",vertical,"(890.0, 262.0)",1.516666667,0.464,1,509.831
2,FALSE,117,1.473,88,,,"(1117, 909)",,1,131,2.183333333,"640.0, 512.0",horizontal,"(890.0, 762.0)",1.2,0.688,1,514.248
2,FALSE,118,1.061,63,,,"(1117, 908)",,1,100,1.666666667,"640.0, 512.0",vertical,"(890.0, 762.0)",1.05,0.588,1,519.093
2,FALSE,119,1.288,77,,,"(1121, 905)",,1,113,1.883333333,"640.0, 512.0",vertical,"(890.0, 762.0)",1.116666667,0.575,1,523.297
2,FALSE,120,0.96,57,,,"(1105, 901)",,1,92,1.533333333,"640.0, 512.0",horizontal,"(890.0, 262.0)",1.516666667,0.56,1,527.797
3,FALSE,121,1.044,62,,,"(1093, 908)",,1,107,1.783333333,"640.0, 512.0",horizontal,"(390.0, 262.0)",1.05,0.742,1,532.391
3,FALSE,122,0.873,52,,,"(1093, 914)",,1,91,1.516666667,"640.0, 512.0",vertical,"(390.0, 762.0)",0.766666667,0.623,1,536.703
3,FALSE,123,1.113,66,,,"(1117, 914)",,1,102,1.7,"640.0, 512.0",horizontal,"(390.0, 262.0)",0.55,0.577,1,540.567
3,FALSE,124,1.073,64,,,"(1099, 908)",,1,99,1.65,"640.0, 512.0",horizontal,"(890.0, 262.0)",1.366666667,0.552,1,544.28
3,FALSE,125,0.589,35,,,"(1112, 907)",,1,71,1.183333333,"640.0, 512.0",vertical,"(890.0, 762.0)",0.566666667,0.577,1,548.75
3,FALSE,126,0.9,54,,,"(1094, 909)",,1,89,1.483333333,"640.0, 512.0",horizontal,"(390.0, 762.0)",1.033333333,0.556,1,552.068
3,FALSE,127,0.309,18,,,"(1105, 908)",,1,50,0.833333333,"640.0, 512.0",horizontal,"(890.0, 262.0)",1.016666667,0.51,1,556.099
3,FALSE,128,0.878,52,,,"(1105, 912)",,1,97,1.616666667,"640.0, 512.0",vertical,"(390.0, 762.0)",0.75,0.722,1,559.431
3,FALSE,129,1.006,60,,,"(1106, 908)",,1,110,1.833333333,"640.0, 512.0",vertical,"(390.0, 762.0)",1.416666667,0.801,0,563.279
3,FALSE,130,0.708,42,,,"(1152, 887)",,1,75,1.25,"640.0, 512.0",horizontal,"(890.0, 262.0)",1.3,0.526,1,567.997
3,FALSE,131,1.097,65,,,"(1097, 918)",,1,98,1.633333333,"640.0, 512.0",vertical,"(890.0, 762.0)",1.316666667,0.526,1,572.067
3,FALSE,132,0.872,52,,,"(1081, 898)",,1,89,1.483333333,"640.0, 512.0",vertical,"(390.0, 262.0)",1.433333333,0.594,1,576.492
3,FALSE,133,1.077,64,,,"(1075, 905)",,1,98,1.633333333,"640.0, 512.0",horizontal,"(890.0, 262.0)",0.633333333,0.541,1,580.902
3,FALSE,134,1.344,80,,,"(1133, 890)",,1,115,1.916666667,"640.0, 512.0",horizontal,"(390.0, 762.0)",1.683333333,0.558,1,584.677
3,FALSE,135,1.418,85,,,"(1104, 905)",,1,115,1.916666667,"640.0, 512.0",vertical,"(890.0, 262.0)",1.383333333,0.475,1,589.717
3,FALSE,136,0.512,30,,,"(1115, 892)",,1,60,1,"640.0, 512.0",vertical,"(890.0, 262.0)",1.483333333,0.474,1,594.532
3,FALSE,137,0.835,50,,,"(1105, 906)",,1,87,1.45,"640.0, 512.0",horizontal,"(890.0, 762.0)",1.466666667,0.591,1,598.488
3,FALSE,138,0.849,50,,,"(1141, 910)",,1,84,1.4,"640.0, 512.0",horizontal,"(390.0, 262.0)",1.283333333,0.538,1,602.868
3,FALSE,139,0.522,31,,,"(1101, 908)",,1,76,1.266666667,"640.0, 512.0",vertical,"(890.0, 262.0)",1.166666667,0.723,1,606.991
3,FALSE,140,1.296,77,,,"(1046, 909)",,1,120,2,"640.0, 512.0",horizontal,"(390.0, 762.0)",1.566666667,0.682,1,610.91
3,FALSE,141,0.684,41,,,"(1087, 896)",,1,76,1.266666667,"640.0, 512.0",vertical,"(390.0, 762.0)",1.6,0.56,1,616.185
3,FALSE,142,0.97,58,,,"(1099, 914)",,1,96,1.6,"640.0, 512.0",horizontal,"(390.0, 262.0)",1.316666667,0.607,1,620.552
3,FALSE,143,0.688,41,,,"(1090, 898)",,1,73,1.216666667,"640.0, 512.0",vertical,"(890.0, 262.0)",1,0.506,1,624.992
3,FALSE,144,1.005,60,,,"(1087, 887)",,1,110,1.833333333,"640.0, 512.0",vertical,"(890.0, 762.0)",1.116666667,0.804,0,628.685
3,FALSE,145,0.857,51,,,"(1065, 908)",,1,82,1.366666667,"640.0, 512.0",horizontal,"(890.0, 262.0)",1.466666667,0.494,1,633.114
3,FALSE,146,0.924,55,,,"(1096, 919)",,1,87,1.45,"640.0, 512.0",horizontal,"(890.0, 262.0)",1.65,0.513,1,641.458
3,FALSE,147,0.721,43,,,"(1102, 894)",,1,77,1.283333333,"640.0, 512.0",horizontal,"(390.0, 262.0)",1.566666667,0.54,1,646.025
3,FALSE,148,0.466,27,,,"(1116, 913)",,1,58,0.966666667,"640.0, 512.0",horizontal,"(890.0, 262.0)",1.5,0.493,1,650.319
3,FALSE,149,0.936,56,,,"(1093, 913)",,1,89,1.483333333,"640.0, 512.0",vertical,"(890.0, 262.0)",0.933333333,0.525,1,654.267
3,FALSE,150,1.26,75,,,"(1099, 914)",,1,103,1.716666667,"640.0, 512.0",vertical,"(890.0, 262.0)",1.216666667,0.447,1,658.269
3,FALSE,151,1.426,85,,,"(1118, 915)",,1,120,2,"640.0, 512.0",vertical,"(390.0, 262.0)",1.383333333,0.553,1,662.688
3,FALSE,152,1.283,76,,,"(1095, 889)",,1,114,1.9,"640.0, 512.0",vertical,"(390.0, 762.0)",0.533333333,0.605,1,667.53
3,FALSE,153,0.646,38,,,"(1090, 902)",,1,70,1.166666667,"640.0, 512.0",horizontal,"(890.0, 262.0)",1.466666667,0.506,1,671.45
3,FALSE,154,0.33,19,,,"(1087, 908)",,1,54,0.9,"640.0, 512.0",vertical,"(390.0, 262.0)",1.416666667,0.555,1,675.552
3,FALSE,155,0.604,36,,,"(1108, 899)",,1,71,1.183333333,"640.0, 512.0",horizontal,"(390.0, 762.0)",0.766666667,0.56,1,679.402
3,FALSE,156,0.445,26,,,"(1096, 908)",,1,63,1.05,"640.0, 512.0",vertical,"(390.0, 762.0)",1.533333333,0.594,1,682.837
3,FALSE,157,0.473,28,,,"(1088, 908)",,1,62,1.033333333,"640.0, 512.0",horizontal,"(890.0, 262.0)",0.816666667,0.542,1,686.914
3,FALSE,158,1.237,74,,,"(1123, 906)",,1,87,1.45,"640.0, 512.0",vertical,"(890.0, 262.0)",1.333333333,0.201,1,690.297
3,FALSE,159,0.696,41,,,"(1087, 906)",,1,78,1.3,"640.0, 512.0",horizontal,"(390.0, 262.0)",1.266666667,0.587,1,694.551
3,FALSE,160,1.215,72,,,"(1104, 912)",,1,107,1.783333333,"640.0, 512.0",horizontal,"(390.0, 262.0)",0.933333333,0.558,1,698.635
3,FALSE,161,1.133,67,,,"(1100, 888)",,1,100,1.666666667,"640.0, 512.0",horizontal,"(390.0, 262.0)",0.516666667,0.524,1,702.853
3,FALSE,162,0.809,48,,,"(1104, 905)",,1,81,1.35,"640.0, 512.0",horizontal,"(390.0, 262.0)",1.25,0.525,1,706.519
3,FALSE,163,0.667,40,,,"(1136, 904)",,1,"90, 90","1.5, 1.5","640.0, 512.0",horizontal,"(390.0, 262.0)",0.716666667,"0.811, 0.811",0,710.656
3,FALSE,164,1.301,78,,,"(1096, 897)",,1,113,1.883333333,"640.0, 512.0",horizontal,"(890.0, 762.0)",1.083333333,0.551,1,714.369
3,FALSE,165,1.045,62,,,"(1106, 903)",,1,97,1.616666667,"640.0, 512.0",horizontal,"(890.0, 262.0)",1.5,0.561,1,722.238
3,FALSE,166,0.623,37,,,"(1128, 898)",,1,83,1.383333333,"640.0, 512.0",vertical,"(390.0, 762.0)",0.683333333,0.735,1,726.863
3,FALSE,167,1.367,82,,,"(1107, 903)",,1,119,1.983333333,"640.0, 512.0",horizontal,"(890.0, 762.0)",0.616666667,0.591,1,730.427
3,FALSE,168,0.85,51,,,"(1105, 898)",,1,84,1.4,"640.0, 512.0",vertical,"(890.0, 762.0)",1.283333333,0.528,1,734.491
3,FALSE,169,0.428,25,,,"(1105, 896)",,1,61,1.016666667,"640.0, 512.0",horizontal,"(390.0, 262.0)",1.4,0.571,1,738.645
3,FALSE,170,1.149,68,,,"(1106, 898)",,1,104,1.733333333,"640.0, 512.0",horizontal,"(390.0, 762.0)",1.016666667,0.572,1,742.533
3,FALSE,171,0.487,29,,,"(1095, 904)",,1,64,1.066666667,"640.0, 512.0",horizontal,"(890.0, 262.0)",1.366666667,0.553,1,746.754
3,FALSE,172,1.491,89,,,"(1100, 896)",,1,117,1.95,"640.0, 512.0",vertical,"(890.0, 262.0)",1.466666667,0.443,1,750.681
3,FALSE,173,0.362,21,,,"(1094, 899)",,1,56,0.933333333,"640.0, 512.0",horizontal,"(390.0, 762.0)",0.766666667,0.558,1,755.552
3,FALSE,174,1.024,61,,,"(1093, 909)",,1,94,1.566666667,"640.0, 512.0",horizontal,"(890.0, 262.0)",1,0.522,1,758.747
3,FALSE,175,1.056,63,,,"(1105, 900)",,1,101,1.683333333,"640.0, 512.0",vertical,"(390.0, 762.0)",1.25,0.61,1,762.812
3,FALSE,176,1.231,73,,,"(1092, 905)",,1,109,1.816666667,"640.0, 512.0",horizontal,"(890.0, 762.0)",1.5,0.581,1,767.204
3,FALSE,177,0.417,25,,,"(1100, 919)",,1,70,1.166666667,"640.0, 512.0",horizontal,"(390.0, 762.0)",0.733333333,0.721,1,771.999
3,FALSE,178,0.476,28,,,"(1075, 895)",,1,61,1.016666667,"640.0, 512.0",vertical,"(890.0, 262.0)",0.733333333,0.528,1,775.365
3,FALSE,179,1.26,75,,,"(1118, 914)",,1,110,1.833333333,"640.0, 512.0",horizontal,"(390.0, 762.0)",1.516666667,0.561,1,778.668
3,FALSE,180,0.712,42,,,"(1072, 898)",,1,89,1.483333333,"640.0, 512.0",horizontal,"(390.0, 762.0)",1.333333333,0.755,1,783.502
4,FALSE,181,0.464,27,,,"(1093, 902)",,1,66,1.1,"640.0, 512.0",horizontal,"(390.0, 262.0)",0.733333333,0.621,1,787.832
4,FALSE,182,0.647,38,,,"(1053, 914)",,1,77,1.283333333,"640.0, 512.0",vertical,"(390.0, 262.0)",0.533333333,0.622,1,791.166
4,FALSE,183,0.637,38,,,"(1091, 909)",,1,76,1.266666667,"640.0, 512.0",horizontal,"(390.0, 262.0)",0.916666667,0.607,1,794.553
4,FALSE,184,0.673,40,,,"(1053, 884)",,1,75,1.25,"640.0, 512.0",horizontal,"(890.0, 762.0)",0.716666667,0.56,1,798.318
4,FALSE,185,0.301,18,,,"(1089, 896)",,1,56,0.933333333,"640.0, 512.0",vertical,"(890.0, 762.0)",0.5,0.604,1,801.934
4,FALSE,186,0.718,43,,,"(1097, 920)",,1,79,1.316666667,"640.0, 512.0",vertical,"(390.0, 762.0)",0.533333333,0.578,1,804.886
4,FALSE,187,0.567,34,,,"(1101, 911)",,1,69,1.15,"640.0, 512.0",vertical,"(890.0, 262.0)",0.883333333,0.553,1,808.267
4,FALSE,188,0.817,49,,,"(1072, 902)",,1,82,1.366666667,"640.0, 512.0",vertical,"(390.0, 262.0)",0.883333333,0.525,1,811.816
4,FALSE,189,0.804,48,,,"(1102, 895)",,1,82,1.366666667,"640.0, 512.0",horizontal,"(890.0, 762.0)",1.116666667,0.54,1,815.567
4,FALSE,190,1.46,87,,,"(1093, 913)",,1,131,2.183333333,"640.0, 512.0",vertical,"(390.0, 762.0)",1.216666667,0.706,1,819.567
4,FALSE,191,0.454,27,,,"(1112, 895)",,1,60,1,"640.0, 512.0",horizontal,"(390.0, 262.0)",1.066666667,0.525,1,824.424
4,FALSE,192,0.578,34,,,"(1107, 907)",,1,70,1.166666667,"640.0, 512.0",vertical,"(890.0, 762.0)",1.383333333,0.576,1,827.97
4,FALSE,193,0.803,48,,,"(1112, 900)",,1,84,1.4,"640.0, 512.0",horizontal,"(390.0, 262.0)",1.016666667,0.57,1,832.017
4,FALSE,194,1.453,87,,,"(1117, 914)",,1,121,2.016666667,"640.0, 512.0",horizontal,"(390.0, 762.0)",1.283333333,0.542,1,835.918
4,FALSE,195,0.734,44,,,"(1101, 906)",,1,76,1.266666667,"640.0, 512.0",horizontal,"(390.0, 262.0)",1.45,0.504,1,840.671
4,FALSE,196,0.645,38,,,"(1101, 880)",,1,73,1.216666667,"640.0, 512.0",vertical,"(890.0, 262.0)",1.466666667,0.555,1,844.935
4,FALSE,197,0.382,22,,,"(1109, 893)",,1,58,0.966666667,"640.0, 512.0",horizontal,"(390.0, 262.0)",1.233333333,0.575,1,883.802
4,FALSE,198,0.86,51,,,"(1106, 870)",,1,84,1.4,"640.0, 512.0",horizontal,"(890.0, 262.0)",1.583333333,0.522,1,887.477
4,FALSE,199,0.316,18,,,"(1116, 898)",,1,52,0.866666667,"640.0, 512.0",vertical,"(890.0, 762.0)",0.9,0.54,1,891.913
4,FALSE,200,1.231,73,,,"(1147, 898)",,1,108,1.8,"640.0, 512.0",horizontal,"(390.0, 762.0)",0.983333333,0.557,1,895.148
4,FALSE,201,0.903,54,,,"(1110, 907)",,1,88,1.466666667,"640.0, 512.0",horizontal,"(390.0, 762.0)",1.583333333,0.541,1,899.413
4,FALSE,202,1.284,77,,,"(1111, 906)",,1,111,1.85,"640.0, 512.0",vertical,"(390.0, 262.0)",1.1,0.545,1,903.951
4,FALSE,203,1.046,62,,,"(1096, 906)",,1,96,1.6,"640.0, 512.0",horizontal,"(890.0, 762.0)",1.183333333,0.544,1,908.368
4,FALSE,204,1.286,77,,,"(1105, 901)",,1,127,2.116666667,"640.0, 512.0",vertical,"(890.0, 762.0)",1,0.804,0,912.789
4,FALSE,205,1.09,65,,,"(1133, 879)",,1,101,1.683333333,"640.0, 512.0",horizontal,"(390.0, 262.0)",1.05,0.574,1,917.384
4,FALSE,206,1.344,80,,,"(1117, 919)",,1,115,1.916666667,"640.0, 512.0",horizontal,"(890.0, 762.0)",0.783333333,0.559,1,921.654
4,FALSE,207,0.881,52,,,"(1117, 865)",,1,86,1.433333333,"640.0, 512.0",horizontal,"(890.0, 262.0)",1.383333333,0.539,1,925.952
4,FALSE,208,0.812,48,,,"(1109, 903)",,1,83,1.383333333,"640.0, 512.0",vertical,"(890.0, 762.0)",0.8,0.564,1,930.237
4,FALSE,209,0.659,39,,,"(1124, 917)",,1,80,1.333333333,"640.0, 512.0",vertical,"(390.0, 762.0)",1.533333333,0.653,1,933.92
4,FALSE,210,0.961,57,,,"(1095, 915)",,1,93,1.55,"640.0, 512.0",vertical,"(390.0, 762.0)",1.083333333,0.573,1,938.232
4,FALSE,211,0.45,27,,,"(1095, 912)",,1,60,1,"640.0, 512.0",vertical,"(890.0, 762.0)",1.45,0.528,1,942.348
4,FALSE,212,0.395,23,,,"(1123, 893)",,1,60,1,"640.0, 512.0",vertical,"(890.0, 262.0)",0.75,0.594,1,946.286
4,FALSE,213,0.826,49,,,"(1114, 914)",,1,85,1.416666667,"640.0, 512.0",vertical,"(390.0, 262.0)",1.566666667,0.569,1,949.507
4,FALSE,214,0.382,22,,,"(1102, 898)",,1,57,0.95,"640.0, 512.0",vertical,"(390.0, 262.0)",1.2,0.563,1,953.979
4,FALSE,215,1.439,86,,,"(1107, 889)",,1,122,2.033333333,"640.0, 512.0",vertical,"(390.0, 262.0)",0.683333333,0.571,1,957.641
4,FALSE,216,0.924,55,,,"(1103, 902)",,1,90,1.5,"640.0, 512.0",vertical,"(890.0, 762.0)",0.8,0.557,1,961.781
4,FALSE,217,1.448,86,,,"(1112, 898)",,1,123,2.05,"640.0, 512.0",vertical,"(890.0, 262.0)",1.166666667,0.59,1,965.564
4,FALSE,218,0.815,48,,,"(1117, 898)",,1,83,1.383333333,"640.0, 512.0",horizontal,"(890.0, 762.0)",0.983333333,0.564,1,970.298
4,FALSE,219,1.25,75,,,"(1119, 884)",,1,109,1.816666667,"640.0, 512.0",vertical,"(890.0, 262.0)",1.45,0.539,1,974.183
4,FALSE,220,0.962,57,,,"(1096, 912)",,1,100,1.666666667,"640.0, 512.0",horizontal,"(390.0, 762.0)",0.683333333,0.684,1,978.914
4,FALSE,221,1.154,69,,,"(1118, 910)",,1,111,1.85,"640.0, 512.0",horizontal,"(390.0, 762.0)",1.566666667,0.67,1,982.765
4,FALSE,222,0.911,54,,,"(1108, 898)",,1,92,1.533333333,"640.0, 512.0",horizontal,"(390.0, 762.0)",1.466666667,0.607,1,987.619
4,FALSE,223,0.478,28,,,"(1103, 905)",,1,73,1.216666667,"640.0, 512.0",vertical,"(390.0, 762.0)",0.5,0.718,1,992.132
4,FALSE,224,1.167,70,,,"(1113, 909)",,1,107,1.783333333,"640.0, 512.0",vertical,"(890.0, 762.0)",1.233333333,0.593,1,995.383
4,FALSE,225,0.563,33,,,"(1126, 918)",,1,67,1.116666667,"640.0, 512.0",horizontal,"(890.0, 262.0)",1.583333333,0.538,1,999.836
4,FALSE,226,0.357,21,,,"(1110, 872)",,1,56,0.933333333,"640.0, 512.0",vertical,"(890.0, 762.0)",1.383333333,0.555,1,1003.986
4,FALSE,227,0.915,54,,,"(1105, 905)",,1,90,1.5,"640.0, 512.0",horizontal,"(390.0, 262.0)",0.616666667,0.58,1,1007.779
4,FALSE,228,0.688,41,,,"(1092, 901)",,1,87,1.45,"640.0, 512.0",horizontal,"(890.0, 262.0)",1.066666667,0.741,1,1011.399
4,FALSE,229,0.312,18,,,"(1099, 921)",,1,53,0.883333333,"640.0, 512.0",vertical,"(890.0, 262.0)",0.85,0.559,1,1015.433
4,FALSE,230,1.099,65,,,"(1081, 913)",,1,115,1.916666667,"640.0, 512.0",horizontal,"(890.0, 762.0)",1,0.8,0,1018.704
4,FALSE,231,0.596,35,,,"(1150, 918)",,1,73,1.216666667,"640.0, 512.0",horizontal,"(390.0, 762.0)",1.466666667,0.608,1,1023.487
4,FALSE,232,0.68,40,,,"(1109, 906)",,1,73,1.216666667,"640.0, 512.0",vertical,"(890.0, 262.0)",1.233333333,0.528,1,1095.769
4,FALSE,233,1.38,82,,,"(1109, 920)",,1,123,2.05,"640.0, 512.0",vertical,"(890.0, 262.0)",0.75,0.66,1,1099.791
4,FALSE,234,0.732,43,,,"(1099, 903)",,1,78,1.3,"640.0, 512.0",vertical,"(890.0, 762.0)",1.416666667,0.56,1,1104.091
4,FALSE,235,0.986,59,,,"(1127, 897)",,1,99,1.65,"640.0, 512.0",horizontal,"(890.0, 762.0)",1.25,0.64,1,1108.286
4,FALSE,236,0.85,51,,,"(1117, 893)",,1,87,1.45,"640.0, 512.0",vertical,"(890.0, 762.0)",0.733333333,0.572,1,1112.605
4,FALSE,237,0.441,26,,,"(1130, 913)",,1,65,1.083333333,"640.0, 512.0",vertical,"(390.0, 262.0)",1.616666667,0.618,1,1116.184
4,FALSE,238,0.824,49,,,"(1116, 913)",,1,83,1.383333333,"640.0, 512.0",horizontal,"(390.0, 262.0)",1.016666667,0.542,1,1120.391
4,FALSE,239,0.641,38,,,"(1102, 912)",,1,71,1.183333333,"640.0, 512.0",horizontal,"(890.0, 262.0)",1.216666667,0.518,1,1124.239
4,FALSE,240,0.736,44,,,"(1118, 908)",,1,80,1.333333333,"640.0, 512.0",vertical,"(390.0, 262.0)",0.95,0.574,1,1128.142
5,FALSE,241,0.432,25,,,"(1099, 902)",,1,62,1.033333333,"640.0, 512.0",vertical,"(390.0, 262.0)",0.783333333,0.585,1,1131.871
5,FALSE,242,1.236,74,,,"(1121, 899)",,1,114,1.9,"640.0, 512.0",vertical,"(890.0, 262.0)",0.55,0.637,1,1135.172
5,FALSE,243,0.86,51,,,"(1099, 901)",,1,87,1.45,"640.0, 512.0",horizontal,"(890.0, 262.0)",1.433333333,0.573,1,1139.12
5,FALSE,244,0.435,26,,,"(1136, 889)",,1,28,0.466666667,"640.0, 512.0",vertical,"(890.0, 262.0)",1.516666667,0.02,1,1143.478
5,FALSE,245,1.381,82,,,"(1117, 903)",,1,113,1.883333333,"640.0, 512.0",vertical,"(890.0, 262.0)",1.183333333,0.49,1,1146.87
5,FALSE,246,0.625,37,,,"(1154, 903)",,1,75,1.25,"640.0, 512.0",horizontal,"(390.0, 262.0)",1.116666667,0.607,1,1151.413
5,FALSE,247,1.113,66,,,"(1110, 903)",,1,103,1.716666667,"640.0, 512.0",horizontal,"(890.0, 262.0)",0.533333333,0.594,1,1169.603
5,FALSE,248,1.313,78,,,"(1099, 897)",,1,124,2.066666667,"640.0, 512.0",horizontal,"(390.0, 262.0)",1.583333333,0.746,1,1173.36
5,FALSE,249,0.78,46,,,"(1123, 889)",,1,89,1.483333333,"640.0, 512.0",horizontal,"(890.0, 762.0)",1.1,0.686,1,1178.479
5,FALSE,250,1.45,87,,,"(1101, 926)",,1,118,1.966666667,"640.0, 512.0",vertical,"(890.0, 262.0)",1.15,0.492,1,1182.503
5,FALSE,251,1.366,81,,,"(1093, 896)",,1,114,1.9,"640.0, 512.0",vertical,"(890.0, 262.0)",1.283333333,0.524,1,1187.087
5,FALSE,252,1.124,67,,,"(1117, 889)",,1,104,1.733333333,"640.0, 512.0",vertical,"(390.0, 262.0)",1.133333333,0.589,1,1191.762
5,FALSE,253,0.47,28,,,"(1116, 904)",,1,61,1.016666667,"640.0, 512.0",vertical,"(890.0, 262.0)",1.666666667,0.526,1,1196.1
5,FALSE,254,0.63,37,,,"(1142, 876)",,1,71,1.183333333,"640.0, 512.0",vertical,"(390.0, 262.0)",1.566666667,0.541,1,1200.287
5,FALSE,255,0.574,34,,,"(1148, 900)",,1,70,1.166666667,"640.0, 512.0",horizontal,"(390.0, 762.0)",1,0.581,1,1204.465
5,FALSE,256,1.252,75,,,"(1085, 904)",,1,111,1.85,"640.0, 512.0",vertical,"(390.0, 762.0)",1.45,0.571,1,1208.099
5,FALSE,257,1.264,75,,,"(1102, 916)",,1,109,1.816666667,"640.0, 512.0",vertical,"(890.0, 762.0)",1.066666667,0.545,1,1212.872
5,FALSE,258,0.927,55,,,"(1096, 907)",,1,91,1.516666667,"640.0, 512.0",horizontal,"(390.0, 762.0)",0.983333333,0.57,1,1217.269
5,FALSE,259,0.841,50,,,"(1100, 879)",,1,85,1.416666667,"640.0, 512.0",vertical,"(890.0, 762.0)",1.3,0.553,1,1221.268
5,FALSE,260,0.434,26,,,"(1125, 913)",,1,76,1.266666667,"640.0, 512.0",horizontal,"(890.0, 762.0)",1.516666667,0.806,0,1225.438
5,FALSE,261,1.22,73,,,"(1150, 893)",,1,108,1.8,"640.0, 512.0",vertical,"(390.0, 262.0)",0.683333333,0.558,1,1229.709
5,FALSE,262,0.781,46,,,"(1136, 894)",,1,83,1.383333333,"640.0, 512.0",vertical,"(390.0, 762.0)",1.433333333,0.589,1,1233.739
5,FALSE,263,0.679,40,,,"(1102, 912)",,1,75,1.25,"640.0, 512.0",horizontal,"(890.0, 262.0)",1,0.56,1,1238.275
5,FALSE,264,0.387,23,,,"(1121, 898)",,1,59,0.983333333,"640.0, 512.0",vertical,"(890.0, 762.0)",1.183333333,0.576,1,1242.022
5,FALSE,265,0.522,31,,,"(1109, 910)",,1,66,1.1,"640.0, 512.0",horizontal,"(390.0, 762.0)",1.583333333,0.561,1,1245.675
5,FALSE,266,1.301,78,,,"(1088, 886)",,1,112,1.866666667,"640.0, 512.0",vertical,"(890.0, 262.0)",1.666666667,0.538,1,1249.828
5,FALSE,267,0.579,34,,,"(1103, 893)",,1,71,1.183333333,"640.0, 512.0",vertical,"(390.0, 262.0)",0.7,0.589,1,1254.882
5,FALSE,268,1.121,67,,,"(1103, 903)",,1,98,1.633333333,"640.0, 512.0",vertical,"(390.0, 262.0)",1.583333333,0.492,1,1258.27
5,FALSE,269,1.084,65,,,"(1099, 895)",,1,101,1.683333333,"640.0, 512.0",vertical,"(390.0, 262.0)",0.683333333,0.572,1,1262.904
5,FALSE,270,0.496,29,,,"(1123, 903)",,1,65,1.083333333,"640.0, 512.0",horizontal,"(890.0, 762.0)",1.116666667,0.574,1,1266.74
5,FALSE,271,0.847,50,,,"(1101, 884)",,1,90,1.5,"640.0, 512.0",horizontal,"(890.0, 762.0)",1.016666667,0.64,1,1270.424
5,FALSE,272,1.309,78,,,"(1095, 912)",,1,113,1.883333333,"640.0, 512.0",vertical,"(890.0, 262.0)",1.433333333,0.562,1,1274.383
5,FALSE,273,0.437,26,,,"(1102, 900)",,1,66,1.1,"640.0, 512.0",horizontal,"(390.0, 762.0)",0.566666667,0.636,1,1279.199
5,FALSE,274,0.492,29,,,"(1095, 894)",,1,66,1.1,"640.0, 512.0",horizontal,"(890.0, 262.0)",0.9,0.594,1,1282.37
5,FALSE,275,1.455,87,,,"(1095, 894)",,1,125,2.083333333,"640.0, 512.0",vertical,"(390.0, 762.0)",0.5,0.604,1,1285.903
5,FALSE,276,0.42,25,,,"(1099, 889)",,1,61,1.016666667,"640.0, 512.0",horizontal,"(890.0, 762.0)",1.383333333,0.574,1,1289.971
5,FALSE,277,0.941,56,,,"(1099, 905)",,1,91,1.516666667,"640.0, 512.0",vertical,"(390.0, 262.0)",1.05,0.557,1,1293.869
5,FALSE,278,1.395,83,,,"(1123, 888)",,1,124,2.066666667,"640.0, 512.0",horizontal,"(890.0, 762.0)",1.1,0.65,1,1297.916
5,FALSE,279,1.151,69,,,"(1104, 895)",,1,106,1.766666667,"640.0, 512.0",vertical,"(890.0, 762.0)",1.05,0.588,1,1302.62
5,FALSE,280,1.32,79,,,"(1109, 907)",,1,112,1.866666667,"640.0, 512.0",horizontal,"(390.0, 762.0)",0.75,0.528,1,1306.915
5,FALSE,281,0.666,39,,,"(1093, 904)",,1,89,1.483333333,"640.0, 512.0",vertical,"(890.0, 262.0)",1.383333333,0.797,0,1310.997
5,FALSE,282,0.776,46,,,"(1196, 902)",,1,96,1.6,"640.0, 512.0",vertical,"(390.0, 762.0)",1.533333333,0.797,0,1315.346
5,FALSE,283,0.694,41,,,"(1130, 895)",,1,79,1.316666667,"640.0, 512.0",horizontal,"(890.0, 262.0)",1.216666667,0.599,1,1394.903
5,FALSE,284,0.785,47,,,"(1105, 901)",,1,81,1.35,"640.0, 512.0",horizontal,"(390.0, 762.0)",1.566666667,0.537,1,1398.921
5,FALSE,285,1.281,76,,,"(1140, 906)",,1,126,2.1,"640.0, 512.0",vertical,"(390.0, 762.0)",0.766666667,0.797,0,1403.353
5,FALSE,286,0.686,41,,,"(1170, 877)",,1,76,1.266666667,"640.0, 512.0",vertical,"(890.0, 262.0)",0.583333333,0.56,1,1407.735
5,FALSE,287,1.37,82,,,"(1098, 874)",,1,118,1.966666667,"640.0, 512.0",vertical,"(890.0, 762.0)",1.266666667,0.575,1,1411.106
5,FALSE,288,1.309,78,,,"(1112, 902)",,1,128,2.133333333,"640.0, 512.0",vertical,"(390.0, 762.0)",1.316666667,0.799,0,1415.767
5,FALSE,289,0.416,24,,,"(1158, 882)",,1,53,0.883333333,"640.0, 512.0",vertical,"(390.0, 262.0)",0.933333333,0.459,1,1420.7
5,FALSE,290,0.336,20,,,"(1122, 908)",,1,53,0.883333333,"640.0, 512.0",horizontal,"(390.0, 262.0)",0.916666667,0.519,1,2207.289
5,FALSE,291,0.969,58,,,"(1126, 898)",,1,95,1.583333333,"640.0, 512.0",vertical,"(390.0, 262.0)",1.616666667,0.588,1,2210.592
5,FALSE,292,0.77,46,,,"(1089, 908)",,1,76,1.266666667,"640.0, 512.0",horizontal,"(390.0, 262.0)",0.733333333,0.48,1,2215.235
5,FALSE,293,0.894,53,,,"(1090, 893)",,1,83,1.383333333,"640.0, 512.0",horizontal,"(390.0, 762.0)",0.7,0.475,1,2218.738
5,FALSE,294,1.144,68,,,"(1116, 889)",,1,98,1.633333333,"640.0, 512.0",vertical,"(390.0, 262.0)",0.966666667,0.479,1,2222.358
5,FALSE,295,0.457,27,,,"(1109, 898)",,1,58,0.966666667,"640.0, 512.0",vertical,"(390.0, 762.0)",1.383333333,0.494,1,2226.412
5,FALSE,296,1.417,85,,,"(1093, 913)",,1,116,1.933333333,"640.0, 512.0",horizontal,"(890.0, 762.0)",1.566666667,0.492,1,2232.623
5,FALSE,297,0.375,22,,,"(1100, 919)",,1,56,0.933333333,"640.0, 512.0",horizontal,"(890.0, 762.0)",0.716666667,0.543,1,2237.759
5,FALSE,298,1.473,88,,,"(1143, 918)",,1,118,1.966666667,"640.0, 512.0",horizontal,"(890.0, 262.0)",1.183333333,0.472,1,2240.922
5,FALSE,299,0.816,48,,,"(1116, 902)",,1,81,1.35,"640.0, 512.0",vertical,"(390.0, 262.0)",0.916666667,0.523,1,2245.515
5,FALSE,300,0.636,38,,,"(1123, 889)",,1,72,1.2,"640.0, 512.0",vertical,"(390.0, 762.0)",1.333333333,0.546,1,2249.238
6,FALSE,301,0.927,55,,,"(1116, 898)",,1,91,1.516666667,"640.0, 512.0",horizontal,"(890.0, 762.0)",1.233333333,0.57,1,2253.39
6,FALSE,302,0.684,41,,,"(1117, 903)",,1,75,1.25,"640.0, 512.0",horizontal,"(890.0, 762.0)",1.35,0.534,1,2257.691
6,FALSE,303,1.374,82,,,"(1146, 893)",,1,113,1.883333333,"640.0, 512.0",horizontal,"(390.0, 262.0)",1.433333333,0.492,1,2261.725
6,FALSE,304,0.329,19,,,"(1100, 898)",,1,52,0.866666667,"640.0, 512.0",vertical,"(890.0, 262.0)",0.583333333,0.526,1,2266.459
6,FALSE,305,0.377,22,,,"(1146, 902)",,1,69,1.15,"640.0, 512.0",vertical,"(390.0, 262.0)",0.6,0.754,1,2269.491
6,FALSE,306,0.339,20,,,"(1120, 892)",,1,50,0.833333333,"640.0, 512.0",horizontal,"(390.0, 262.0)",1.666666667,0.481,1,2272.703
6,FALSE,307,0.505,30,,,"(1134, 911)",,1,66,1.1,"640.0, 512.0",vertical,"(390.0, 262.0)",0.933333333,0.577,1,2276.658
6,FALSE,308,0.906,54,,,"(1179, 899)",,1,86,1.433333333,"640.0, 512.0",horizontal,"(390.0, 762.0)",1.616666667,0.504,1,2280.19
6,FALSE,309,1.463,87,,,"(1125, 900)",,1,,,"640.0, 512.0",vertical,"(890.0, 762.0)",,0,0,2322.018
6,FALSE,310,0.447,26,,,"(1146, 901)",,1,64,1.066666667,"640.0, 512.0",horizontal,"(890.0, 262.0)",1.066666667,0.61,1,2325.531
6,FALSE,311,0.632,37,,,"(1128, 888)",,1,70,1.166666667,"640.0, 512.0",horizontal,"(890.0, 762.0)",1.233333333,0.521,1,2329.603
6,FALSE,312,1.332,79,,,"(1117, 884)",,1,115,1.916666667,"640.0, 512.0",horizontal,"(890.0, 762.0)",1.683333333,0.572,1,2333.503
6,FALSE,313,1.254,75,,,"(1093, 884)",,1,109,1.816666667,"640.0, 512.0",horizontal,"(390.0, 762.0)",1.666666667,0.542,1,2338.614
6,FALSE,314,0.539,32,,,"(1124, 909)",,1,66,1.1,"640.0, 512.0",vertical,"(390.0, 262.0)",0.916666667,0.541,1,2343.819
6,FALSE,315,0.445,26,,,"(1118, 900)",,1,69,1.15,"640.0, 512.0",horizontal,"(390.0, 762.0)",1.4,0.692,1,2347.334
6,FALSE,316,0.616,36,,,"(1101, 899)",,1,68,1.133333333,"640.0, 512.0",horizontal,"(390.0, 262.0)",1.016666667,0.508,1,2351.334
6,FALSE,317,1.427,85,,,"(1149, 902)",,1,114,1.9,"640.0, 512.0",horizontal,"(890.0, 262.0)",1.4,0.458,1,2354.93
6,FALSE,318,1.146,68,,,"(1110, 903)",,1,100,1.666666667,"640.0, 512.0",vertical,"(390.0, 262.0)",1.116666667,0.512,1,2359.654
6,FALSE,319,1.199,71,,,"(1153, 878)",,1,103,1.716666667,"640.0, 512.0",horizontal,"(390.0, 762.0)",1.3,0.521,1,2363.992
6,FALSE,320,0.347,20,,,"(1130, 894)",,1,59,0.983333333,"640.0, 512.0",horizontal,"(890.0, 762.0)",0.533333333,0.623,1,2368.453
6,FALSE,321,0.505,30,,,"(1179, 898)",,1,62,1.033333333,"640.0, 512.0",horizontal,"(390.0, 762.0)",0.883333333,0.51,1,2371.438
6,FALSE,322,0.386,23,,,"(1111, 901)",,1,55,0.916666667,"640.0, 512.0",vertical,"(390.0, 762.0)",0.833333333,0.515,1,2374.792
6,FALSE,323,0.328,19,,,"(1130, 913)",,1,64,1.066666667,"640.0, 512.0",horizontal,"(390.0, 262.0)",0.9,0.73,1,2379.822
6,FALSE,324,1.444,86,,,"(1153, 899)",,1,111,1.85,"640.0, 512.0",horizontal,"(890.0, 262.0)",1.633333333,0.395,1,2383.284
6,FALSE,325,0.454,27,,,"(1117, 896)",,1,63,1.05,"640.0, 512.0",horizontal,"(390.0, 762.0)",0.566666667,0.573,1,2388.193
6,FALSE,326,0.578,34,,,"(1203, 269), (1050, 471), (1209, 610), (1069, 543), (1058, 1009), (1099, 255), (1161, 907)",,"0, 0, 0, 0, 0, 0, 1",66,1.1,"640.0, 512.0",horizontal,"(390.0, 262.0)",0.95,0.515,1,2391.27
6,FALSE,327,1.189,71,,,"(1144, 876)",,1,99,1.65,"640.0, 512.0",horizontal,"(390.0, 262.0)",1.683333333,0.455,1,2692.36
6,FALSE,328,0.572,34,,,"(1130, 905)",,1,68,1.133333333,"640.0, 512.0",vertical,"(390.0, 262.0)",1.15,0.542,1,2697.119
6,FALSE,329,1.407,84,,,"(1120, 893)",,1,123,2.05,"640.0, 512.0",vertical,"(890.0, 762.0)",1.183333333,0.63,1,2700.846
6,FALSE,330,1.168,70,,,"(1138, 911)",,1,109,1.816666667,"640.0, 512.0",vertical,"(890.0, 762.0)",1.1,0.619,1,2705.527
6,FALSE,331,0.7,42,,,"(1117, 906)",,1,74,1.233333333,"640.0, 512.0",horizontal,"(890.0, 762.0)",0.833333333,0.508,1,2709.858
6,FALSE,332,1.489,89,,,"(1138, 896)",,1,128,2.133333333,"640.0, 512.0",horizontal,"(890.0, 762.0)",0.633333333,0.623,1,2713.399
6,FALSE,333,1.199,71,,,"(1149, 906)",,1,104,1.733333333,"640.0, 512.0",horizontal,"(890.0, 262.0)",0.7,0.523,1,2717.645
6,FALSE,334,1.488,89,,,"(1130, 903)",,1,127,2.116666667,"640.0, 512.0",vertical,"(390.0, 262.0)",1.25,0.604,1,2721.559
6,FALSE,335,0.899,53,,,"(1078, 896)",,1,83,1.383333333,"640.0, 512.0",horizontal,"(890.0, 262.0)",0.55,0.483,1,2726.366
6,FALSE,336,1.02,61,,,"(1130, 909)",,1,103,1.716666667,"640.0, 512.0",vertical,"(890.0, 762.0)",1.433333333,0.674,1,2729.874
6,FALSE,337,0.307,18,,,"(1119, 897)",,1,53,0.883333333,"640.0, 512.0",horizontal,"(390.0, 262.0)",0.883333333,0.562,1,2734.473
6,FALSE,338,1.48,88,,,"(1118, 906)",,1,120,2,"640.0, 512.0",vertical,"(390.0, 762.0)",0.7,0.509,1,2737.727
6,FALSE,339,0.872,52,,,"(1093, 897)",,1,92,1.533333333,"640.0, 512.0",horizontal,"(890.0, 262.0)",0.533333333,0.643,1,2741.92
6,FALSE,340,1.353,81,,,"(1083, 910)",,1,116,1.933333333,"640.0, 512.0",horizontal,"(390.0, 762.0)",0.516666667,0.554,1,2745.652
6,FALSE,341,0.545,32,,,"(1099, 904)",,1,69,1.15,"640.0, 512.0",vertical,"(890.0, 762.0)",0.6,0.591,1,2749.606
6,FALSE,342,1.375,82,,,"(1114, 914)",,1,113,1.883333333,"640.0, 512.0",horizontal,"(390.0, 762.0)",1.016666667,0.503,1,2752.927
6,FALSE,343,0.326,19,,,"(1127, 906)",,1,66,1.1,"640.0, 512.0",horizontal,"(390.0, 762.0)",1.2,0.755,1,2757.345
6,FALSE,344,0.897,53,,,"(1106, 909)",,1,86,1.433333333,"640.0, 512.0",horizontal,"(890.0, 762.0)",1.266666667,0.525,1,2761.153
6,FALSE,345,1.083,64,,,"(1118, 913)",,1,103,1.716666667,"640.0, 512.0",horizontal,"(890.0, 762.0)",1.266666667,0.624,1,2765.36
6,FALSE,346,0.978,58,,,"(1103, 928)",,1,91,1.516666667,"640.0, 512.0",horizontal,"(890.0, 262.0)",1.066666667,0.524,1,2772.535
6,FALSE,347,0.775,46,,,"(1096, 903)",,1,83,1.383333333,"640.0, 512.0",vertical,"(890.0, 762.0)",1.6,0.595,1,2776.687
6,FALSE,348,0.905,54,,,"(1130, 909)",,1,87,1.45,"640.0, 512.0",vertical,"(390.0, 762.0)",0.516666667,0.523,1,2781.257
6,FALSE,349,1.448,86,,,"(1100, 906)",,1,123,2.05,"640.0, 512.0",vertical,"(890.0, 262.0)",0.6,0.592,1,2784.645
6,FALSE,350,0.736,44,,,"(1127, 901)",,1,76,1.266666667,"640.0, 512.0",vertical,"(890.0, 262.0)",1.383333333,0.507,1,2788.777
6,FALSE,351,1.02,61,,,"(1130, 907)",,1,102,1.7,"640.0, 512.0",vertical,"(890.0, 262.0)",0.716666667,0.658,1,2792.879
6,FALSE,352,0.414,24,,,"(1093, 919)",,1,55,0.916666667,"640.0, 512.0",vertical,"(390.0, 762.0)",0.516666667,0.496,1,2796.777
6,FALSE,353,1.108,66,,,"(1102, 911)",,1,99,1.65,"640.0, 512.0",horizontal,"(390.0, 262.0)",0.916666667,0.524,1,2801.837
6,FALSE,354,0.927,55,,,"(1063, 916)",,1,85,1.416666667,"640.0, 512.0",horizontal,"(890.0, 262.0)",0.516666667,0.474,1,2805.877
6,FALSE,355,1.375,82,,,"(1113, 924)",,1,120,2,"640.0, 512.0",horizontal,"(890.0, 762.0)",0.55,0.601,1,2809.407
6,FALSE,356,0.905,54,,,"(1087, 906)",,1,85,1.416666667,"640.0, 512.0",vertical,"(890.0, 762.0)",1.166666667,0.502,1,2813.424
6,FALSE,357,0.893,53,,,"(1056, 937)",,1,84,1.4,"640.0, 512.0",vertical,"(390.0, 762.0)",1.05,0.491,1,2817.507
6,FALSE,358,0.318,19,,,"(1095, 922)",,1,58,0.966666667,"640.0, 512.0",vertical,"(890.0, 762.0)",1.05,0.621,1,2821.788
6,FALSE,359,0.962,57,,,"(1102, 921)",,1,95,1.583333333,"640.0, 512.0",vertical,"(890.0, 262.0)",1.333333333,0.615,1,2825.446
6,FALSE,360,1.14,68,,,"(1074, 919)",,1,99,1.65,"640.0, 512.0",horizontal,"(390.0, 262.0)",1.25,0.491,1,2829.89
7,FALSE,361,1.146,68,,,"(1074, 918)",,1,101,1.683333333,"640.0, 512.0",vertical,"(890.0, 262.0)",0.85,0.53,1,2836.927
7,FALSE,362,1.121,67,,,"(1099, 916)",,1,99,1.65,"640.0, 512.0",vertical,"(890.0, 762.0)",0.533333333,0.51,1,2840.985
7,FALSE,363,0.659,39,,,"(1099, 918)",,1,71,1.183333333,"640.0, 512.0",horizontal,"(890.0, 762.0)",1.116666667,0.512,1,2844.657
7,FALSE,364,0.424,25,,,"(1106, 891)",,1,52,0.866666667,"640.0, 512.0",vertical,"(890.0, 262.0)",1.116666667,0.426,1,2848.428
7,FALSE,365,0.588,35,,,"(1093, 892)",,1,66,1.1,"640.0, 512.0",horizontal,"(890.0, 762.0)",1.266666667,0.492,1,2852.672
7,FALSE,366,0.554,33,,,"(1073, 902)",,1,63,1.05,"640.0, 512.0",horizontal,"(890.0, 762.0)",1,0.474,1,2856.545
7,FALSE,367,0.314,18,,,"(1120, 901)",,1,48,0.8,"640.0, 512.0",vertical,"(890.0, 262.0)",1.316666667,0.475,1,2860.295
7,FALSE,368,0.379,22,,,"(1093, 903)",,1,61,1.016666667,"640.0, 512.0",horizontal,"(390.0, 762.0)",0.566666667,0.63,1,2863.91
7,FALSE,369,0.556,33,,,"(1103, 919)",,1,65,1.083333333,"640.0, 512.0",horizontal,"(890.0, 262.0)",1.25,0.511,1,2867.001
7,FALSE,370,0.756,45,,,"(1118, 903)",,1,76,1.266666667,"640.0, 512.0",horizontal,"(890.0, 262.0)",1.116666667,0.494,1,2870.866
7,FALSE,371,0.6,36,,,"(1131, 913)",,1,"86, 86","1.4333333333333333, 1.4333333333333333","640.0, 512.0",horizontal,"(390.0, 262.0)",1.1,"0.806, 0.806",0,2874.703
7,FALSE,372,0.802,48,,,"(1133, 915)",,1,80,1.333333333,"640.0, 512.0",vertical,"(390.0, 262.0)",1.083333333,0.514,1,2878.719
7,FALSE,373,1.127,67,,,"(1118, 922)",,1,99,1.65,"640.0, 512.0",vertical,"(890.0, 262.0)",0.866666667,0.514,1,2890.858
7,FALSE,374,1.006,60,,,"(1123, 903)",,1,90,1.5,"640.0, 512.0",vertical,"(890.0, 262.0)",0.65,0.478,1,2894.963
7,FALSE,375,0.44,26,,,"(1106, 929)",,1,58,0.966666667,"640.0, 512.0",horizontal,"(390.0, 762.0)",1.35,0.514,1,2898.65
7,FALSE,376,0.347,20,,,"(1092, 918)",,1,52,0.866666667,"640.0, 512.0",horizontal,"(390.0, 762.0)",0.9,0.511,1,2902.444
7,FALSE,377,0.701,42,,,"(1090, 916)",,1,74,1.233333333,"640.0, 512.0",horizontal,"(390.0, 762.0)",1.5,0.507,1,2906.012
7,FALSE,378,1.251,75,,,"(1068, 927)",,1,108,1.8,"640.0, 512.0",vertical,"(390.0, 262.0)",0.5,0.533,1,2910.244
7,FALSE,379,1.308,78,,,"(1093, 913)",,1,110,1.833333333,"640.0, 512.0",vertical,"(890.0, 762.0)",1.2,0.505,1,2914.106
7,FALSE,380,1.002,60,,,"(1091, 904)",,1,104,1.733333333,"640.0, 512.0",vertical,"(390.0, 262.0)",1.4,0.704,1,2918.585
7,FALSE,381,0.484,29,,,"(1070, 893)",,1,64,1.066666667,"640.0, 512.0",vertical,"(390.0, 762.0)",1.316666667,0.557,1,2923.174
7,FALSE,382,1.284,77,,,"(1093, 903)",,1,110,1.833333333,"640.0, 512.0",horizontal,"(890.0, 262.0)",0.833333333,0.528,1,2927.229
7,FALSE,383,0.875,52,,,"(1099, 894)",,1,82,1.366666667,"640.0, 512.0",vertical,"(890.0, 262.0)",0.916666667,0.479,1,2931.384
7,FALSE,384,0.361,21,,,"(1101, 909)",,1,57,0.95,"640.0, 512.0",vertical,"(390.0, 762.0)",0.983333333,0.572,1,2941.755
7,FALSE,385,1.14,68,,,"(1093, 892)",,1,102,1.7,"640.0, 512.0",horizontal,"(390.0, 262.0)",1.116666667,0.536,1,2945.191
7,FALSE,386,1.343,80,,,"(1103, 920)",,1,118,1.966666667,"640.0, 512.0",horizontal,"(890.0, 762.0)",1.083333333,0.611,1,2949.496
7,FALSE,387,1.287,77,,,"(1130, 913)",,1,112,1.866666667,"640.0, 512.0",horizontal,"(890.0, 762.0)",1.45,0.559,1,2954.011
7,FALSE,388,0.364,21,,,"(1123, 905)",,1,54,0.9,"640.0, 512.0",horizontal,"(390.0, 762.0)",0.766666667,0.524,1,2958.768
7,FALSE,389,0.807,48,,,"(1112, 906)",,1,78,1.3,"640.0, 512.0",vertical,"(890.0, 762.0)",0.916666667,0.479,1,2961.927
7,FALSE,390,0.442,26,,,"(1100, 910)",,1,76,1.266666667,"640.0, 512.0",horizontal,"(390.0, 262.0)",0.8,0.803,0,2965.613
7,FALSE,391,1.441,86,,,"(1107, 922)",,1,119,1.983333333,"640.0, 512.0",horizontal,"(390.0, 262.0)",0.883333333,0.528,1,2969.136
7,FALSE,392,0.337,20,,,"(1101, 907)",,1,52,0.866666667,"640.0, 512.0",horizontal,"(890.0, 262.0)",1.133333333,0.504,1,2985.261
7,FALSE,393,1.161,69,,,"(1117, 908)",,1,99,1.65,"640.0, 512.0",horizontal,"(390.0, 262.0)",0.783333333,0.475,1,2988.752
7,FALSE,394,1.418,85,,,"(1123, 911)",,1,119,1.983333333,"640.0, 512.0",horizontal,"(890.0, 762.0)",1.233333333,0.546,1,2992.65
7,FALSE,395,1.452,87,,,"(1132, 914)",,1,120,2,"640.0, 512.0",vertical,"(890.0, 762.0)",0.516666667,0.526,1,2997.365
7,FALSE,396,0.343,20,,,"(1123, 918)",,1,57,0.95,"640.0, 512.0",vertical,"(890.0, 262.0)",0.85,0.589,1,3001.351
7,FALSE,397,0.63,37,,,"(1112, 916)",,1,70,1.166666667,"640.0, 512.0",horizontal,"(890.0, 262.0)",0.7,0.528,1,3004.672
7,FALSE,398,1.251,75,,,"(1112, 902)",,1,121,2.016666667,"640.0, 512.0",vertical,"(390.0, 762.0)",1.066666667,0.739,1,3008.012
7,FALSE,399,0.712,42,,,"(1126, 920)",,1,73,1.216666667,"640.0, 512.0",horizontal,"(390.0, 262.0)",0.75,0.497,1,3012.558
7,FALSE,400,1.412,84,,,"(1126, 918)",,1,116,1.933333333,"640.0, 512.0",horizontal,"(390.0, 762.0)",1.683333333,0.51,1,3016.055
7,FALSE,401,1.419,85,,,"(1122, 924)",,1,135,2.25,"640.0, 512.0",horizontal,"(890.0, 762.0)",0.9,0.804,0,3021.194
7,FALSE,402,1.117,67,,,"(1135, 871)",,1,98,1.633333333,"640.0, 512.0",vertical,"(890.0, 762.0)",0.933333333,0.498,1,3025.844
7,FALSE,403,0.741,44,,,"(1154, 894)",,1,76,1.266666667,"640.0, 512.0",vertical,"(890.0, 262.0)",0.8,0.504,1,3236.014
7,FALSE,404,1.136,68,,,"(1147, 907)",,1,100,1.666666667,"640.0, 512.0",horizontal,"(890.0, 762.0)",0.85,0.514,1,3239.545
7,FALSE,405,1.168,70,,3252223,"(1140, 907)","(1099, 907)",1,63,1.05,"640.0, 512.0",vertical,"(390.0, 762.0)",,0,0,3243.822
7,FALSE,406,0.393,23,,,"(946, 908), (501, 606), (944, 927), (1148, 892)",,"0, 0, 0, 1",54,0.9,"640.0, 512.0",horizontal,"(890.0, 262.0)",1.6,0.5,1,3246.358
7,FALSE,407,1.021,61,,,"(1168, 871)",,1,92,1.533333333,"640.0, 512.0",horizontal,"(390.0, 262.0)",1.55,0.498,1,3313.212
7,FALSE,408,0.834,50,,,"(1123, 883)",,1,100,1.666666667,"640.0, 512.0",horizontal,"(890.0, 262.0)",1.6,0.805,0,3317.762
7,FALSE,409,0.773,46,,,"(1183, 908)",,1,88,1.466666667,"640.0, 512.0",vertical,"(890.0, 262.0)",0.5,0.671,1,3322.466
7,FALSE,410,0.719,43,,,"(1138, 883)",,1,86,1.433333333,"640.0, 512.0",vertical,"(890.0, 262.0)",1.083333333,0.696,1,3679.314
7,FALSE,411,0.321,19,,,"(1142, 894)",,1,69,1.15,"640.0, 512.0",vertical,"(390.0, 262.0)",1.4,0.808,0,3683.325
7,FALSE,412,0.592,35,,,"(1144, 884)",,1,85,1.416666667,"640.0, 512.0",horizontal,"(390.0, 262.0)",0.6,0.805,0,3687.379
7,FALSE,413,0.708,42,,,"(1153, 889)",,1,89,1.483333333,"640.0, 512.0",horizontal,"(390.0, 762.0)",1.383333333,0.757,1,3690.864
7,FALSE,414,1.387,83,,,"(1139, 927)",,1,133,2.216666667,"640.0, 512.0",vertical,"(890.0, 762.0)",0.9,0.806,0,3695.218
7,FALSE,415,1.092,65,,,"(1153, 895)",,1,95,1.583333333,"640.0, 512.0",horizontal,"(390.0, 262.0)",1.383333333,0.487,1,3699.822
7,FALSE,416,0.996,59,,,"(1140, 899)",,1,102,1.7,"640.0, 512.0",vertical,"(390.0, 262.0)",0.916666667,0.695,1,3717.115
7,FALSE,417,0.607,36,,,"(1114, 912)",,1,67,1.116666667,"640.0, 512.0",vertical,"(390.0, 762.0)",0.616666667,0.491,1,3721.183
7,FALSE,418,0.932,55,,,"(1112, 898)",,1,105,1.75,"640.0, 512.0",vertical,"(390.0, 262.0)",0.666666667,0.803,0,3724.397
7,FALSE,419,1.053,63,,,"(1166, 893)",,1,97,1.616666667,"640.0, 512.0",vertical,"(390.0, 262.0)",0.566666667,0.546,1,3728.272
7,FALSE,420,1.098,65,,,"(1154, 900)",,1,98,1.633333333,"640.0, 512.0",horizontal,"(390.0, 762.0)",0.95,0.524,1,3731.997
8,FALSE,421,0.765,45,,,"(1113, 909)",,1,76,1.266666667,"640.0, 512.0",horizontal,"(390.0, 262.0)",1.1,0.489,1,3735.999
8,FALSE,422,0.844,50,,,"(1147, 917)",,1,81,1.35,"640.0, 512.0",horizontal,"(390.0, 262.0)",1.316666667,0.491,1,3739.831
8,FALSE,423,1.302,78,,,"(1122, 911)",,1,109,1.816666667,"640.0, 512.0",horizontal,"(890.0, 262.0)",1.033333333,0.489,1,3743.97
8,FALSE,424,0.795,47,,,"(1127, 899)",,1,77,1.283333333,"640.0, 512.0",vertical,"(390.0, 762.0)",1.5,0.474,1,3748.316
8,FALSE,425,1.261,75,,,"(1169, 908)",,1,108,1.8,"640.0, 512.0",vertical,"(390.0, 762.0)",1.366666667,0.524,1,3752.57
8,FALSE,426,0.868,52,,,"(1150, 894)",,1,85,1.416666667,"640.0, 512.0",horizontal,"(390.0, 262.0)",1.066666667,0.525,1,3757.138
8,FALSE,427,0.847,50,,,"(1140, 906)",,1,77,1.283333333,"640.0, 512.0",vertical,"(890.0, 762.0)",0.916666667,0.434,1,3790.51
8,FALSE,428,0.464,27,,,"(1107, 881)",,1,59,0.983333333,"640.0, 512.0",horizontal,"(390.0, 262.0)",1.033333333,0.511,1,3795.682
8,FALSE,429,0.423,25,,,"(1115, 884)",,1,56,0.933333333,"640.0, 512.0",horizontal,"(390.0, 262.0)",1.433333333,0.498,1,3799.188
8,FALSE,430,0.441,26,,,"(1142, 911)",,1,61,1.016666667,"640.0, 512.0",horizontal,"(390.0, 762.0)",1.1,0.555,1,3803.028
8,FALSE,431,0.451,27,,,"(1148, 923)",,1,61,1.016666667,"640.0, 512.0",horizontal,"(390.0, 762.0)",0.816666667,0.541,1,3806.638
8,FALSE,432,1.219,73,,,"(1141, 909)",,1,106,1.766666667,"640.0, 512.0",horizontal,"(390.0, 762.0)",0.75,0.524,1,3809.962
8,FALSE,433,0.526,31,,,"(1117, 913)",,1,63,1.05,"640.0, 512.0",vertical,"(890.0, 762.0)",0.816666667,0.508,1,3813.927
8,FALSE,434,0.56,33,,,"(1142, 897)",,1,63,1.05,"640.0, 512.0",horizontal,"(890.0, 262.0)",1.266666667,0.481,1,3817.352
8,FALSE,435,1.263,75,,,"(1168, 877)",,1,106,1.766666667,"640.0, 512.0",horizontal,"(890.0, 762.0)",0.883333333,0.493,1,3821.102
8,FALSE,436,0.799,47,,,"(1121, 893)",,1,94,1.566666667,"640.0, 512.0",vertical,"(390.0, 262.0)",1.483333333,0.758,1,3825.202
8,FALSE,437,1.084,65,,,"(1102, 906)",,1,77,1.283333333,"640.0, 512.0",vertical,"(890.0, 262.0)",1.116666667,0.183,1,3831.553
8,FALSE,438,1.424,85,,,"(1111, 906)",,1,117,1.95,"640.0, 512.0",horizontal,"(390.0, 762.0)",0.866666667,0.509,1,3835.449
8,FALSE,439,1.394,83,,,"(1131, 879)",,1,99,1.65,"640.0, 512.0",horizontal,"(390.0, 762.0)",0.9,0.247,1,3839.777
8,FALSE,440,1.031,61,,,"(1112, 922)",,1,84,1.4,"640.0, 512.0",horizontal,"(390.0, 262.0)",0.916666667,0.364,1,3843.758
8,FALSE,441,0.489,29,,,"(1131, 907)",,1,70,1.166666667,"640.0, 512.0",horizontal,"(390.0, 762.0)",0.766666667,0.648,1,3847.557
8,FALSE,442,0.698,41,,,"(1130, 904)",,1,69,1.15,"640.0, 512.0",horizontal,"(390.0, 262.0)",1.383333333,0.44,1,3850.931
8,FALSE,443,1.197,71,,,"(1119, 880)",,1,101,1.683333333,"640.0, 512.0",vertical,"(890.0, 262.0)",0.683333333,0.482,1,3854.906
8,FALSE,444,1.1,66,,,"(1124, 894)",,1,78,1.3,"640.0, 512.0",horizontal,"(390.0, 262.0)",0.95,0.183,1,3858.711
8,FALSE,445,1.055,63,,,"(1107, 884)",,1,79,1.316666667,"640.0, 512.0",horizontal,"(890.0, 262.0)",1.5,0.247,1,3862.408
8,FALSE,446,1.142,68,,,"(1123, 908)",,1,102,1.7,"640.0, 512.0",horizontal,"(890.0, 762.0)",1.05,0.541,1,3866.665
8,FALSE,447,1.195,71,,,"(1128, 906)",,1,103,1.716666667,"640.0, 512.0",horizontal,"(890.0, 262.0)",0.5,0.511,1,3870.922
8,FALSE,448,0.484,29,,,"(1110, 903)",,1,60,1,"640.0, 512.0",vertical,"(890.0, 762.0)",1.333333333,0.496,1,3874.613
8,FALSE,449,0.638,38,,,"(1099, 903)",,1,42,0.7,"640.0, 512.0",horizontal,"(390.0, 762.0)",1.233333333,0.052,1,3878.425
8,FALSE,450,1.114,66,,,"(1098, 905)",,1,105,1.75,"640.0, 512.0",vertical,"(890.0, 262.0)",0.516666667,0.624,1,3881.816
8,FALSE,451,0.69,41,,,"(1123, 891)",,1,72,1.2,"640.0, 512.0",horizontal,"(390.0, 262.0)",1.683333333,0.49,1,3885.712
8,FALSE,452,0.46,27,,,"(1118, 879)",,1,58,0.966666667,"640.0, 512.0",vertical,"(890.0, 262.0)",1.283333333,0.491,1,3890.198
8,FALSE,453,0.914,54,,,"(1113, 889)",,1,79,1.316666667,"640.0, 512.0",vertical,"(890.0, 262.0)",1.183333333,0.394,1,3893.865
8,FALSE,454,1.188,71,,,"(1099, 903)",,1,116,1.933333333,"640.0, 512.0",vertical,"(890.0, 762.0)",0.666666667,0.72,1,3897.805
8,FALSE,455,0.911,54,,,"(1105, 922)",,1,87,1.45,"640.0, 512.0",vertical,"(890.0, 262.0)",0.75,0.524,1,3901.895
8,FALSE,456,0.908,54,,,"(1128, 907)",,1,86,1.433333333,"640.0, 512.0",horizontal,"(890.0, 762.0)",0.933333333,0.511,1,3905.848
8,FALSE,457,0.414,24,,,"(1111, 911)",,1,59,0.983333333,"640.0, 512.0",horizontal,"(390.0, 262.0)",0.7,0.558,1,3909.661
8,FALSE,458,1.399,83,,,"(1117, 900)",,1,118,1.966666667,"640.0, 512.0",horizontal,"(890.0, 262.0)",0.6,0.56,1,3912.798
8,FALSE,459,0.835,50,,,"(1112, 884)",,1,84,1.4,"640.0, 512.0",vertical,"(390.0, 762.0)",1.566666667,0.551,1,3916.848
8,FALSE,460,1.426,85,,,"(1112, 905)",,1,116,1.933333333,"640.0, 512.0",horizontal,"(390.0, 762.0)",0.733333333,0.492,1,3921.282
8,FALSE,461,1.236,74,,,"(1112, 906)",,1,107,1.783333333,"640.0, 512.0",vertical,"(390.0, 262.0)",0.6,0.528,1,3925.444
8,FALSE,462,1.33,79,,,"(1104, 905)",,1,113,1.883333333,"640.0, 512.0",horizontal,"(390.0, 262.0)",0.583333333,0.539,1,3929.292
8,FALSE,463,1.158,69,,,"(1107, 906)",,1,103,1.716666667,"640.0, 512.0",horizontal,"(390.0, 262.0)",0.716666667,0.544,1,3933.463
8,FALSE,464,0.419,25,,,"(1096, 907)",,1,55,0.916666667,"640.0, 512.0",vertical,"(390.0, 262.0)",1.316666667,0.479,1,3937.399
8,FALSE,465,0.911,54,,,"(1118, 886)",,1,89,1.483333333,"640.0, 512.0",horizontal,"(890.0, 762.0)",1.183333333,0.563,1,3941.173
8,FALSE,466,0.769,46,,,"(1105, 899)",,1,61,1.016666667,"640.0, 512.0",horizontal,"(390.0, 762.0)",1.65,0.234,1,3945.962
8,FALSE,467,1.376,82,,,"(1114, 901)",,1,112,1.866666667,"640.0, 512.0",horizontal,"(390.0, 262.0)",0.683333333,0.474,1,3950.099
8,FALSE,468,0.551,33,,,"(1105, 903)",,1,64,1.066666667,"640.0, 512.0",horizontal,"(890.0, 262.0)",1.066666667,0.504,1,3954.096
8,FALSE,469,0.649,38,,,"(1120, 880)",,1,77,1.283333333,"640.0, 512.0",vertical,"(390.0, 762.0)",0.866666667,0.624,1,3957.778
8,FALSE,470,0.617,37,,,"(1152, 888)",,1,70,1.166666667,"640.0, 512.0",vertical,"(390.0, 762.0)",1.1,0.526,1,3961.394
8,FALSE,471,1.092,65,,,"(1109, 918)",,1,93,1.55,"640.0, 512.0",horizontal,"(390.0, 762.0)",1.316666667,0.444,1,3966.286
8,FALSE,472,1.241,74,,,"(1116, 901)",,1,115,1.916666667,"640.0, 512.0",vertical,"(390.0, 762.0)",0.666666667,0.659,1,3970.71
8,FALSE,473,0.339,20,,,"(1116, 909)",,1,53,0.883333333,"640.0, 512.0",horizontal,"(890.0, 262.0)",1.633333333,0.524,1,3974.74
8,FALSE,474,1.362,81,,,"(1120, 893)",,1,115,1.916666667,"640.0, 512.0",vertical,"(890.0, 262.0)",0.733333333,0.543,1,3978.777
8,FALSE,475,0.425,25,,,"(1108, 908)",,1,57,0.95,"640.0, 512.0",vertical,"(390.0, 262.0)",1.666666667,0.511,1,3982.999
8,FALSE,476,1.369,82,,,"(1119, 899)",,1,120,2,"640.0, 512.0",horizontal,"(890.0, 762.0)",0.9,0.61,1,3987.089
8,FALSE,477,0.736,44,,,"(1114, 893)",,1,77,1.283333333,"640.0, 512.0",vertical,"(390.0, 262.0)",1.25,0.528,1,3991.497
8,FALSE,478,0.543,32,,,"(1124, 898)",,1,64,1.066666667,"640.0, 512.0",horizontal,"(390.0, 262.0)",0.75,0.51,1,3995.488
8,FALSE,479,1.128,67,,,"(1138, 901)",,1,101,1.683333333,"640.0, 512.0",vertical,"(390.0, 762.0)",1.166666667,0.547,1,3998.862
8,FALSE,480,0.865,51,,,"(1101, 905)",,1,64,1.066666667,"640.0, 512.0",vertical,"(890.0, 262.0)",1.3,0.201,1,4003.166
9,FALSE,481,0.595,35,,,"(1118, 898)",,1,69,1.15,"640.0, 512.0",vertical,"(890.0, 762.0)",1.35,0.537,1,4007.01
9,FALSE,482,1.329,79,,,"(1117, 912)",,1,109,1.816666667,"640.0, 512.0",vertical,"(390.0, 262.0)",0.816666667,0.479,1,4011.003
9,FALSE,483,1.201,72,,,"(1082, 908)",,1,122,2.033333333,"640.0, 512.0",vertical,"(390.0, 262.0)",1.25,0.8,0,4015.109
9,FALSE,484,0.629,37,,5810335,"(540, 971), (355, 620), (470, 264), (835, 379), (145, 481), (56, 639), (172, 644), (196, 366), (733, 567), (53, 591), (62, 452), (470, 481), (538, 293), (903, 591), (288, 596), (452, 610), (1044, 427), (422, 125), (751, 466), (823, 485), (1080, 519), (275, 548), (717, 148), (468, 649), (475, 448), (965, 443), (472, 644), (849, 293), (979, 409), (728, 581), (483, 550), (879, 489), (698, 576), (1074, 508), (172, 719), (593, 106), (51, 409), (40, 149), (1020, 68), (560, 62), (1046, 19), (1050, 226), (397, 30), (984, 154), (898, 29), (293, 535), (712, 170), (1121, 779)","(1192, 813)","0, 0, 0, 0, 0, 0, 0, 0, 0, 0, 0, 0, 0, 0, 0, 0, 0, 0, 0, 0, 0, 0, 0, 0, 0, 0, 0, 0, 0, 0, 0, 0, 0, 0, 0, 0, 0, 0, 0, 0, 0, 0, 0, 0, 0, 0, 0, 1",9,0.15,"640.0, 512.0",vertical,"(890.0, 262.0)",,0,0,4019.896
9,FALSE,485,0.611,36,,,"(1116, 810)",,1,62,1.033333333,"640.0, 512.0",horizontal,"(890.0, 762.0)",1.283333333,0.406,1,5804.469
9,FALSE,486,1.489,89,,5997268,"(1060, 335), (1166, 625), (1251, 687), (1213, 573), (933, 670), (1087, 575), (903, 709), (864, 725), (824, 942), (1013, 956), (806, 788), (1242, 845), (818, 749), (790, 826), (738, 528), (829, 588), (989, 831), (1268, 667), (753, 586), (959, 800), (916, 629), (976, 335), (877, 459), (444, 433), (416, 448), (533, 301), (1111, 620), (1258, 260), (696, 366), (868, 311), (1239, 624), (867, 504), (1017, 745), (1126, 87), (614, 847), (816, 676), (1052, 980), (692, 964), (446, 397), (818, 896), (282, 558), (266, 466), (360, 563), (256, 530), (301, 477), (243, 473), (964, 226), (995, 332), (881, 794), (337, 358), (953, 594), (757, 461), (690, 322), (519, 494), (517, 540), (550, 558), (719, 397), (555, 572), (717, 442), (648, 366), (593, 519), (689, 563), (490, 324), (1123, 927)","(1123, 927)","0, 0, 0, 0, 0, 0, 0, 0, 0, 0, 0, 0, 0, 0, 0, 0, 0, 0, 0, 0, 0, 0, 0, 0, 0, 0, 0, 0, 0, 0, 0, 0, 0, 0, 0, 0, 0, 0, 0, 0, 0, 0, 0, 0, 0, 0, 0, 0, 0, 0, 0, 0, 0, 0, 0, 0, 0, 0, 0, 0, 0, 0, 0, 1",6,0.1,"640.0, 512.0",horizontal,"(390.0, 762.0)",,0,0,5808.736
9,FALSE,487,1.118,67,,,"(355, 198), (452, 236), (336, 279), (282, 281), (396, 298), (123, 298), (365, 307), (111, 315), (318, 231), (338, 346), (275, 261), (510, 334), (501, 370), (497, 323), (361, 231), (493, 365), (300, 365), (391, 384), (373, 379), (363, 385), (1263, 381), (360, 351), (343, 481), (1141, 857)",,"0, 0, 0, 0, 0, 0, 0, 0, 0, 0, 0, 0, 0, 0, 0, 0, 0, 0, 0, 0, 0, 0, 0, 1",85,1.416666667,"640.0, 512.0",vertical,"(390.0, 762.0)",1,0.284,1,5991.408
9,FALSE,488,1.348,80,,,"(1138, 846)",,1,97,1.616666667,"640.0, 512.0",horizontal,"(890.0, 762.0)",0.883333333,0.271,1,8066.195
9,FALSE,489,0.775,46,,,"(1153, 841)",,1,66,1.1,"640.0, 512.0",vertical,"(390.0, 262.0)",0.683333333,0.318,1,8089.513
