block,trial,trial_type,taps_start_loc_during_fix,taps_end_loc_during_fix,taps_on_lever_during_fix,taps_on_lever_s_during_fix,bar_orientation,target_xy,cti,rt,acc,time,pulses,fa_rate_recent100,p_catch
0,1,target,"[(1062, 863)]",[],[1],[0.4],horizontal,"(890.0, 262.0)",1.3166666666666667,0.37,1,0.567,1,0.0,0.25
0,2,target,"[(1098, 874)]",[],[1],[0.36666666666666664],horizontal,"(890.0, 262.0)",0.8333333333333334,0.336,1,13.016,1,0.0,0.25
0,3,catch,"[(1111, 864)]",[],[1],[],vertical,"(890.0, 262.0)",1.7,nan,1,18.323,1,0.0,0.25
0,4,target,"[(1119, 826)]",[],[1],[0.85],vertical,"(390.0, 762.0)",0.45,nan,0,429.542,0,0.0,0.25
0,5,target,"[(1092, 845)]",[],[1],[0.7166666666666667],vertical,"(390.0, 262.0)",1.45,0.683,1,674.426,1,0.0,0.25
0,6,target,"[(1108, 799)]",[],[1],[0.85],vertical,"(390.0, 262.0)",0.85,nan,0,680.94,0,0.0,0.25
0,7,target,"[(1105, 878)]",[],[1],[0.85],horizontal,"(390.0, 762.0)",1.0833333333333333,nan,0,686.379,0,0.0,0.25
0,8,target,"[(1125, 851)]",[],[1],[0.6333333333333333],horizontal,"(390.0, 762.0)",0.5666666666666667,0.592,1,901.013,1,0.0,0.25
0,9,catch,"[(1160, 801)]",[],[1],[],horizontal,"(390.0, 262.0)",1.7,nan,1,907.546,1,0.0,0.25
0,10,target,"[(1166, 818)]",[],[1],[0.5666666666666667],vertical,"(890.0, 762.0)",1.0333333333333332,0.524,1,913.178,1,0.0,0.25
0,11,catch,"[(1165, 803)]",[],[1],[],vertical,"(890.0, 262.0)",1.7,nan,1,918.346,2,0.0,0.25
0,12,catch,"[(1174, 797)]",[],[1],[],vertical,"(390.0, 262.0)",1.7,nan,1,923.863,2,0.0,0.25
0,13,target,"[(1163, 791)]",[],[1],[0.5833333333333334],horizontal,"(890.0, 762.0)",0.5333333333333333,0.536,1,929.513,2,0.0,0.25
0,14,target,"[(1155, 792)]",[],[1],[0.85],horizontal,"(890.0, 762.0)",1.0,nan,0,934.702,0,0.0,0.25
0,15,catch,"[(1131, 821)]",[],[1],[],horizontal,"(390.0, 262.0)",1.7,nan,1,939.262,1,0.0,0.25
0,16,target,"[(1158, 830)]",[],[1],[0.5666666666666667],horizontal,"(390.0, 762.0)",1.1833333333333333,0.525,1,944.362,1,0.0,0.25
0,17,target,"[(1159, 810)]",[],[1],[0.5166666666666666],vertical,"(890.0, 762.0)",0.7666666666666666,0.476,1,949.639,1,0.0,0.25
0,18,target,"[(1159, 806)]",[],[1],[0.85],vertical,"(390.0, 262.0)",1.0833333333333333,nan,0,954.246,0,0.0,0.25
0,19,target,"[(1140, 847)]",[],[1],[0.5333333333333333],horizontal,"(890.0, 262.0)",0.7,0.494,1,959.414,1,0.0,0.25
0,20,catch,"[(1162, 803)]",[],[1],[],vertical,"(890.0, 762.0)",1.7,nan,1,963.996,1,0.0,0.25
0,21,catch,"[(1187, 801)]",[],[1],[],horizontal,"(890.0, 262.0)",1.7,nan,1,969.192,1,0.0,0.25
0,22,target,"[(1162, 774)]",[],[1],[0.6],vertical,"(890.0, 262.0)",0.5333333333333333,0.554,1,974.292,2,0.0,0.25
0,23,catch,"[(1129, 798)]",[],[1],[],horizontal,"(890.0, 762.0)",1.7,nan,1,979.313,2,0.0,0.25
0,24,target,"[(1182, 803)]",[],[1],[0.6833333333333333],vertical,"(390.0, 762.0)",0.6166666666666667,0.651,1,984.544,2,0.0,0.25
0,25,target,"[(1180, 791)]",[],[1],[0.6666666666666666],vertical,"(390.0, 262.0)",1.1,0.621,1,989.929,3,0.0,0.25
0,26,catch,"[(1178, 791)]",[],[1],[],horizontal,"(890.0, 762.0)",1.7,nan,1,996.115,3,0.0,0.25
0,27,target,"[(1166, 821)]",[],[1],[0.5166666666666666],horizontal,"(390.0, 262.0)",1.3166666666666667,0.48,1,1001.863,3,0.0,0.25
0,28,catch,"[(1161, 798)]",[],[1],[],vertical,"(390.0, 762.0)",1.7,nan,1,1007.776,3,0.0,0.25
0,29,target,"[(1165, 782)]",[],[1],[0.5333333333333333],vertical,"(390.0, 262.0)",0.7833333333333333,0.491,1,1013.462,3,0.0,0.25
0,30,target,"[(1221, 789)]",[],[1],[0.85],vertical,"(890.0, 262.0)",1.1833333333333333,nan,0,1019.169,0,0.0,0.25
0,31,target,"[(1131, 807)]",[],[1],[0.7333333333333333],vertical,"(390.0, 762.0)",1.4333333333333333,0.691,1,1024.03,1,0.0,0.25
0,32,target,"[(1140, 794)]",[],[1],[0.06666666666666667],horizontal,"(890.0, 262.0)",1.5,0.036,0,1029.864,0,0.0,0.25
0,33,target,"[(1131, 806)]",[],[1],[0.6833333333333333],vertical,"(890.0, 762.0)",1.2166666666666666,0.639,1,1034.701,1,0.0,0.25
0,34,target,"[(1161, 802)]",[],[1],[0.8],vertical,"(390.0, 762.0)",0.7833333333333333,0.75,1,1040.214,1,0.0,0.25
0,35,target,"[(1165, 805)]",[],[1],[0.85],vertical,"(890.0, 762.0)",0.5166666666666666,nan,0,1045.155,0,0.0,0.25
0,36,target,"[(1158, 797)]",[],[1],[0.48333333333333334],horizontal,"(890.0, 262.0)",1.5166666666666666,0.443,1,1049.655,1,0.0,0.25
0,37,target,"[(1160, 780)]",[],[1],[0.5166666666666666],horizontal,"(390.0, 262.0)",1.25,0.472,1,1055.169,1,0.0,0.25
0,38,target,"[(1183, 782)]",[],[1],[0.55],vertical,"(890.0, 262.0)",1.1833333333333333,0.511,1,1060.615,1,0.0,0.25
0,39,target,"[(1159, 788)]",[],[1],[0.48333333333333334],horizontal,"(890.0, 762.0)",0.7333333333333333,0.443,1,1065.829,2,0.0,0.25
0,40,target,"[(1178, 779)]",[],[1],[0.5166666666666666],vertical,"(390.0, 762.0)",0.9166666666666666,0.475,1,1070.871,2,0.0,0.25
0,41,catch,"[(1165, 809)]",[],[1],[],vertical,"(390.0, 762.0)",1.7,nan,1,1076.364,2,0.0,0.25
0,42,target,"[(1162, 800)]",[],[1],[0.5],vertical,"(390.0, 762.0)",1.25,0.465,1,1082.03,3,0.0,0.25
0,43,catch,"[(1180, 802)]",[],[1],[],vertical,"(890.0, 762.0)",1.7,nan,1,1088.333,3,0.0,0.25
0,44,target,"[(1183, 806)]",[],[1],[0.6666666666666666],horizontal,"(890.0, 762.0)",1.2666666666666666,0.618,1,1094.078,3,0.0,0.25
0,45,target,"[(1168, 796)]",[],[1],[0.6666666666666666],horizontal,"(890.0, 262.0)",0.6333333333333333,0.619,1,1100.443,3,0.0,0.25
0,46,target,"[(1173, 792)]",[],[1],[0.5166666666666666],horizontal,"(890.0, 762.0)",1.2666666666666666,0.481,1,1105.448,3,0.0,0.25
0,47,target,"[(1166, 793)]",[],[1],[0.4666666666666667],vertical,"(890.0, 262.0)",1.4166666666666667,0.425,1,1111.482,3,0.0,0.25
0,48,target,"[(1166, 794)]",[],[1],[0.48333333333333334],vertical,"(890.0, 262.0)",1.3333333333333333,0.442,1,1117.63,3,0.0,0.25
0,49,catch,"[(1156, 813)]",[],[1],[],horizontal,"(390.0, 762.0)",1.7,nan,1,1123.606,3,0.0,0.25
0,50,target,"[(1161, 811)]",[],[1],[0.6833333333333333],vertical,"(390.0, 262.0)",0.5333333333333333,0.642,1,1298.41,3,0.0,0.25
0,51,target,"[(1137, 796)]",[],[1],[0.4666666666666667],horizontal,"(390.0, 762.0)",1.1833333333333333,0.425,1,1304.307,3,0.0,0.25
0,52,target,"[(1161, 830)]",[],[1],[0.5833333333333334],horizontal,"(890.0, 762.0)",1.2833333333333332,0.537,1,1310.23,3,0.0,0.25
0,53,target,"[(1156, 819)]",[],[1],[0.85],vertical,"(390.0, 262.0)",0.9333333333333333,nan,0,1316.096,0,0.0,0.25
0,54,target,"[(1165, 815)]",[],[1],[0.85],vertical,"(390.0, 762.0)",0.35,nan,0,1320.797,0,0.0,0.25
0,55,target,"[(1131, 867)]",[],[1],[0.5],horizontal,"(390.0, 762.0)",0.35,0.461,1,1325.263,1,0.0,0.25
0,56,target,"[(1158, 798)]",[],[1],[0.5333333333333333],vertical,"(390.0, 262.0)",1.3,0.494,1,1349.231,1,0.0,0.25
0,57,catch,"[(1164, 797)]",[],[1],[],horizontal,"(390.0, 762.0)",1.7,nan,1,1354.433,1,0.0,0.25
0,58,catch,"[(1161, 792)]",[],[1],[],horizontal,"(890.0, 762.0)",1.7,nan,1,1359.648,2,0.0,0.25
0,59,catch,"[(1155, 814)]",[],[1],[],vertical,"(890.0, 762.0)",1.7,nan,1,1365.332,2,0.0,0.25
0,60,target,"[(1160, 784)]",[],[1],[0.5666666666666667],horizontal,"(390.0, 262.0)",0.75,0.521,1,1371.347,2,0.0,0.25
0,61,catch,"[(1165, 802)]",[],[1],[],horizontal,"(390.0, 762.0)",1.7,nan,1,1376.115,3,0.0,0.25
0,62,target,"[(1165, 804)]",[],[1],[0.6166666666666667],vertical,"(890.0, 262.0)",0.7333333333333333,0.574,1,1382.365,3,0.0,0.25
0,63,catch,"[(1160, 861)]",[],[1],[],horizontal,"(890.0, 262.0)",,"('cti', 1.648),nan",0,1388.223,0,0.02,0.25
0,64,target,"[(1140, 841)]",[],[1],[0.85],horizontal,"(890.0, 262.0)",1.3,nan,0,2649.903,0,0.02,0.25
0,65,catch,"[(1121, 812)]",[],[1],[],horizontal,"(890.0, 262.0)",1.7,nan,1,2655.199,1,0.02,0.25
0,66,catch,"[(1122, 825)]",[],[1],[],vertical,"(390.0, 262.0)",1.7,nan,1,2663.76,1,0.02,0.25
0,67,target,"[(1170, 829)]",[],[1],[0.5333333333333333],horizontal,"(890.0, 262.0)",1.2,0.486,1,2669.202,1,0.02,0.25
0,68,target,"[(1160, 797)]",[],[1],[0.5833333333333334],horizontal,"(890.0, 262.0)",0.4166666666666667,0.544,1,2674.47,2,0.02,0.25
0,69,target,"[(1143, 780)]",[],[1],[0.5666666666666667],horizontal,"(390.0, 262.0)",1.3166666666666667,0.524,1,2679.369,2,0.02,0.25
0,70,target,"[(1160, 776)]",[],[1],[0.5666666666666667],horizontal,"(890.0, 262.0)",0.48333333333333334,0.522,1,2685.083,2,0.02,0.25
0,71,target,"[(1145, 803)]",[],[1],[0.5333333333333333],vertical,"(390.0, 262.0)",0.9,0.49,1,2690.119,3,0.02,0.25
0,72,target,"[(1141, 803)]",[],[1],[0.5833333333333334],vertical,"(390.0, 762.0)",0.5,0.537,1,2696.769,3,0.02,0.25
0,73,target,"[(1155, 803)]",[],[1],[0.43333333333333335],vertical,"(890.0, 762.0)",0.7666666666666666,0.392,1,2702.132,3,0.02,0.25
0,74,catch,"[(1163, 787)]",[],[1],[],vertical,"(390.0, 762.0)",1.7,nan,1,2708.037,3,0.02,0.25
0,75,catch,"[(1162, 795)]",[],[1],[],vertical,"(890.0, 762.0)",1.7,nan,1,2713.786,3,0.02,0.25
0,76,target,"[(1165, 812)]",[],[1],[0.45],horizontal,"(890.0, 762.0)",1.4666666666666666,0.407,1,2719.736,3,0.02,0.25
0,77,target,"[(1154, 804)]",[],[1],[0.5833333333333334],vertical,"(390.0, 762.0)",0.48333333333333334,0.538,1,2726.003,3,0.02,0.25
0,78,target,"[(1132, 822)]",[],[1],[0.5333333333333333],vertical,"(390.0, 262.0)",0.5166666666666666,0.488,1,2731.302,3,0.02,0.25
0,79,target,"[(1130, 810)]",[],[1],[0.7333333333333333],vertical,"(390.0, 262.0)",0.7666666666666666,0.693,1,2739.292,3,0.02,0.25
0,80,catch,"[(1160, 808)]",[],[1],[],vertical,"(390.0, 762.0)",1.7,nan,1,2745.226,3,0.02,0.25
0,81,catch,"[(1159, 793)]",[],[1],[],vertical,"(890.0, 262.0)",1.7,nan,1,2751.251,3,0.02,0.25
0,82,target,"[(1164, 803)]",[],[1],[0.85],horizontal,"(890.0, 762.0)",0.5,nan,0,2757.269,0,0.02,0.25
0,83,target,"[(1129, 808)]",[],[1],[0.6333333333333333],horizontal,"(390.0, 262.0)",0.55,0.59,1,2761.2,1,0.02,0.25
0,84,target,"[(1144, 812)]",[],[1],[],horizontal,"(390.0, 262.0)",,"('cti', 1.028)",0,2766.016,0,0.04,0.25
0,85,target,"[(1131, 829)]",[],[1],[],horizontal,"(890.0, 762.0)",,"('cti', 0.945)",0,2770.636,0,0.06,0.25
0,86,target,"[(1129, 788)]",[],[1],[0.5333333333333333],vertical,"(890.0, 262.0)",1.4,0.492,1,2782.038,1,0.06,0.25
0,87,target,"[(1126, 799)]",[],[1],[0.5666666666666667],vertical,"(890.0, 762.0)",1.2,0.524,1,2815.021,1,0.06,0.25
0,88,catch,"[(1127, 803)]",[],[1],[],horizontal,"(890.0, 262.0)",1.7,nan,1,2820.508,1,0.06,0.25
0,89,target,"[(1172, 803)]",[],[1],[0.6333333333333333],vertical,"(390.0, 262.0)",0.5666666666666667,0.59,1,2825.788,2,0.06,0.25
0,90,target,"[(1156, 797)]",[],[1],[0.65],horizontal,"(890.0, 262.0)",0.65,0.603,1,2830.883,2,0.06,0.25
0,91,target,"[(1153, 796)]",[],[1],[0.7666666666666666],vertical,"(390.0, 762.0)",0.4,0.723,1,2835.903,2,0.06,0.25
0,92,target,"[(1152, 833)]",[],[1],[0.5166666666666666],horizontal,"(390.0, 262.0)",0.5666666666666667,0.475,1,2841.054,3,0.06,0.25
0,93,target,"[(1159, 820)]",[],[1],[0.5],horizontal,"(390.0, 262.0)",1.15,0.465,1,2846.66,3,0.06,0.25
0,94,catch,"[(1160, 815)]",[],[1],[],vertical,"(890.0, 762.0)",1.7,nan,1,2852.371,3,0.06,0.25
0,95,catch,"[(1141, 792)]",[],[1],[],vertical,"(390.0, 762.0)",1.7,nan,1,2858.024,3,0.06,0.25
0,96,catch,"[(1163, 798)]",[],[1],[],horizontal,"(390.0, 762.0)",1.7,nan,1,2864.303,3,0.06,0.25
0,97,target,"[(1129, 788)]",[],[1],[0.5166666666666666],horizontal,"(890.0, 262.0)",0.85,0.473,1,2870.354,3,0.06,0.25
0,98,target,"[(1128, 796)]",[],[1],[0.6],vertical,"(390.0, 262.0)",1.0,0.555,1,2875.834,3,0.06,0.25
0,99,catch,"[(1160, 797)]",[],[1],[],horizontal,"(390.0, 262.0)",,"('cti', 1.263),nan",0,2881.803,0,0.08,0.25
0,100,catch,"[(1125, 803)]",[],[1],[],horizontal,"(390.0, 762.0)",1.7,nan,1,2886.383,1,0.08,0.25
0,101,target,"[(1143, 812)]",[],[1],[0.5166666666666666],vertical,"(890.0, 262.0)",0.55,0.477,1,2901.787,1,0.08,0.25
0,102,target,"[(1141, 800)]",[],[1],[0.55],horizontal,"(890.0, 262.0)",0.6666666666666666,0.507,1,2906.304,1,0.08,0.25
0,103,catch,"[(1163, 821)]",[],[1],[],vertical,"(890.0, 262.0)",1.7,nan,1,2910.979,2,0.08,0.25
0,104,target,"[(1143, 814)]",[],[1],[0.5166666666666666],vertical,"(890.0, 762.0)",1.1666666666666667,0.473,1,2916.235,2,0.08,0.25
0,105,catch,"[(1159, 840)]",[],[1],[],vertical,"(890.0, 762.0)",1.7,nan,1,2922.102,2,0.08,0.25
0,106,target,"[(1160, 834)]",[],[1],[0.85],vertical,"(890.0, 762.0)",0.6833333333333333,nan,0,3022.302,0,0.08,0.25
0,107,target,"[(1126, 807)]",[],[1],[0.6166666666666667],horizontal,"(390.0, 762.0)",0.75,0.575,1,3027.056,1,0.08,0.25
0,108,target,"[(1137, 776)]",[],[1],[0.6],horizontal,"(390.0, 762.0)",0.5166666666666666,0.554,1,3031.854,1,0.08,0.25
0,109,target,"[(1132, 782)]",[],[1],[0.55],horizontal,"(890.0, 762.0)",1.1666666666666667,0.506,1,3036.232,1,0.08,0.25
0,110,target,"[(1176, 799)]",[],[1],[0.4],horizontal,"(390.0, 762.0)",1.3666666666666667,0.359,1,3041.379,2,0.08,0.25
0,111,target,"[(1153, 807)]",[],[1],[0.55],vertical,"(390.0, 262.0)",1.45,0.514,1,3047.11,2,0.08,0.25
0,112,target,"[(1131, 787)]",[],[1],[0.85],horizontal,"(890.0, 262.0)",1.0833333333333333,nan,0,3052.773,0,0.08,0.25
0,113,target,"[(1135, 791)]",[],[1],[0.16666666666666666],horizontal,"(390.0, 762.0)",1.15,0.132,0,3057.82,0,0.06,0.25
0,114,target,"[(1136, 831)]",[],[1],[0.43333333333333335],vertical,"(890.0, 262.0)",0.7666666666666666,0.394,1,3062.371,1,0.06,0.25
0,115,target,"[(1141, 813)]",[],[1],[0.5333333333333333],vertical,"(390.0, 262.0)",1.4,0.49,1,3067.542,1,0.06,0.25
0,116,target,"[(1137, 803)]",[],[1],[0.6833333333333333],vertical,"(390.0, 262.0)",1.3333333333333333,0.639,1,3072.917,1,0.06,0.25
0,117,catch,"[(1160, 822)]",[],[1],[],horizontal,"(390.0, 762.0)",1.7,nan,1,3079.188,2,0.06,0.25
0,118,target,"[(1164, 798)]",[],[1],[0.6666666666666666],vertical,"(890.0, 762.0)",1.1166666666666667,0.618,1,3085.005,2,0.06,0.25
0,119,target,"[(1191, 801)]",[],[1],[0.5666666666666667],horizontal,"(890.0, 762.0)",1.5333333333333332,0.525,1,3090.821,2,0.06,0.25
0,120,target,"[(1147, 813)]",[],[1],[0.5833333333333334],vertical,"(390.0, 762.0)",0.75,0.54,1,3096.907,3,0.06,0.25
0,121,target,"[(1157, 803)]",[],[1],[0.65],vertical,"(890.0, 262.0)",0.8333333333333334,0.602,1,3102.344,3,0.06,0.25
0,122,catch,"[(1165, 797)]",[],[1],[],vertical,"(890.0, 262.0)",1.7,nan,1,3108.054,3,0.06,0.25
0,123,target,"[(1165, 799)]",[],[1],[0.6666666666666666],vertical,"(390.0, 762.0)",0.7,0.616,1,3114.295,3,0.06,0.25
0,124,target,"[(1169, 807)]",[],[1],[0.5],vertical,"(890.0, 762.0)",1.3833333333333333,0.459,1,3119.872,3,0.06,0.25
0,125,target,"[(1165, 804)]",[],[1],[0.6666666666666666],vertical,"(890.0, 262.0)",0.9333333333333333,0.623,1,3126.388,3,0.06,0.25
0,126,target,"[(1160, 808)]",[],[1],[0.5333333333333333],horizontal,"(890.0, 762.0)",1.05,0.488,1,3132.594,3,0.06,0.25
0,127,target,"[(1165, 797)]",[],[1],[0.5833333333333334],horizontal,"(390.0, 762.0)",0.5,0.542,1,3138.69,3,0.06,0.25
0,128,target,"[(1164, 810)]",[],[1],[0.5833333333333334],horizontal,"(890.0, 762.0)",0.75,0.541,1,3143.922,3,0.06,0.25
0,129,target,"[(1166, 814)]",[],[1],[0.5333333333333333],vertical,"(890.0, 262.0)",0.75,0.489,1,3149.321,3,0.06,0.25
0,130,target,"[(1166, 804)]",[],[1],[0.6],horizontal,"(390.0, 262.0)",0.5,0.553,1,3154.726,3,0.06,0.25
0,131,target,"[(1166, 800)]",[],[1],[0.5166666666666666],horizontal,"(390.0, 262.0)",0.9833333333333333,0.476,1,3159.788,3,0.06,0.25
0,132,target,"[(1160, 784)]",[],[1],[0.6333333333333333],horizontal,"(890.0, 262.0)",1.3833333333333333,0.587,1,3165.721,3,0.06,0.25
0,133,target,"[(1165, 797)]",[],[1],[0.85],horizontal,"(890.0, 262.0)",1.1833333333333333,nan,0,3172.148,0,0.06,0.25
0,134,target,"[(1146, 796)]",[],[1],[0.6],vertical,"(890.0, 262.0)",0.85,0.558,1,3177.378,1,0.04,0.25
0,135,target,"[(1166, 799)]",[],[1],[0.65],vertical,"(890.0, 262.0)",0.6166666666666667,0.605,1,3182.253,1,0.02,0.25
0,136,target,"[(1170, 790)]",[],[1],[0.6333333333333333],horizontal,"(390.0, 762.0)",0.65,0.588,1,3187.321,1,0.02,0.25
0,137,catch,"[(1169, 798)]",[],[1],[],horizontal,"(390.0, 762.0)",1.7,nan,1,3192.143,2,0.02,0.25
0,138,catch,"[(1161, 794)]",[],[1],[],vertical,"(390.0, 762.0)",1.7,nan,1,3197.621,2,0.02,0.25
0,139,target,"[(1165, 815)]",[],[1],[0.85],vertical,"(390.0, 762.0)",0.4,nan,0,3203.155,0,0.02,0.25
0,140,target,"[(1164, 805)]",[],[1],[0.7],horizontal,"(890.0, 762.0)",0.8333333333333334,0.654,1,3207.884,1,0.02,0.25
0,141,target,"[(1153, 801)]",[],[1],[0.8333333333333334],horizontal,"(890.0, 262.0)",1.1,0.784,1,3213.023,1,0.02,0.25
0,142,target,"[(1158, 812)]",[],[1],[0.6],horizontal,"(890.0, 762.0)",0.35,0.558,1,3218.588,1,0.02,0.25
0,143,target,"[(1167, 782)]",[],[1],[0.85],horizontal,"(890.0, 762.0)",0.4666666666666667,nan,0,3223.139,0,0.02,0.25
0,144,target,"[(1120, 805)]",[],[1],[0.85],vertical,"(390.0, 762.0)",1.3166666666666667,nan,0,3227.901,0,0.02,0.25
0,145,target,"[(1132, 811)]",[],[1],[0.85],vertical,"(390.0, 262.0)",0.43333333333333335,nan,0,3232.972,0,0.02,0.25
0,146,target,"[(1136, 813)]",[],[1],[0.6166666666666667],vertical,"(890.0, 762.0)",1.05,0.572,1,3237.628,1,0.02,0.25
0,147,target,"[(1136, 806)]",[],[1],[0.7166666666666667],horizontal,"(390.0, 262.0)",0.45,0.675,1,3242.597,1,0.02,0.25
0,148,target,"[(1164, 791)]",[],[1],[0.5333333333333333],vertical,"(390.0, 262.0)",0.4666666666666667,0.489,1,3248.318,1,0.02,0.25
0,149,catch,"[(1165, 800)]",[],[1],[],vertical,"(390.0, 262.0)",1.7,nan,1,3253.255,2,0.0,0.25
0,150,catch,"[(1175, 806)]",[],[1],[],vertical,"(890.0, 762.0)",1.7,nan,1,3258.99,2,0.0,0.25
0,151,target,"[(1165, 799)]",[],[1],[0.3833333333333333],horizontal,"(390.0, 262.0)",1.45,0.343,1,3264.721,2,0.0,0.25
0,152,target,"[(1142, 795)]",[],[1],[0.55],horizontal,"(890.0, 762.0)",0.9,0.512,1,3270.671,3,0.0,0.25
0,153,target,"[(1160, 796)]",[],[1],[0.55],horizontal,"(890.0, 762.0)",0.7333333333333333,0.509,1,3276.355,3,0.0,0.25
0,154,target,"[(1161, 788)]",[],[1],[0.6833333333333333],horizontal,"(390.0, 762.0)",0.7,0.642,1,3282.105,3,0.0,0.25
0,155,catch,"[(1161, 806)]",[],[1],[],horizontal,"(890.0, 262.0)",1.7,nan,1,3288.087,3,0.0,0.25
0,156,target,"[(1161, 801)]",[],[1],[0.5833333333333334],vertical,"(390.0, 762.0)",1.1333333333333333,0.536,1,3294.471,3,0.0,0.25
0,157,target,"[(1163, 791)]",[],[1],[0.5666666666666667],horizontal,"(390.0, 262.0)",0.8666666666666667,0.529,1,3300.656,3,0.0,0.25
0,158,catch,"[(1164, 802)]",[],[1],[],vertical,"(390.0, 762.0)",1.7,nan,1,3306.005,3,0.0,0.25
0,159,target,"[(1149, 806)]",[],[1],[0.5666666666666667],vertical,"(890.0, 262.0)",1.4166666666666667,0.523,1,3312.23,3,0.0,0.25
0,160,target,"[(1165, 807)]",[],[1],[0.55],vertical,"(890.0, 262.0)",1.1666666666666667,0.505,1,3318.359,3,0.0,0.25
0,161,target,"[(1160, 816)]",[],[1],[0.6166666666666667],vertical,"(890.0, 762.0)",1.05,0.572,1,3324.572,3,0.0,0.25
0,162,target,"[(1136, 795)]",[],[1],[0.55],horizontal,"(390.0, 262.0)",0.35,0.509,1,3330.559,3,0.0,0.25
0,163,catch,"[(1136, 794)]",[],[1],[],horizontal,"(890.0, 262.0)",1.7,nan,1,3335.76,3,0.0,0.25
0,164,catch,"[(1156, 806)]",[],[1],[],vertical,"(390.0, 262.0)",1.7,nan,1,3341.922,3,0.0,0.25
0,165,target,"[(1165, 794)]",[],[1],[0.5833333333333334],vertical,"(390.0, 262.0)",0.95,0.542,1,3347.919,3,0.0,0.25
0,166,target,"[(1132, 815)]",[],[1],[0.5333333333333333],horizontal,"(390.0, 262.0)",1.0666666666666667,0.49,1,3353.247,3,0.0,0.25
0,167,catch,"[(1160, 807)]",[],[1],[],vertical,"(390.0, 262.0)",1.7,nan,1,3359.038,3,0.0,0.25
0,168,catch,"[(1161, 801)]",[],[1],[],horizontal,"(390.0, 262.0)",1.7,nan,1,3364.712,3,0.0,0.25
0,169,target,"[(1137, 850)]",[],[1],[0.7333333333333333],vertical,"(390.0, 762.0)",0.8666666666666667,0.686,1,3370.5,3,0.0,0.25
0,170,target,"[(1139, 803)]",[],[1],[0.85],horizontal,"(890.0, 762.0)",0.8,nan,0,3574.058,0,0.0,0.25
0,171,target,"[(1087, 837)]",[],[1],[0.55],horizontal,"(390.0, 762.0)",1.5166666666666666,0.513,1,3578.756,1,0.0,0.25
0,172,catch,"[(1158, 811)]",[],[1],[],horizontal,"(890.0, 762.0)",1.7,nan,1,3585.468,1,0.0,0.25
0,173,catch,"[(1156, 804)]",[],[1],[],vertical,"(890.0, 762.0)",1.7,nan,1,3590.972,1,0.0,0.25
0,174,target,"[(1165, 817)]",[],[1],[0.55],vertical,"(390.0, 262.0)",0.8666666666666667,0.51,1,3596.245,2,0.0,0.25
0,175,target,"[(1167, 802)]",[],[1],[0.5666666666666667],vertical,"(890.0, 262.0)",1.4833333333333334,0.527,1,3601.535,2,0.0,0.25
0,176,target,"[(1167, 787)]",[],[1],[0.5833333333333334],vertical,"(390.0, 262.0)",1.0,0.538,1,3607.256,2,0.0,0.25
0,177,target,"[(1168, 802)]",[],[1],[0.6],vertical,"(890.0, 262.0)",0.7666666666666666,0.555,1,3612.591,3,0.0,0.25
0,178,target,"[(1185, 803)]",[],[1],[0.65],horizontal,"(390.0, 262.0)",1.4166666666666667,0.61,1,3618.446,3,0.0,0.25
0,179,target,"[(1180, 794)]",[],[1],[0.5833333333333334],vertical,"(890.0, 762.0)",0.7166666666666667,0.544,1,3624.857,3,0.0,0.25
0,180,target,"[(1160, 802)]",[],[1],[0.85],vertical,"(890.0, 262.0)",0.8666666666666667,nan,0,3630.376,0,0.0,0.25
0,181,target,"[(1159, 804)]",[],[1],[0.6],horizontal,"(890.0, 262.0)",1.15,0.553,1,3635.159,1,0.0,0.25
0,182,target,"[(1147, 798)]",[],[1],[0.5833333333333334],vertical,"(390.0, 262.0)",1.4333333333333333,0.538,1,3640.21,1,0.0,0.25
0,183,target,"[(1159, 780)]",[],[1],[0.6833333333333333],vertical,"(890.0, 262.0)",1.0166666666666666,0.639,1,3645.559,1,0.0,0.25
0,184,catch,"[(1159, 807)]",[],[1],[],vertical,"(390.0, 762.0)",1.7,nan,1,3651.301,2,0.0,0.25
0,185,target,"[(1161, 792)]",[],[1],[0.6666666666666666],horizontal,"(390.0, 762.0)",0.4166666666666667,0.619,1,3656.616,2,0.0,0.25
0,186,target,"[(1160, 788)]",[],[1],[0.5666666666666667],vertical,"(390.0, 262.0)",0.8833333333333333,0.521,1,3661.405,2,0.0,0.25
0,187,target,"[(1178, 788)]",[],[1],[0.6833333333333333],horizontal,"(390.0, 262.0)",0.5,0.636,1,3667.036,3,0.0,0.25
0,188,target,"[(1162, 797)]",[],[1],[0.8166666666666667],horizontal,"(890.0, 762.0)",0.8,0.765,1,3672.396,3,0.0,0.25
0,189,catch,"[(1172, 808)]",[],[1],[],vertical,"(390.0, 262.0)",1.7,nan,1,3678.355,3,0.0,0.25
0,190,target,"[(1161, 789)]",[],[1],[0.85],vertical,"(890.0, 262.0)",0.4166666666666667,nan,0,3684.772,0,0.0,0.25
0,191,target,"[(1145, 792)]",[],[1],[0.6166666666666667],vertical,"(890.0, 262.0)",0.6,0.573,1,3688.983,1,0.0,0.25
0,192,target,"[(1178, 790)]",[],[1],[0.5166666666666666],vertical,"(890.0, 262.0)",0.6666666666666666,0.472,1,3693.877,1,0.0,0.25
0,193,target,"[(1151, 788)]",[],[1],[0.5666666666666667],vertical,"(390.0, 762.0)",0.5833333333333334,0.523,1,3698.691,1,0.0,0.25
0,194,target,"[(1155, 802)]",[],[1],[0.6166666666666667],vertical,"(890.0, 762.0)",1.1333333333333333,0.571,1,3703.505,2,0.0,0.25
0,195,target,"[(1164, 792)]",[],[1],[0.5666666666666667],horizontal,"(890.0, 262.0)",0.6333333333333333,0.532,1,3710.092,2,0.0,0.25
0,196,target,"[(1171, 761)]",[],[1],[0.85],horizontal,"(390.0, 262.0)",1.2,nan,0,3714.802,0,0.0,0.25
0,197,target,"[(1121, 803)]",[],[1],[0.5833333333333334],vertical,"(390.0, 762.0)",1.1333333333333333,0.543,1,3719.392,1,0.0,0.25
0,198,target,"[(1126, 808)]",[],[1],[0.5666666666666667],horizontal,"(390.0, 762.0)",0.4666666666666667,0.526,1,3726.83,1,0.0,0.25
0,199,target,"[(1160, 784)]",[],[1],[0.5333333333333333],horizontal,"(390.0, 762.0)",0.9333333333333333,0.49,1,3731.484,1,0.0,0.25
0,200,target,"[(1160, 818)]",[],[1],[0.3833333333333333],horizontal,"(890.0, 262.0)",1.4,0.343,1,3736.633,2,0.0,0.25
0,201,catch,"[(1143, 782)]",[],[1],[],horizontal,"(890.0, 762.0)",1.7,nan,1,3742.556,2,0.0,0.25
0,202,target,"[(1160, 787)]",[],[1],[0.5833333333333334],horizontal,"(390.0, 262.0)",0.8833333333333333,0.542,1,3748.59,2,0.0,0.25
0,203,target,"[(1158, 796)]",[],[1],[0.5333333333333333],horizontal,"(390.0, 262.0)",0.8666666666666667,0.491,1,3753.64,3,0.0,0.25
0,204,target,"[(1167, 795)]",[],[1],[0.6666666666666666],vertical,"(390.0, 762.0)",1.2666666666666666,0.622,1,3759.249,3,0.0,0.25
0,205,target,"[(1161, 792)]",[],[1],[0.5333333333333333],horizontal,"(890.0, 762.0)",1.05,0.49,1,3765.3,3,0.0,0.25
0,206,target,"[(1158, 786)]",[],[1],[0.5166666666666666],horizontal,"(890.0, 762.0)",1.0666666666666667,0.48,1,3771.358,3,0.0,0.25
0,207,catch,"[(1165, 791)]",[],[1],[],horizontal,"(890.0, 762.0)",1.7,nan,1,3776.858,3,0.0,0.25
0,208,target,"[(1169, 794)]",[],[1],[0.7333333333333333],vertical,"(390.0, 262.0)",1.0333333333333332,0.686,1,3782.54,3,0.0,0.25
0,209,target,"[(1165, 817)]",[],[1],[0.6],vertical,"(890.0, 762.0)",0.8666666666666667,0.564,1,3788.84,3,0.0,0.25
0,210,target,"[(1159, 784)]",[],[1],[0.5333333333333333],horizontal,"(890.0, 762.0)",1.5,0.493,1,3794.723,3,0.0,0.25
0,211,catch,"[(1150, 776)]",[],[1],[],horizontal,"(890.0, 262.0)",1.7,nan,1,3801.174,3,0.0,0.25
0,212,catch,"[(1160, 793)]",[],[1],[],horizontal,"(890.0, 762.0)",1.7,nan,1,3807.27,3,0.0,0.25
0,213,catch,"[(1157, 795)]",[],[1],[],horizontal,"(390.0, 762.0)",1.7,nan,1,3813.091,3,0.0,0.25
0,214,target,"[(1160, 809)]",[],[1],[0.5333333333333333],horizontal,"(890.0, 762.0)",0.6,0.498,1,3818.953,3,0.0,0.25
0,215,target,"[(1131, 796)]",[],[1],[0.65],vertical,"(390.0, 762.0)",0.4,0.607,1,3824.526,3,0.0,0.25
0,216,target,"[(1140, 813)]",[],[1],[0.5833333333333334],vertical,"(890.0, 762.0)",1.1833333333333333,0.538,1,3829.91,3,0.0,0.25
0,217,target,"[(1157, 791)]",[],[1],[0.5666666666666667],vertical,"(890.0, 762.0)",1.3333333333333333,0.527,1,3836.04,3,0.0,0.25
0,218,target,"[(1156, 787)]",[],[1],[0.85],vertical,"(390.0, 762.0)",0.3833333333333333,nan,0,3842.053,0,0.0,0.25
0,219,target,"[(1140, 793)]",[],[1],[0.6166666666666667],horizontal,"(890.0, 762.0)",0.6666666666666666,0.573,1,3846.231,1,0.0,0.25
0,220,target,"[(1162, 813)]",[],[1],[0.85],horizontal,"(890.0, 262.0)",1.2333333333333334,nan,0,3851.274,0,0.0,0.25
0,221,target,"[(1155, 814)]",[],[1],[0.6166666666666667],vertical,"(890.0, 262.0)",1.3,0.574,1,3933.509,1,0.0,0.25
0,222,catch,"[(1165, 802)]",[],[1],[],vertical,"(390.0, 262.0)",1.7,nan,1,3939.556,1,0.0,0.25
0,223,catch,"[(1164, 785)]",[],[1],[],horizontal,"(890.0, 762.0)",1.7,nan,1,3944.534,1,0.0,0.25
0,224,target,"[(1157, 790)]",[],[1],[0.6166666666666667],vertical,"(390.0, 762.0)",1.25,0.574,1,3949.759,2,0.0,0.25
0,225,target,"[(1163, 777)]",[],[1],[0.6],vertical,"(890.0, 262.0)",1.5,0.563,1,3955.722,2,0.0,0.25
0,226,catch,"[(1163, 776)]",[],[1],[],horizontal,"(390.0, 762.0)",1.7,nan,1,3962.221,2,0.0,0.25
0,227,target,"[(1140, 811)]",[],[1],[0.6166666666666667],vertical,"(390.0, 762.0)",1.5333333333333332,0.577,1,3968.174,3,0.0,0.25
0,228,target,"[(1163, 811)]",[],[1],[0.48333333333333334],horizontal,"(390.0, 262.0)",0.6833333333333333,0.445,1,3974.864,3,0.0,0.25
0,229,target,"[(1169, 799)]",[],[1],[0.85],horizontal,"(890.0, 262.0)",0.6333333333333333,nan,0,3980.338,0,0.0,0.25
0,230,target,"[(1131, 782)]",[],[1],[0.55],vertical,"(890.0, 762.0)",0.5666666666666667,0.511,1,3985.024,1,0.0,0.25
0,231,target,"[(1170, 791)]",[],[1],[0.5333333333333333],vertical,"(890.0, 262.0)",0.6333333333333333,0.495,1,3989.619,1,0.0,0.25
0,232,target,"[(1150, 807)]",[],[1],[0.55],horizontal,"(390.0, 262.0)",0.9166666666666666,0.51,1,3994.36,1,0.0,0.25
0,233,target,"[(1076, 832)]",[],[1],[0.6166666666666667],horizontal,"(890.0, 262.0)",0.4,0.574,1,4000.275,2,0.0,0.25
0,234,target,"[(1126, 781)]",[],[1],[0.7333333333333333],horizontal,"(390.0, 762.0)",0.85,0.685,1,4005.692,2,0.0,0.25
0,235,target,"[(1164, 809)]",[],[1],[0.5166666666666666],horizontal,"(390.0, 262.0)",0.55,0.488,1,4011.274,2,0.0,0.25
0,236,target,"[(1165, 795)]",[],[1],[0.7166666666666667],horizontal,"(890.0, 762.0)",1.3166666666666667,0.669,1,4016.891,3,0.0,0.25
0,237,target,"[(1178, 801)]",[],[1],[0.6333333333333333],vertical,"(390.0, 762.0)",1.4333333333333333,0.582,1,4023.008,3,0.0,0.25
0,238,target,"[(1166, 796)]",[],[1],[0.6166666666666667],vertical,"(890.0, 762.0)",1.4166666666666667,0.574,1,4029.559,3,0.0,0.25
0,239,target,"[(1157, 789)]",[],[1],[0.55],horizontal,"(890.0, 262.0)",0.35,0.507,1,4035.564,3,0.0,0.25
0,240,target,"[(1172, 808)]",[],[1],[0.6166666666666667],vertical,"(390.0, 262.0)",1.5333333333333332,0.574,1,4040.709,3,0.0,0.25
0,241,catch,"[(1162, 785)]",[],[1],[],horizontal,"(890.0, 762.0)",1.7,nan,1,4046.808,3,0.0,0.25
0,242,target,"[(1188, 795)]",[],[1],[0.5333333333333333],horizontal,"(390.0, 262.0)",0.4,0.489,1,4053.043,3,0.0,0.25
0,243,target,"[(1162, 789)]",[],[1],[0.5666666666666667],horizontal,"(390.0, 262.0)",0.6,0.522,1,4058.891,3,0.0,0.25
0,244,catch,"[(1159, 789)]",[],[1],[],vertical,"(390.0, 762.0)",1.7,nan,1,4064.37,3,0.0,0.25
0,245,catch,"[(1178, 794)]",[],[1],[],horizontal,"(890.0, 762.0)",1.7,nan,1,4070.492,3,0.0,0.25
0,246,target,"[(1166, 808)]",[],[1],[0.6],vertical,"(390.0, 762.0)",1.1333333333333333,0.559,1,4076.575,3,0.0,0.25
0,247,target,"[(1146, 787)]",[],[1],[0.5333333333333333],vertical,"(390.0, 762.0)",0.9666666666666667,0.502,1,4082.332,3,0.0,0.25
0,248,catch,"[(1166, 800)]",[],[1],[],horizontal,"(390.0, 762.0)",1.7,nan,1,4087.979,3,0.0,0.25
0,249,target,"[(1155, 793)]",[],[1],[0.5833333333333334],horizontal,"(890.0, 762.0)",0.4,0.538,1,4093.735,3,0.0,0.25
0,250,target,"[(1160, 778)]",[],[1],[0.5666666666666667],horizontal,"(390.0, 762.0)",1.4166666666666667,0.526,1,4099.452,3,0.0,0.25
0,251,target,"[(1160, 803)]",[],[1],[0.6166666666666667],vertical,"(390.0, 262.0)",1.25,0.581,1,4106.287,3,0.0,0.25
0,252,target,"[(1165, 797)]",[],[1],[0.5166666666666666],horizontal,"(890.0, 262.0)",0.5,0.474,1,4112.612,3,0.0,0.25
0,253,target,"[(1157, 790)]",[],[1],[0.6],vertical,"(890.0, 762.0)",1.2833333333333332,0.558,1,4117.991,3,0.0,0.25
0,254,target,"[(1137, 806)]",[],[1],[0.85],horizontal,"(890.0, 762.0)",1.3,nan,0,4124.426,0,0.0,0.25
0,255,catch,"[(1130, 797)]",[],[1],[],horizontal,"(390.0, 762.0)",,"('cti', 1.168),nan",0,4129.625,0,0.02,0.25
0,256,target,"[(1119, 792)]",[],[1],[0.85],horizontal,"(390.0, 262.0)",0.45,nan,0,4134.208,0,0.02,0.25
0,257,target,"[(1136, 804)]",[],[1],[0.5333333333333333],vertical,"(390.0, 262.0)",1.2333333333333334,0.488,1,4138.932,1,0.02,0.25
0,258,target,"[(1154, 782)]",[],[1],[0.6166666666666667],vertical,"(390.0, 762.0)",1.4833333333333334,0.575,1,4144.282,1,0.02,0.25
0,259,target,"[(1159, 797)]",[],[1],[0.6166666666666667],vertical,"(390.0, 762.0)",1.15,0.574,1,4149.818,1,0.02,0.25
0,260,target,"[(1159, 787)]",[],[1],[0.85],horizontal,"(890.0, 762.0)",0.8666666666666667,nan,0,4154.97,0,0.02,0.25
0,261,target,"[(1136, 796)]",[],[1],[0.5666666666666667],vertical,"(890.0, 762.0)",1.5166666666666666,0.528,1,4159.86,1,0.02,0.25
0,262,target,"[(1158, 817)]",[],[1],[0.55],horizontal,"(890.0, 262.0)",0.8,0.507,1,4165.608,1,0.02,0.25
0,263,target,"[(1165, 803)]",[],[1],[0.6333333333333333],horizontal,"(390.0, 762.0)",1.3666666666666667,0.589,1,4170.97,1,0.02,0.25
0,264,target,"[(1167, 811)]",[],[1],[0.5666666666666667],vertical,"(390.0, 262.0)",0.7166666666666667,0.527,1,4176.542,2,0.02,0.25
0,265,target,"[(1172, 795)]",[],[1],[0.55],vertical,"(390.0, 262.0)",0.5833333333333334,0.51,1,4181.976,2,0.02,0.25
0,266,target,"[(1160, 787)]",[],[1],[0.65],horizontal,"(890.0, 262.0)",0.45,0.607,1,4187.372,2,0.02,0.25
0,267,target,"[(1135, 798)]",[],[1],[0.65],horizontal,"(890.0, 262.0)",0.43333333333333335,0.621,1,4192.49,3,0.02,0.25
0,268,target,"[(1156, 787)]",[],[1],"[0.85, 0.85]",horizontal,"(390.0, 262.0)",1.3833333333333333,"0.798,nan",0,4198.342,0,0.02,0.25
0,269,catch,"[(1137, 803)]",[],[1],[],horizontal,"(390.0, 762.0)",1.7,nan,1,4203.575,1,0.02,0.25
0,270,target,"[(1155, 802)]",[],[1],[0.5333333333333333],vertical,"(390.0, 262.0)",0.5666666666666667,0.491,1,4209.178,1,0.02,0.25
0,271,target,"[(1166, 790)]",[],[1],[0.5166666666666666],horizontal,"(890.0, 262.0)",1.15,0.478,1,4213.825,1,0.02,0.25
0,272,target,"[(1155, 788)]",[],[1],[0.6666666666666666],horizontal,"(390.0, 762.0)",0.6166666666666667,0.622,1,4218.781,2,0.02,0.25
0,273,target,"[(1175, 792)]",[],[1],[0.55],vertical,"(890.0, 762.0)",1.05,0.51,1,4223.962,2,0.02,0.25
0,274,target,"[(1166, 793)]",[],[1],[0.85],vertical,"(890.0, 262.0)",0.5666666666666667,nan,0,4229.31,0,0.02,0.25
0,275,catch,"[(1148, 807)]",[],[1],[],horizontal,"(390.0, 262.0)",1.7,nan,1,4233.885,1,0.02,0.25
0,276,target,"[(1137, 788)]",[],[1],[0.55],horizontal,"(890.0, 762.0)",0.6166666666666667,0.509,1,4239.244,1,0.02,0.25
0,277,target,"[(1161, 793)]",[],[1],[0.5],horizontal,"(890.0, 262.0)",0.4666666666666667,0.461,1,4243.477,1,0.02,0.25
0,278,target,"[(1161, 800)]",[],[1],[0.6333333333333333],vertical,"(390.0, 262.0)",1.45,0.595,1,4247.876,2,0.02,0.25
0,279,catch,"[(1156, 799)]",[],[1],[],vertical,"(390.0, 762.0)",1.7,nan,1,4254.151,2,0.02,0.25
0,280,target,"[(1158, 792)]",[],[1],[0.43333333333333335],horizontal,"(390.0, 262.0)",1.5333333333333332,0.393,1,4260.226,2,0.02,0.25
0,281,target,"[(1160, 795)]",[],[1],[0.6333333333333333],vertical,"(390.0, 762.0)",1.35,0.59,1,4266.504,3,0.02,0.25
0,282,target,"[(1160, 791)]",[],[1],[0.6666666666666666],vertical,"(890.0, 762.0)",0.5,0.619,1,4273.294,3,0.02,0.25
0,283,target,"[(1158, 799)]",[],[1],[0.85],vertical,"(390.0, 262.0)",0.7166666666666667,nan,0,4278.676,0,0.02,0.25
0,284,target,"[(1131, 798)]",[],[1],[0.5833333333333334],vertical,"(890.0, 762.0)",0.9833333333333333,0.537,1,4283.59,1,0.02,0.25
0,285,target,"[(1131, 821)]",[],[1],[0.5833333333333334],vertical,"(890.0, 762.0)",1.4666666666666666,0.547,1,4288.677,1,0.02,0.25
0,286,catch,"[(1159, 812)]",[],[1],[],vertical,"(390.0, 262.0)",1.7,nan,1,4293.909,1,0.02,0.25
0,287,target,"[(1158, 800)]",[],[1],[0.5],horizontal,"(890.0, 262.0)",0.65,0.455,1,4299.052,2,0.02,0.25
0,288,catch,"[(1156, 796)]",[],[1],[],horizontal,"(890.0, 262.0)",1.7,nan,1,4304.559,2,0.02,0.25
0,289,catch,"[(1161, 786)]",[],[1],[],vertical,"(390.0, 262.0)",1.7,nan,1,4310.127,2,0.02,0.25
0,290,catch,"[(1170, 807)]",[],[1],[],vertical,"(390.0, 262.0)",1.7,nan,1,4315.937,3,0.02,0.25
0,291,catch,"[(1158, 794)]",[],[1],[],vertical,"(390.0, 762.0)",1.7,nan,1,4322.592,3,0.02,0.25
0,292,target,"[(1155, 790)]",[],[1],[0.6666666666666666],horizontal,"(890.0, 262.0)",1.0,0.627,1,4329.053,3,0.02,0.25
0,293,catch,"[(1171, 792)]",[],[1],[],vertical,"(890.0, 262.0)",1.7,nan,1,4335.06,3,0.02,0.25
0,294,catch,"[(1158, 770)]",[],[1],[],vertical,"(390.0, 762.0)",1.7,nan,1,4340.827,3,0.02,0.25
0,295,catch,"[(1131, 782)]",[],[1],[],vertical,"(390.0, 262.0)",1.7,nan,1,4346.642,3,0.02,0.25
0,296,target,"[(1159, 785)]",[],[1],[0.5333333333333333],vertical,"(890.0, 762.0)",1.0333333333333332,0.492,1,4352.694,3,0.02,0.25
0,297,catch,"[(1141, 817)]",[],[1],[],horizontal,"(890.0, 762.0)",1.7,nan,1,4358.298,3,0.02,0.25
0,298,catch,"[(1160, 799)]",[],[1],[],horizontal,"(890.0, 262.0)",1.7,nan,1,4364.972,3,0.02,0.25
0,299,catch,"[(1154, 782)]",[],[1],[],vertical,"(890.0, 262.0)",1.7,nan,1,4370.792,3,0.02,0.25
0,300,target,"[(1153, 791)]",[],[1],[0.5333333333333333],horizontal,"(390.0, 262.0)",0.5166666666666666,0.494,1,4376.903,3,0.02,0.25
0,301,target,"[(1157, 802)]",[],[1],[0.5166666666666666],horizontal,"(890.0, 262.0)",0.3833333333333333,0.474,1,4382.019,3,0.02,0.25
0,302,catch,"[(1159, 785)]",[],[1],[],horizontal,"(890.0, 262.0)",1.7,nan,1,4387.356,3,0.02,0.25
0,303,target,"[(1136, 815)]",[],[1],[0.5666666666666667],vertical,"(390.0, 762.0)",0.8833333333333333,0.523,1,4393.372,3,0.02,0.25
0,304,target,"[(1160, 786)]",[],[1],[0.6],horizontal,"(890.0, 262.0)",0.7833333333333333,0.556,1,4399.627,3,0.02,0.25
0,305,target,"[(1155, 802)]",[],[1],[0.85],vertical,"(390.0, 262.0)",0.6666666666666666,nan,0,4405.359,0,0.0,0.25
0,306,target,"[(1139, 816)]",[],[1],[0.85],horizontal,"(890.0, 262.0)",1.35,nan,0,4409.994,0,0.0,0.25
0,307,catch,"[(1155, 796)]",[],[1],[],vertical,"(890.0, 262.0)",1.7,nan,1,4415.225,1,0.0,0.25
0,308,catch,"[(1134, 796)]",[],[1],[],vertical,"(390.0, 262.0)",1.7,nan,1,4420.776,1,0.0,0.25
0,309,catch,"[(1155, 790)]",[],[1],[],horizontal,"(890.0, 262.0)",1.7,nan,1,4425.44,1,0.0,0.25
0,310,target,"[(1178, 786)]",[],[1],[0.5833333333333334],vertical,"(390.0, 762.0)",1.3166666666666667,0.548,1,4430.944,2,0.0,0.25
0,311,target,"[(1154, 791)]",[],[1],[0.5833333333333334],vertical,"(890.0, 762.0)",1.4666666666666666,0.542,1,4437.061,2,0.0,0.25
0,312,target,"[(1158, 786)]",[],[1],[0.55],vertical,"(390.0, 262.0)",0.8833333333333333,0.504,1,4442.826,2,0.0,0.25
0,313,catch,"[(1156, 796)]",[],[1],[],horizontal,"(390.0, 262.0)",1.7,nan,1,4448.259,3,0.0,0.25
0,314,target,"[(1150, 810)]",[],[1],[0.85],horizontal,"(890.0, 762.0)",0.8666666666666667,nan,0,4454.71,0,0.0,0.25
0,315,target,"[(1136, 802)]",[],[1],[0.6],vertical,"(890.0, 762.0)",0.7166666666666667,0.555,1,4459.378,1,0.0,0.25
0,316,target,"[(1159, 791)]",[],[1],[0.6333333333333333],horizontal,"(890.0, 262.0)",1.0833333333333333,0.591,1,4463.91,1,0.0,0.25
0,317,target,"[(1134, 790)]",[],[1],[0.5833333333333334],vertical,"(890.0, 762.0)",1.5,0.538,1,4469.063,1,0.0,0.25
0,318,catch,"[(1157, 785)]",[],[1],[],vertical,"(890.0, 762.0)",1.7,nan,1,4474.928,2,0.0,0.25
0,319,target,"[(1178, 796)]",[],[1],[0.6333333333333333],horizontal,"(890.0, 762.0)",0.9833333333333333,0.6,1,4480.952,2,0.0,0.25
0,320,target,"[(1155, 794)]",[],[1],[0.65],vertical,"(390.0, 762.0)",0.7,0.604,1,4486.748,2,0.0,0.25
0,321,target,"[(1158, 768)]",[],[1],[0.6666666666666666],horizontal,"(390.0, 262.0)",1.4833333333333334,0.634,1,4491.921,3,0.0,0.25
0,322,target,"[(1158, 783)]",[],[1],[0.6166666666666667],horizontal,"(390.0, 262.0)",1.0333333333333332,0.573,1,4498.16,3,0.0,0.25
0,323,target,"[(1149, 798)]",[],[1],[0.5333333333333333],horizontal,"(890.0, 262.0)",0.4,0.491,1,4504.249,3,0.0,0.25
0,324,target,"[(1151, 774)]",[],[1],[0.6333333333333333],horizontal,"(390.0, 762.0)",0.7,0.588,1,4509.026,3,0.0,0.25
0,325,target,"[(1155, 790)]",[],[1],[0.5333333333333333],vertical,"(390.0, 262.0)",1.4,0.492,1,4514.66,3,0.0,0.25
0,326,target,"[(1130, 784)]",[],[1],[0.6666666666666666],horizontal,"(390.0, 262.0)",1.1666666666666667,0.621,1,4520.977,3,0.0,0.25
0,327,target,"[(1161, 796)]",[],[1],[0.5833333333333334],horizontal,"(890.0, 262.0)",0.8833333333333333,0.539,1,4527.078,3,0.0,0.25
0,328,target,"[(1176, 786)]",[],[1],[0.5833333333333334],vertical,"(890.0, 762.0)",1.5166666666666666,0.538,1,4532.765,3,0.0,0.25
0,329,target,"[(1131, 807)]",[],[1],[0.6166666666666667],horizontal,"(390.0, 762.0)",1.3,0.573,1,4539.235,3,0.0,0.25
0,330,catch,"[(1156, 808)]",[],[1],[],vertical,"(390.0, 762.0)",1.7,nan,1,4545.327,3,0.0,0.25
0,331,target,"[(1131, 785)]",[],[1],[0.5833333333333334],vertical,"(890.0, 262.0)",1.35,0.542,1,4551.044,3,0.0,0.25
0,332,catch,"[(1162, 793)]",[],[1],[],vertical,"(890.0, 762.0)",1.7,nan,1,4557.229,3,0.0,0.25
0,333,target,"[(1140, 792)]",[],[1],[0.5166666666666666],vertical,"(390.0, 762.0)",0.9166666666666666,0.476,1,4563.493,3,0.0,0.25
0,334,catch,"[(1159, 789)]",[],[1],[],horizontal,"(390.0, 762.0)",1.7,nan,1,4569.492,3,0.0,0.25
0,335,target,"[(1155, 782)]",[],[1],[0.5166666666666666],horizontal,"(390.0, 762.0)",0.9,0.471,1,4575.495,3,0.0,0.25
0,336,catch,"[(1173, 795)]",[],[1],[],horizontal,"(390.0, 762.0)",1.7,nan,1,4581.511,3,0.0,0.25
0,337,catch,"[(1142, 785)]",[],[1],[],horizontal,"(890.0, 762.0)",1.7,nan,1,4587.266,3,0.0,0.25
0,338,target,"[(1148, 790)]",[],[1],[0.5333333333333333],vertical,"(890.0, 762.0)",1.05,0.487,1,4593.311,3,0.0,0.25
0,339,catch,"[(1155, 797)]",[],[1],[],vertical,"(390.0, 762.0)",1.7,nan,1,4599.561,3,0.0,0.25
0,340,catch,"[(1151, 792)]",[],[1],[],horizontal,"(390.0, 262.0)",1.7,nan,1,4605.893,3,0.0,0.25
0,341,target,"[(1154, 799)]",[],[1],[0.48333333333333334],vertical,"(390.0, 762.0)",1.2,0.456,1,4611.482,3,0.0,0.25
0,342,target,"[(1160, 810)]",[],[1],[0.7166666666666667],horizontal,"(890.0, 762.0)",0.9333333333333333,0.672,1,4617.481,3,0.0,0.25
0,343,target,"[(1158, 803)]",[],[1],[0.6333333333333333],vertical,"(390.0, 262.0)",0.48333333333333334,0.591,1,4623.677,3,0.0,0.25
0,344,catch,"[(1154, 799)]",[],[1],[],horizontal,"(390.0, 262.0)",1.7,nan,1,4628.628,3,0.0,0.25
0,345,catch,"[(1168, 773)]",[],[1],[],horizontal,"(890.0, 762.0)",1.7,nan,1,4634.827,3,0.0,0.25
0,346,target,"[(1146, 795)]",[],[1],[0.85],horizontal,"(390.0, 762.0)",0.3833333333333333,nan,0,4640.695,0,0.0,0.25
0,347,target,"[(1160, 785)]",[],[1],[0.5666666666666667],horizontal,"(390.0, 262.0)",1.0666666666666667,0.525,1,4644.782,1,0.0,0.25
0,348,target,"[(1130, 799)]",[],[1],[0.5333333333333333],vertical,"(890.0, 762.0)",1.3666666666666667,0.487,1,4650.21,1,0.0,0.25
0,349,target,"[(1159, 797)]",[],[1],[0.6333333333333333],vertical,"(890.0, 762.0)",0.6833333333333333,0.589,1,4656.805,1,0.0,0.25
0,350,target,"[(1155, 801)]",[],[1],[0.4666666666666667],horizontal,"(890.0, 762.0)",1.3833333333333333,0.428,1,4662.02,2,0.0,0.25
0,351,target,"[(1155, 792)]",[],[1],[0.6],horizontal,"(890.0, 762.0)",1.2333333333333334,0.554,1,4668.094,2,0.0,0.25
0,352,target,"[(1121, 839)]",[],[1],[0.85],vertical,"(390.0, 262.0)",0.55,nan,0,4674.062,0,0.0,0.25
0,353,target,"[(1126, 794)]",[],[1],[0.6],horizontal,"(890.0, 762.0)",0.4666666666666667,0.555,1,4683.744,1,0.0,0.25
0,354,catch,"[(1135, 799)]",[],[1],[],horizontal,"(390.0, 762.0)",1.7,nan,1,4688.529,1,0.0,0.25
0,355,catch,"[(1138, 792)]",[],[1],[],vertical,"(390.0, 762.0)",1.7,nan,1,4694.021,1,0.0,0.25
0,356,target,"[(1161, 791)]",[],[1],[0.5166666666666666],horizontal,"(390.0, 762.0)",0.3833333333333333,0.473,1,4699.395,2,0.0,0.25
0,357,target,"[(1131, 797)]",[],[1],[0.6166666666666667],horizontal,"(890.0, 262.0)",1.0166666666666666,0.566,1,4704.356,2,0.0,0.25
0,358,catch,"[(1159, 811)]",[],[1],[],vertical,"(390.0, 762.0)",1.7,nan,1,4709.678,2,0.0,0.25
0,359,target,"[(1163, 787)]",[],[1],[0.5],horizontal,"(390.0, 262.0)",1.0833333333333333,0.459,1,4715.159,3,0.0,0.25
0,360,target,"[(1160, 786)]",[],[1],[0.5333333333333333],vertical,"(890.0, 262.0)",0.8,0.49,1,4721.224,3,0.0,0.25
0,361,target,"[(1160, 798)]",[],[1],[0.85],horizontal,"(890.0, 262.0)",1.0333333333333332,nan,0,4726.356,0,0.0,0.25
0,362,target,"[(1091, 807)]",[],[1],[0.85],vertical,"(890.0, 262.0)",0.8833333333333333,nan,0,4730.778,0,0.0,0.25
0,363,target,"[(1121, 803)]",[],[1],[0.6666666666666666],horizontal,"(390.0, 762.0)",1.15,0.62,1,4987.727,1,0.0,0.25
0,364,target,"[(1151, 796)]",[],[1],[0.7333333333333333],vertical,"(390.0, 762.0)",0.7333333333333333,0.686,1,4993.277,1,0.0,0.25
0,365,target,"[(1155, 812)]",[],[1],[0.85],vertical,"(390.0, 262.0)",1.3666666666666667,nan,0,4998.611,0,0.0,0.25
0,366,target,"[(1115, 807)]",[],[1],[0.5166666666666666],horizontal,"(390.0, 262.0)",0.6333333333333333,0.471,1,5004.161,1,0.0,0.25
0,367,catch,"[(1146, 800)]",[],[1],[],vertical,"(390.0, 762.0)",1.7,nan,1,5008.928,1,0.0,0.25
0,368,target,"[(1118, 800)]",[],[1],[0.6],horizontal,"(890.0, 762.0)",1.3833333333333333,0.559,1,5014.146,1,0.0,0.25
0,369,catch,"[(1176, 800)]",[],[1],[],vertical,"(890.0, 262.0)",1.7,nan,1,5019.611,2,0.0,0.25
0,370,target,"[(1159, 799)]",[],[1],[0.5666666666666667],horizontal,"(890.0, 262.0)",0.48333333333333334,0.524,1,5025.298,2,0.0,0.25
0,371,catch,"[(1177, 803)]",[],[1],[],vertical,"(890.0, 262.0)",1.7,nan,1,5030.566,2,0.0,0.25
0,372,target,"[(1160, 810)]",[],[1],[0.7166666666666667],vertical,"(390.0, 262.0)",0.5666666666666667,0.671,1,5036.312,3,0.0,0.25
0,373,target,"[(1159, 787)]",[],[1],[0.5],horizontal,"(390.0, 262.0)",1.0,0.461,1,5042.247,3,0.0,0.25
0,374,catch,"[(1160, 812)]",[],[1],[],vertical,"(890.0, 262.0)",1.7,nan,1,5048.096,3,0.0,0.25
0,375,target,"[(1156, 798)]",[],[1],[0.6166666666666667],vertical,"(890.0, 762.0)",0.7166666666666667,0.571,1,5053.579,3,0.0,0.25
0,376,target,"[(1163, 790)]",[],[1],[0.5666666666666667],horizontal,"(390.0, 762.0)",1.3666666666666667,0.524,1,5058.995,3,0.0,0.25
0,377,target,"[(1135, 807)]",[],[1],[0.5166666666666666],vertical,"(890.0, 762.0)",0.9666666666666667,0.475,1,5065.146,3,0.0,0.25
0,378,target,"[(1159, 777)]",[],[1],[0.5166666666666666],vertical,"(890.0, 762.0)",1.2166666666666666,0.477,1,5071.096,3,0.0,0.25
0,379,target,"[(1160, 796)]",[],[1],[0.5333333333333333],vertical,"(390.0, 262.0)",1.4166666666666667,0.497,1,5076.91,3,0.0,0.25
0,380,catch,"[(1162, 792)]",[],[1],[],vertical,"(890.0, 262.0)",1.7,nan,1,5083.45,3,0.0,0.25
0,381,target,"[(1159, 796)]",[],[1],[0.7166666666666667],horizontal,"(890.0, 762.0)",1.0666666666666667,0.673,1,5089.412,3,0.0,0.25
0,382,target,"[(1175, 810)]",[],[1],[0.7],horizontal,"(890.0, 762.0)",1.0166666666666666,0.652,1,5095.532,3,0.0,0.25
0,383,catch,"[(1160, 797)]",[],[1],[],horizontal,"(390.0, 262.0)",1.7,nan,1,5101.719,3,0.0,0.25
0,384,target,"[(1166, 795)]",[],[1],[],horizontal,"(890.0, 762.0)",,"('cti', 1.142)",0,5107.476,0,0.02,0.25
0,385,target,"[(1134, 796)]",[],[1],[0.5166666666666666],vertical,"(390.0, 762.0)",1.25,0.475,1,5111.788,1,0.02,0.25
0,386,target,"[(1157, 792)]",[],[1],[0.6833333333333333],vertical,"(890.0, 262.0)",1.2666666666666666,0.637,1,5116.83,1,0.02,0.25
0,387,target,"[(1126, 805)]",[],[1],[0.5],vertical,"(890.0, 262.0)",0.55,0.455,1,5122.313,1,0.02,0.25
0,388,target,"[(1126, 799)]",[],[1],[0.6],horizontal,"(890.0, 262.0)",0.9,0.553,1,5127.334,2,0.02,0.25
0,389,target,"[(1131, 820)]",[],[1],[0.5],vertical,"(890.0, 762.0)",1.1166666666666667,0.459,1,5132.984,2,0.02,0.25
0,390,target,"[(1158, 809)]",[],[1],[0.7166666666666667],vertical,"(390.0, 262.0)",0.3833333333333333,0.67,1,5138.506,2,0.02,0.25
0,391,target,"[(1146, 792)]",[],[1],[0.5166666666666666],vertical,"(390.0, 262.0)",1.4166666666666667,0.476,1,5143.604,3,0.02,0.25
0,392,target,"[(1160, 805)]",[],[1],[0.6],vertical,"(390.0, 762.0)",0.85,0.562,1,5150.129,3,0.02,0.25
0,393,target,"[(1159, 786)]",[],[1],[0.5],vertical,"(390.0, 762.0)",1.1333333333333333,0.455,1,5156.113,3,0.02,0.25
0,394,target,"[(1165, 792)]",[],[1],[0.6833333333333333],horizontal,"(390.0, 762.0)",1.3,0.635,1,5162.279,3,0.02,0.25
0,395,catch,"[(1151, 825)]",[],[1],[],horizontal,"(890.0, 762.0)",1.7,nan,1,5168.801,3,0.02,0.25
0,396,catch,"[(1160, 796)]",[],[1],[],vertical,"(890.0, 762.0)",1.7,nan,1,5174.973,3,0.02,0.25
0,397,target,"[(1141, 801)]",[],[1],[0.55],horizontal,"(390.0, 262.0)",0.6,0.515,1,5181.055,3,0.02,0.25
0,398,target,"[(1162, 802)]",[],[1],[0.85],horizontal,"(390.0, 762.0)",1.0833333333333333,nan,0,5186.62,0,0.02,0.25
0,399,target,"[(1148, 843)]",[],[1],[0.6333333333333333],vertical,"(390.0, 762.0)",0.6166666666666667,0.586,1,5191.463,1,0.02,0.25
0,400,target,"[(1155, 792)]",[],[1],[0.5333333333333333],vertical,"(890.0, 762.0)",0.9333333333333333,0.493,1,5227.213,1,0.02,0.25
0,401,target,"[(1159, 791)]",[],[1],[0.65],vertical,"(390.0, 262.0)",1.3666666666666667,0.602,1,5232.096,1,0.02,0.25
0,402,target,"[(1160, 810)]",[],[1],[0.6166666666666667],vertical,"(890.0, 262.0)",0.4,0.569,1,5237.649,2,0.02,0.25
0,403,target,"[(1142, 808)]",[],[1],[0.85],horizontal,"(890.0, 262.0)",0.75,nan,0,5242.32,0,0.02,0.25
0,404,target,"[(1062, 908)]",[],[1],[0.85],horizontal,"(390.0, 762.0)",0.9333333333333333,nan,0,5246.697,0,0.02,0.25
0,405,catch,"[(1116, 840)]",[],[1],[],vertical,"(890.0, 762.0)",1.7,nan,1,5252.746,1,0.02,0.25
0,406,target,"[(1107, 820)]",[],[1],[0.7333333333333333],vertical,"(890.0, 762.0)",1.4666666666666666,0.683,1,5259.276,1,0.02,0.25
0,407,target,"[(1127, 806)]",[],[1],[0.7666666666666666],horizontal,"(390.0, 762.0)",0.35,0.72,1,5264.931,1,0.02,0.25
0,408,target,"[(1141, 820)]",[],[1],[0.75],horizontal,"(890.0, 762.0)",0.9833333333333333,0.701,1,5269.964,2,0.02,0.25
0,409,target,"[(1156, 787)]",[],[1],[0.85],vertical,"(390.0, 762.0)",1.25,nan,0,5275.244,0,0.02,0.25
0,410,catch,"[(1110, 806)]",[],[1],[],vertical,"(390.0, 262.0)",1.7,nan,1,5280.421,1,0.02,0.25
0,411,target,"[(1126, 787)]",[],[1],[0.85],horizontal,"(390.0, 762.0)",0.8666666666666667,nan,0,5285.246,0,0.02,0.25
0,412,target,"[(1115, 798)]",[],[1],[0.85],horizontal,"(390.0, 762.0)",0.55,nan,0,5289.922,0,0.02,0.25
0,413,target,"[(1123, 817)]",[],[1],[0.85],vertical,"(390.0, 262.0)",0.9666666666666667,nan,0,5295.114,0,0.02,0.25
0,414,target,"[(1123, 843)]",[],[1],[0.85],horizontal,"(390.0, 262.0)",0.8333333333333334,nan,0,5300.264,0,0.02,0.25
0,415,target,"[(1092, 815)]",[],[1],[0.6166666666666667],horizontal,"(890.0, 762.0)",1.5,0.573,1,5407.11,1,0.02,0.25
0,416,target,"[(1133, 802)]",[],[1],[0.85],vertical,"(890.0, 762.0)",0.75,nan,0,5666.202,0,0.02,0.25
0,417,catch,"[(1067, 782)]",[],[1],[],vertical,"(390.0, 262.0)",1.7,nan,1,5670.694,1,0.02,0.25
0,418,target,"[(1131, 850)]",[],[1],[0.85],horizontal,"(390.0, 262.0)",0.9666666666666667,nan,0,5675.764,0,0.02,0.25
0,419,catch,"[(1042, 813)]",[],[1],[],vertical,"(390.0, 262.0)",1.7,nan,1,5682.515,1,0.02,0.25
0,420,target,"[(1132, 799)]",[],[1],[0.5166666666666666],vertical,"(390.0, 762.0)",1.0,0.474,1,5689.512,1,0.02,0.25
0,421,target,"[(1133, 798)]",[],[1],[0.6],vertical,"(390.0, 762.0)",1.3833333333333333,0.551,1,5694.68,1,0.02,0.25
0,422,target,"[(1160, 806)]",[],[1],[0.7],horizontal,"(390.0, 762.0)",0.36666666666666664,0.662,1,5700.481,2,0.02,0.25
0,423,target,"[(1175, 819)]",[],[1],[0.5333333333333333],horizontal,"(390.0, 262.0)",0.95,0.494,1,5705.765,2,0.02,0.25
0,424,catch,"[(1160, 807)]",[],[1],[],vertical,"(890.0, 762.0)",1.7,nan,1,5711.177,2,0.02,0.25
0,425,target,"[(1141, 812)]",[],[1],[0.55],vertical,"(390.0, 262.0)",1.4166666666666667,0.512,1,5716.938,3,0.02,0.25
0,426,target,"[(1142, 788)]",[],[1],[0.7],vertical,"(390.0, 762.0)",1.3833333333333333,0.655,1,5723.399,3,0.02,0.25
0,427,target,"[(1161, 791)]",[],[1],[0.75],horizontal,"(890.0, 762.0)",0.6833333333333333,0.7,1,5729.666,3,0.02,0.25
0,428,target,"[(1137, 799)]",[],[1],[0.6666666666666666],horizontal,"(390.0, 262.0)",1.35,0.619,1,5735.432,3,0.02,0.25
0,429,catch,"[(1160, 803)]",[],[1],[],vertical,"(890.0, 762.0)",1.7,nan,1,5742.002,3,0.02,0.25
0,430,target,"[(1157, 795)]",[],[1],[0.5833333333333334],horizontal,"(390.0, 762.0)",1.1333333333333333,0.543,1,5748.267,3,0.02,0.25
0,431,catch,"[(1157, 806)]",[],[1],[],vertical,"(890.0, 262.0)",1.7,nan,1,5754.148,3,0.02,0.25
0,432,target,"[(1158, 799)]",[],[1],[0.48333333333333334],vertical,"(890.0, 262.0)",0.7833333333333333,0.446,1,5759.699,3,0.02,0.25
0,433,catch,"[(1165, 789)]",[],[1],[],vertical,"(390.0, 762.0)",1.7,nan,1,5765.649,3,0.02,0.25
0,434,target,"[(1160, 790)]",[],[1],[0.7166666666666667],vertical,"(390.0, 762.0)",0.3833333333333333,0.666,1,5771.532,3,0.0,0.25
0,435,target,"[(1159, 807)]",[],[1],[0.5666666666666667],vertical,"(890.0, 762.0)",1.0333333333333332,0.533,1,5776.798,3,0.0,0.25
0,436,target,"[(1135, 811)]",[],[1],[0.85],horizontal,"(390.0, 262.0)",1.25,nan,0,5782.431,0,0.0,0.25
0,437,target,"[(1131, 803)]",[],[1],[0.65],horizontal,"(390.0, 262.0)",1.45,0.606,1,5787.332,1,0.0,0.25
0,438,target,"[(1160, 782)]",[],[1],[0.85],vertical,"(390.0, 762.0)",1.1666666666666667,nan,0,5793.033,0,0.0,0.25
0,439,target,"[(1131, 791)]",[],[1],[0.6],vertical,"(890.0, 762.0)",0.4166666666666667,0.552,1,5798.079,1,0.0,0.25
0,440,target,"[(1155, 790)]",[],[1],[0.6],vertical,"(390.0, 262.0)",1.1333333333333333,0.559,1,5802.443,1,0.0,0.25
0,441,target,"[(1165, 777)]",[],[1],[0.65],vertical,"(890.0, 262.0)",1.3666666666666667,0.605,1,5808.016,1,0.0,0.25
0,442,target,"[(1160, 790)]",[],[1],[0.55],horizontal,"(890.0, 262.0)",1.4833333333333334,0.506,1,5813.48,2,0.0,0.25
0,443,target,"[(1161, 785)]",[],[1],[0.5833333333333334],vertical,"(890.0, 762.0)",0.7,0.542,1,5819.816,2,0.0,0.25
0,444,target,"[(1165, 806)]",[],[1],[0.55],horizontal,"(390.0, 262.0)",1.3833333333333333,0.506,1,5825.23,2,0.0,0.25
0,445,target,"[(1166, 804)]",[],[1],[0.6166666666666667],vertical,"(890.0, 762.0)",0.7333333333333333,0.576,1,5831.499,3,0.0,0.25
0,446,target,"[(1156, 789)]",[],[1],[0.7],vertical,"(390.0, 262.0)",0.7833333333333333,0.661,1,5837.348,3,0.0,0.25
0,447,target,"[(1155, 803)]",[],[1],[0.85],horizontal,"(890.0, 762.0)",0.55,nan,0,5843.184,0,0.0,0.25
0,448,target,"[(1133, 792)]",[],[1],[0.5],vertical,"(890.0, 262.0)",0.5833333333333334,0.461,1,5847.285,1,0.0,0.25
0,449,target,"[(1157, 794)]",[],[1],[0.85],horizontal,"(890.0, 762.0)",0.45,nan,0,5852.147,0,0.0,0.25
0,450,target,"[(1146, 802)]",[],[1],[0.5166666666666666],horizontal,"(890.0, 762.0)",0.7833333333333333,0.477,1,5856.417,1,0.0,0.25
0,451,target,"[(1162, 816)]",[],[1],[0.7],horizontal,"(390.0, 262.0)",1.0333333333333332,0.655,1,5861.165,1,0.0,0.25
0,452,catch,"[(1159, 777)]",[],[1],[],vertical,"(890.0, 262.0)",1.7,nan,1,5866.333,1,0.0,0.25
0,453,catch,"[(1143, 794)]",[],[1],[],vertical,"(890.0, 762.0)",1.7,nan,1,5871.383,2,0.0,0.25
0,454,catch,"[(1160, 801)]",[],[1],[],vertical,"(390.0, 262.0)",1.7,nan,1,5876.848,2,0.0,0.25
0,455,target,"[(1161, 796)]",[],[1],[0.6166666666666667],horizontal,"(390.0, 262.0)",1.4666666666666666,0.573,1,5882.834,2,0.0,0.25
0,456,target,"[(1159, 795)]",[],[1],[0.6],vertical,"(390.0, 262.0)",1.0333333333333332,0.56,1,5888.665,3,0.0,0.25
0,457,target,"[(1156, 773)]",[],[1],[0.55],vertical,"(890.0, 262.0)",1.5333333333333332,0.509,1,5894.629,3,0.0,0.25
0,458,target,"[(1162, 806)]",[],[1],[0.6333333333333333],vertical,"(890.0, 762.0)",1.4166666666666667,0.593,1,5900.636,3,0.0,0.25
0,459,target,"[(1162, 791)]",[],[1],[0.5333333333333333],horizontal,"(390.0, 762.0)",0.6333333333333333,0.49,1,5906.941,3,0.0,0.25
0,460,target,"[(1160, 793)]",[],[1],[0.6],vertical,"(890.0, 762.0)",0.5833333333333334,0.559,1,5912.233,3,0.0,0.25
0,461,target,"[(1159, 815)]",[],[1],[0.48333333333333334],horizontal,"(890.0, 262.0)",1.45,0.445,1,5917.4,3,0.0,0.25
0,462,catch,"[(1158, 792)]",[],[1],[],horizontal,"(390.0, 262.0)",1.7,nan,1,5923.362,3,0.0,0.25
0,463,target,"[(1160, 784)]",[],[1],[0.85],horizontal,"(390.0, 262.0)",1.4,nan,0,5929.257,0,0.0,0.25
0,464,target,"[(1135, 800)]",[],[1],[0.5666666666666667],horizontal,"(890.0, 762.0)",1.45,0.535,1,5934.17,1,0.0,0.25
0,465,target,"[(1160, 789)]",[],[1],[0.65],horizontal,"(390.0, 262.0)",0.5666666666666667,0.617,1,5939.644,1,0.0,0.25
0,466,target,"[(1140, 777)]",[],[1],[0.5333333333333333],vertical,"(890.0, 262.0)",0.9333333333333333,0.488,1,5944.217,1,0.0,0.25
0,467,catch,"[(1161, 777)]",[],[1],[],horizontal,"(890.0, 262.0)",1.7,nan,1,5949.632,2,0.0,0.25
0,468,catch,"[(1132, 784)]",[],[1],[],horizontal,"(390.0, 762.0)",1.7,nan,1,5955.366,2,0.0,0.25
0,469,target,"[(1115, 810)]",[],[1],[0.6833333333333333],vertical,"(390.0, 762.0)",1.15,0.638,1,5960.51,2,0.0,0.25
0,470,target,"[(1148, 822)]",[],[1],[0.6],vertical,"(890.0, 762.0)",1.2,0.555,1,5967.633,3,0.0,0.25
0,471,catch,"[(1163, 808)]",[],[1],[],vertical,"(890.0, 762.0)",1.7,nan,1,5973.878,3,0.0,0.25
0,472,target,"[(1135, 799)]",[],[1],[0.6],vertical,"(890.0, 262.0)",1.4166666666666667,0.553,1,5980.322,3,0.0,0.25
0,473,target,"[(1157, 804)]",[],[1],[0.6],vertical,"(390.0, 762.0)",1.3,0.558,1,5986.512,3,0.0,0.25
0,474,target,"[(1159, 794)]",[],[1],[0.6666666666666666],horizontal,"(890.0, 262.0)",1.45,0.635,1,5992.504,3,0.0,0.25
0,475,target,"[(1165, 799)]",[],[1],[0.55],vertical,"(390.0, 762.0)",1.0333333333333332,0.504,1,5998.496,3,0.0,0.25
0,476,target,"[(1163, 792)]",[],[1],[0.6166666666666667],vertical,"(890.0, 762.0)",1.35,0.579,1,6004.474,3,0.0,0.25
0,477,target,"[(1160, 802)]",[],[1],[0.5166666666666666],horizontal,"(390.0, 262.0)",1.4333333333333333,0.477,1,6010.866,3,0.0,0.25
0,478,target,"[(1161, 790)]",[],[1],[0.6333333333333333],horizontal,"(890.0, 262.0)",0.65,0.59,1,6016.8,3,0.0,0.25
0,479,target,"[(1156, 797)]",[],[1],[0.55],horizontal,"(390.0, 762.0)",0.6833333333333333,0.509,1,6022.099,3,0.0,0.25
0,480,target,"[(1170, 778)]",[],[1],[0.85],horizontal,"(390.0, 262.0)",0.9833333333333333,nan,0,6027.683,0,0.0,0.25
0,481,target,"[(1143, 794)]",[],[1],[0.8],horizontal,"(890.0, 762.0)",1.1666666666666667,0.762,1,6032.366,1,0.0,0.25
0,482,target,"[(1164, 795)]",[],[1],[0.5333333333333333],horizontal,"(890.0, 262.0)",0.85,0.495,1,6037.832,1,0.0,0.25
0,483,target,"[(1165, 795)]",[],[1],[0.48333333333333334],vertical,"(890.0, 762.0)",1.5,0.444,1,6042.433,1,0.0,0.25
0,484,target,"[(1131, 832)]",[],[1],[0.5833333333333334],horizontal,"(890.0, 762.0)",0.8166666666666667,0.533,1,6048.099,2,0.0,0.25
0,485,target,"[(1162, 829)]",[],[1],[0.6666666666666666],horizontal,"(390.0, 262.0)",0.55,0.624,1,6053.566,2,0.0,0.25
0,486,target,"[(1142, 782)]",[],[1],[0.6166666666666667],horizontal,"(390.0, 762.0)",1.45,0.573,1,6059.114,2,0.0,0.25
0,487,target,"[(1164, 812)]",[],[1],[0.6833333333333333],vertical,"(890.0, 762.0)",0.6833333333333333,0.638,1,6065.166,3,0.0,0.25
0,488,target,"[(1159, 792)]",[],[1],[0.55],horizontal,"(890.0, 762.0)",1.3833333333333333,0.508,1,6070.683,3,0.0,0.25
0,489,catch,"[(1160, 793)]",[],[1],[],vertical,"(890.0, 762.0)",1.7,nan,1,6076.835,3,0.0,0.25
0,490,target,"[(1133, 800)]",[],[1],[0.5333333333333333],vertical,"(890.0, 762.0)",1.2,0.489,1,6082.749,3,0.0,0.25
0,491,target,"[(1092, 833)]",[],[1],[0.85],vertical,"(390.0, 762.0)",0.6333333333333333,nan,0,6088.667,0,0.0,0.25
0,492,target,"[(1116, 804)]",[],[1],[0.55],horizontal,"(890.0, 762.0)",0.6166666666666667,0.508,1,6093.37,1,0.0,0.25
0,493,target,"[(1131, 799)]",[],[1],[0.55],vertical,"(390.0, 762.0)",0.6333333333333333,0.509,1,6097.933,1,0.0,0.25
0,494,target,"[(1161, 807)]",[],[1],[0.5333333333333333],vertical,"(390.0, 762.0)",1.0166666666666666,0.494,1,6102.492,1,0.0,0.25
0,495,catch,"[(1164, 806)]",[],[1],[],vertical,"(390.0, 262.0)",1.7,nan,1,6107.683,2,0.0,0.25
0,496,target,"[(1149, 807)]",[],[1],[0.5333333333333333],vertical,"(390.0, 262.0)",0.8333333333333334,0.498,1,6113.483,2,0.0,0.25
0,497,catch,"[(1160, 790)]",[],[1],[],vertical,"(890.0, 762.0)",1.7,nan,1,6119.099,2,0.0,0.25
0,498,target,"[(1160, 818)]",[],[1],[0.6833333333333333],vertical,"(390.0, 762.0)",0.55,0.635,1,6124.584,3,0.0,0.25
0,499,target,"[(1149, 797)]",[],[1],[0.5166666666666666],horizontal,"(890.0, 762.0)",0.5666666666666667,0.477,1,6130.534,3,0.0,0.25
0,500,target,"[(1156, 804)]",[],[1],[0.55],horizontal,"(890.0, 762.0)",0.9166666666666666,0.513,1,6135.899,3,0.0,0.25
0,501,target,"[(1161, 801)]",[],[1],[0.5333333333333333],vertical,"(890.0, 762.0)",0.4666666666666667,0.492,1,6141.767,3,0.0,0.25
0,502,target,"[(1136, 786)]",[],[1],[0.6833333333333333],vertical,"(390.0, 262.0)",1.3,0.638,1,6146.914,3,0.0,0.25
0,503,target,"[(1131, 787)]",[],[1],[0.5833333333333334],vertical,"(890.0, 762.0)",0.9333333333333333,0.538,1,6153.118,3,0.0,0.25
0,504,catch,"[(1165, 791)]",[],[1],[],vertical,"(390.0, 262.0)",1.7,nan,1,6159.136,3,0.0,0.25
0,505,target,"[(1131, 807)]",[],[1],[0.55],horizontal,"(390.0, 262.0)",1.05,0.505,1,6164.833,3,0.0,0.25
0,506,catch,"[(1170, 816)]",[],[1],[],horizontal,"(390.0, 262.0)",1.7,nan,1,6170.721,3,0.0,0.25
0,507,target,"[(1156, 793)]",[],[1],[0.48333333333333334],vertical,"(890.0, 262.0)",0.8166666666666667,0.441,1,6176.749,3,0.0,0.25
0,508,target,"[(1166, 766)]",[],[1],[0.5],vertical,"(890.0, 262.0)",1.3333333333333333,0.458,1,6182.083,3,0.0,0.25
0,509,target,"[(1165, 802)]",[],[1],[0.4166666666666667],horizontal,"(890.0, 262.0)",1.4666666666666666,0.378,1,6188.3,3,0.0,0.25
0,510,catch,"[(1116, 822)]",[],[1],[],horizontal,"(890.0, 762.0)",1.7,nan,1,6194.512,3,0.0,0.25
0,511,target,"[(1162, 811)]",[],[1],[0.5333333333333333],vertical,"(390.0, 762.0)",1.35,0.487,1,6200.428,3,0.0,0.25
0,512,target,"[(1159, 791)]",[],[1],[0.7166666666666667],horizontal,"(890.0, 262.0)",0.5833333333333334,0.672,1,6206.684,3,0.0,0.25
0,513,catch,"[(1160, 792)]",[],[1],[],vertical,"(390.0, 762.0)",1.7,nan,1,6212.047,3,0.0,0.25
0,514,target,"[(1164, 798)]",[],[1],[0.5833333333333334],horizontal,"(390.0, 762.0)",1.5,0.539,1,6218.501,3,0.0,0.25
0,515,target,"[(1132, 807)]",[],[1],[0.5666666666666667],vertical,"(390.0, 762.0)",0.8166666666666667,0.531,1,6224.456,3,0.0,0.25
0,516,target,"[(1162, 799)]",[],[1],[0.48333333333333334],vertical,"(890.0, 762.0)",1.5166666666666666,0.446,1,6230.418,3,0.0,0.25
0,517,catch,"[(1137, 796)]",[],[1],[],vertical,"(390.0, 762.0)",1.7,nan,1,6236.886,3,0.0,0.25
0,518,target,"[(1163, 791)]",[],[1],[0.5333333333333333],vertical,"(890.0, 762.0)",0.6,0.493,1,6242.995,3,0.0,0.25
0,519,target,"[(1156, 789)]",[],[1],[0.6333333333333333],vertical,"(890.0, 762.0)",0.5,0.589,1,6248.355,3,0.0,0.25
0,520,target,"[(1159, 812)]",[],[1],[0.6333333333333333],vertical,"(890.0, 262.0)",1.1833333333333333,0.59,1,6253.457,3,0.0,0.25
0,521,target,"[(1159, 817)]",[],[1],[0.55],vertical,"(390.0, 762.0)",1.25,0.505,1,6259.812,3,0.0,0.25
0,522,catch,"[(1127, 809)]",[],[1],[],horizontal,"(890.0, 762.0)",1.7,nan,1,6265.662,3,0.0,0.25
0,523,catch,"[(1137, 793)]",[],[1],[],vertical,"(390.0, 262.0)",1.7,nan,1,6271.401,3,0.0,0.25
0,524,target,"[(1167, 773)]",[],[1],[0.75],horizontal,"(390.0, 762.0)",1.0666666666666667,0.704,1,6277.355,3,0.0,0.25
0,525,target,"[(1137, 800)]",[],[1],[0.5666666666666667],horizontal,"(390.0, 762.0)",0.6666666666666666,0.531,1,6283.3,3,0.0,0.25
0,526,target,"[(1160, 800)]",[],[1],[0.5166666666666666],vertical,"(890.0, 762.0)",0.7833333333333333,0.475,1,6288.666,3,0.0,0.25
0,527,target,"[(1160, 793)]",[],[1],[0.5666666666666667],vertical,"(390.0, 262.0)",1.5,0.528,1,6294.525,3,0.0,0.25
0,528,target,"[(1134, 796)]",[],[1],[0.5166666666666666],horizontal,"(890.0, 262.0)",1.2333333333333334,0.475,1,6300.701,3,0.0,0.25
0,529,target,"[(1160, 782)]",[],[1],[0.5166666666666666],vertical,"(890.0, 262.0)",0.4166666666666667,0.476,1,6306.642,3,0.0,0.25
0,530,target,"[(1165, 800)]",[],[1],[0.5666666666666667],horizontal,"(390.0, 262.0)",1.3666666666666667,0.53,1,6311.985,3,0.0,0.25
0,531,catch,"[(1160, 799)]",[],[1],[],vertical,"(890.0, 762.0)",1.7,nan,1,6318.053,3,0.0,0.25
0,532,target,"[(1141, 792)]",[],[1],[0.55],horizontal,"(390.0, 762.0)",1.5,0.512,1,6324.268,3,0.0,0.25
0,533,target,"[(1155, 790)]",[],[1],[0.8],vertical,"(390.0, 762.0)",1.35,0.758,1,6330.45,3,0.0,0.25
0,534,target,"[(1132, 797)]",[],[1],[0.55],vertical,"(390.0, 262.0)",0.35,0.511,1,6336.633,3,0.0,0.25
0,535,target,"[(1159, 806)]",[],[1],[0.6],vertical,"(890.0, 762.0)",1.0333333333333332,0.554,1,6342.018,3,0.0,0.25
0,536,catch,"[(1126, 809)]",[],[1],[],horizontal,"(890.0, 762.0)",1.7,nan,1,6347.618,3,0.0,0.25
0,537,catch,"[(1156, 804)]",[],[1],[],horizontal,"(390.0, 262.0)",1.7,nan,1,6356.032,3,0.0,0.25
0,538,target,"[(1165, 842)]",[],[1],[0.6333333333333333],horizontal,"(890.0, 762.0)",0.4666666666666667,0.586,1,6362.084,3,0.0,0.25
0,539,target,"[(1166, 808)]",[],[1],[0.85],vertical,"(890.0, 262.0)",1.0833333333333333,nan,0,6367.4,0,0.0,0.25
0,540,target,"[(1130, 802)]",[],[1],[0.48333333333333334],vertical,"(890.0, 762.0)",0.48333333333333334,0.447,1,6372.06,1,0.0,0.25
0,541,target,"[(1165, 798)]",[],[1],[0.85],horizontal,"(390.0, 762.0)",0.45,nan,0,6376.634,0,0.0,0.25
0,542,target,"[(1128, 803)]",[],[1],[0.5333333333333333],horizontal,"(390.0, 262.0)",0.5833333333333334,0.493,1,6381.301,1,0.0,0.25
0,543,target,"[(1128, 797)]",[],[1],[0.55],horizontal,"(390.0, 762.0)",1.3,0.512,1,6385.667,1,0.0,0.25
0,544,catch,"[(1086, 833)]",[],[1],[],vertical,"(890.0, 262.0)",1.7,nan,1,6391.435,1,0.0,0.25
0,545,target,"[(1132, 802)]",[],[1],[0.6],horizontal,"(890.0, 762.0)",1.5166666666666666,0.556,1,6397.088,2,0.0,0.25
0,546,target,"[(1160, 782)]",[],[1],[0.5833333333333334],vertical,"(390.0, 262.0)",1.5166666666666666,0.539,1,6402.884,2,0.0,0.25
0,547,target,"[(1145, 786)]",[],[1],[0.6833333333333333],horizontal,"(890.0, 762.0)",0.8166666666666667,0.639,1,6408.622,2,0.0,0.25
0,548,target,"[(1137, 813)]",[],[1],[0.85],vertical,"(390.0, 262.0)",0.7833333333333333,nan,0,6414.251,0,0.0,0.25
0,549,target,"[(1129, 793)]",[],[1],[0.6],vertical,"(890.0, 762.0)",1.3833333333333333,0.557,1,6418.768,1,0.0,0.25
0,550,target,"[(1155, 812)]",[],[1],[0.5333333333333333],vertical,"(390.0, 762.0)",0.36666666666666664,0.5,1,6424.481,1,0.0,0.25
0,551,target,"[(1121, 841)]",[],[1],[0.6666666666666666],horizontal,"(390.0, 762.0)",0.55,0.627,1,6429.314,1,0.0,0.25
0,552,target,"[(1158, 808)]",[],[1],[0.5666666666666667],vertical,"(890.0, 762.0)",0.45,0.525,1,6434.486,2,0.0,0.25
0,553,target,"[(1146, 786)]",[],[1],[0.55],vertical,"(890.0, 262.0)",1.4,0.517,1,6439.485,2,0.0,0.25
0,554,target,"[(1132, 784)]",[],[1],[0.65],horizontal,"(390.0, 262.0)",1.0333333333333332,0.61,1,6445.268,2,0.0,0.25
0,555,target,"[(1158, 791)]",[],[1],[0.85],vertical,"(890.0, 262.0)",0.6833333333333333,nan,0,6450.7,0,0.0,0.25
0,556,catch,"[(1150, 777)]",[],[1],[],vertical,"(390.0, 762.0)",1.7,nan,1,6455.483,1,0.0,0.25
0,557,target,"[(1132, 797)]",[],[1],[0.55],vertical,"(390.0, 762.0)",0.8666666666666667,0.512,1,6460.61,1,0.0,0.25
0,558,target,"[(1133, 799)]",[],[1],[0.6333333333333333],horizontal,"(890.0, 762.0)",1.1833333333333333,0.597,1,6465.357,1,0.0,0.25
0,559,catch,"[(1165, 783)]",[],[1],[],vertical,"(390.0, 262.0)",1.7,nan,1,6470.702,2,0.0,0.25
0,560,target,"[(1164, 779)]",[],[1],[0.85],vertical,"(390.0, 262.0)",0.7333333333333333,nan,0,6476.454,0,0.0,0.25
0,561,target,"[(1136, 813)]",[],[1],[0.65],horizontal,"(890.0, 762.0)",1.5166666666666666,0.607,1,6481.285,1,0.0,0.25
0,562,catch,"[(1165, 837)]",[],[1],[],vertical,"(890.0, 762.0)",1.7,nan,1,6486.919,1,0.0,0.25
0,563,catch,"[(1165, 815)]",[],[1],[],horizontal,"(390.0, 262.0)",1.7,nan,1,6492.267,1,0.0,0.25
0,564,target,"[(1166, 792)]",[],[1],[0.5333333333333333],vertical,"(890.0, 262.0)",1.0666666666666667,0.492,1,6497.418,2,0.0,0.25
0,565,target,"[(1170, 800)]",[],[1],[0.5833333333333334],vertical,"(390.0, 262.0)",1.05,0.542,1,6502.876,2,0.0,0.25
0,566,catch,"[(1165, 787)]",[],[1],[],vertical,"(390.0, 762.0)",1.7,nan,1,6508.819,2,0.0,0.25
0,567,catch,"[(1157, 800)]",[],[1],[],horizontal,"(390.0, 762.0)",1.7,nan,1,6514.347,3,0.0,0.25
0,568,catch,"[(1169, 796)]",[],[1],[],horizontal,"(890.0, 762.0)",1.7,nan,1,6520.551,3,0.0,0.25
0,569,target,"[(1160, 808)]",[],[1],[0.6833333333333333],horizontal,"(890.0, 762.0)",1.3,0.64,1,6526.252,3,0.0,0.25
0,570,target,"[(1165, 797)]",[],[1],[0.55],vertical,"(390.0, 762.0)",0.75,0.509,1,6532.869,3,0.0,0.25
0,571,target,"[(1160, 802)]",[],[1],[0.5833333333333334],vertical,"(890.0, 762.0)",0.6333333333333333,0.544,1,6538.452,3,0.0,0.25
0,572,target,"[(1165, 793)]",[],[1],[0.6666666666666666],vertical,"(390.0, 262.0)",0.8666666666666667,0.625,1,6544.114,3,0.0,0.25
0,573,target,"[(1159, 789)]",[],[1],[0.6333333333333333],vertical,"(390.0, 762.0)",0.3833333333333333,0.598,1,6550.115,3,0.0,0.25
0,574,target,"[(1160, 791)]",[],[1],[0.5333333333333333],horizontal,"(390.0, 762.0)",0.7166666666666667,0.487,1,6555.626,3,0.0,0.25
0,575,target,"[(1157, 791)]",[],[1],[0.5833333333333334],vertical,"(390.0, 262.0)",0.8,0.543,1,6560.891,3,0.0,0.25
0,576,target,"[(1151, 789)]",[],[1],[0.5],horizontal,"(890.0, 262.0)",0.55,0.462,1,6566.323,3,0.0,0.25
0,577,target,"[(1139, 796)]",[],[1],[0.5333333333333333],vertical,"(390.0, 262.0)",0.4166666666666667,0.49,1,6571.751,3,0.0,0.25
0,578,target,"[(1160, 789)]",[],[1],[0.5333333333333333],horizontal,"(890.0, 762.0)",1.1333333333333333,0.493,1,6576.852,3,0.0,0.25
0,579,target,"[(1166, 802)]",[],[1],[0.5833333333333334],horizontal,"(390.0, 762.0)",0.36666666666666664,0.541,1,6582.968,3,0.0,0.25
0,580,target,"[(1156, 798)]",[],[1],[0.65],vertical,"(390.0, 762.0)",1.15,0.606,1,6588.135,3,0.0,0.25
0,581,target,"[(1159, 809)]",[],[1],[0.7],vertical,"(390.0, 762.0)",1.4166666666666667,0.664,1,6594.512,3,0.0,0.25
0,582,target,"[(1160, 792)]",[],[1],[0.7666666666666666],horizontal,"(890.0, 262.0)",0.7666666666666666,0.723,1,6601.177,3,0.0,0.25
0,583,target,"[(1155, 793)]",[],[1],[0.5333333333333333],horizontal,"(890.0, 262.0)",0.9833333333333333,0.495,1,6606.818,3,0.0,0.25
0,584,catch,"[(1130, 808)]",[],[1],[],horizontal,"(390.0, 262.0)",1.7,nan,1,6612.617,3,0.0,0.25
0,585,target,"[(1142, 803)]",[],[1],[0.5666666666666667],horizontal,"(390.0, 262.0)",1.3333333333333333,0.527,1,6618.352,3,0.0,0.25
0,586,target,"[(1133, 789)]",[],[1],[0.55],horizontal,"(890.0, 762.0)",1.0333333333333332,0.509,1,6624.774,3,0.0,0.25
0,587,catch,"[(1134, 773)]",[],[1],[],vertical,"(890.0, 262.0)",1.7,nan,1,6630.486,3,0.0,0.25
0,588,target,"[(1159, 798)]",[],[1],[0.6833333333333333],horizontal,"(390.0, 262.0)",0.7166666666666667,0.643,1,6636.236,3,0.0,0.25
0,589,target,"[(1156, 789)]",[],[1],[0.5833333333333334],vertical,"(390.0, 262.0)",0.7333333333333333,0.542,1,6642.151,3,0.0,0.25
0,590,target,"[(1134, 797)]",[],[1],[0.6333333333333333],vertical,"(890.0, 262.0)",0.8333333333333334,0.587,1,6647.668,3,0.0,0.25
0,591,target,"[(1154, 799)]",[],[1],[0.5333333333333333],horizontal,"(890.0, 762.0)",0.8833333333333333,0.496,1,6653.552,3,0.0,0.25
0,592,catch,"[(1159, 797)]",[],[1],[],vertical,"(390.0, 262.0)",1.7,nan,1,6659.353,3,0.0,0.25
0,593,target,"[(1170, 802)]",[],[1],[0.6],vertical,"(390.0, 762.0)",0.6166666666666667,0.557,1,6665.536,3,0.0,0.25
0,594,target,"[(1136, 795)]",[],[1],[0.5333333333333333],horizontal,"(390.0, 262.0)",1.0833333333333333,0.492,1,6671.086,3,0.0,0.25
0,595,target,"[(1156, 788)]",[],[1],"[0.85, 0.85]",vertical,"(390.0, 262.0)",1.4,"0.807,nan",0,6676.595,0,0.0,0.25
0,596,catch,"[(1136, 811)]",[],[1],[],horizontal,"(390.0, 762.0)",1.7,nan,1,6681.486,1,0.0,0.25
0,597,catch,"[(1131, 825)]",[],[1],[],horizontal,"(890.0, 262.0)",1.7,nan,1,6687.769,1,0.0,0.25
0,598,target,"[(1133, 801)]",[],[1],[0.6666666666666666],vertical,"(390.0, 762.0)",1.1833333333333333,0.627,1,6692.986,1,0.0,0.25
0,599,target,"[(1127, 817)]",[],[1],[0.6333333333333333],horizontal,"(890.0, 762.0)",0.5166666666666666,0.593,1,6698.155,2,0.0,0.25
0,600,catch,"[(1165, 803)]",[],[1],[],horizontal,"(890.0, 762.0)",1.7,nan,1,6703.359,2,0.0,0.25
0,601,target,"[(1138, 802)]",[],[1],[0.5666666666666667],horizontal,"(890.0, 762.0)",0.5,0.53,1,6709.252,2,0.0,0.25
0,602,catch,"[(1162, 787)]",[],[1],[],horizontal,"(390.0, 262.0)",1.7,nan,1,6714.236,3,0.0,0.25
0,603,catch,"[(1163, 807)]",[],[1],[],horizontal,"(890.0, 262.0)",1.7,nan,1,6720.602,3,0.0,0.25
0,604,target,"[(1144, 792)]",[],[1],[0.5],horizontal,"(890.0, 262.0)",0.7333333333333333,0.468,1,6726.252,3,0.0,0.25
0,605,target,"[(1171, 782)]",[],[1],[0.43333333333333335],vertical,"(890.0, 262.0)",1.4833333333333334,0.392,1,6732.143,3,0.0,0.25
0,606,target,"[(1128, 795)]",[],[1],[0.5666666666666667],horizontal,"(890.0, 762.0)",0.35,0.525,1,6738.418,3,0.0,0.25
0,607,catch,"[(1131, 787)]",[],[1],[],horizontal,"(890.0, 262.0)",1.7,nan,1,6743.785,3,0.0,0.25
0,608,target,"[(1154, 796)]",[],[1],[0.6666666666666666],horizontal,"(390.0, 262.0)",1.4333333333333333,0.626,1,6749.633,3,0.0,0.25
0,609,target,"[(1163, 792)]",[],[1],[0.7],horizontal,"(390.0, 762.0)",0.7166666666666667,0.654,1,6755.92,3,0.0,0.25
0,610,target,"[(1141, 811)]",[],[1],[0.55],horizontal,"(890.0, 762.0)",0.75,0.508,1,6761.136,3,0.0,0.25
0,611,target,"[(1166, 800)]",[],[1],[0.5],horizontal,"(890.0, 762.0)",1.15,0.458,1,6767.27,3,0.0,0.25
0,612,catch,"[(1148, 812)]",[],[1],[],horizontal,"(390.0, 262.0)",1.7,nan,1,6773.191,3,0.0,0.25
0,613,catch,"[(1195, 790)]",[],[1],[],vertical,"(890.0, 262.0)",1.7,nan,1,6779.604,3,0.0,0.25
0,614,target,"[(1165, 793)]",[],[1],[0.55],horizontal,"(890.0, 262.0)",1.4333333333333333,0.506,1,6785.203,3,0.0,0.25
0,615,catch,"[(1136, 810)]",[],[1],[],horizontal,"(390.0, 762.0)",1.7,nan,1,6791.137,3,0.0,0.25
0,616,catch,"[(1158, 794)]",[],[1],[],horizontal,"(390.0, 762.0)",1.7,nan,1,6797.303,3,0.0,0.25
0,617,target,"[(1164, 781)]",[],[1],[0.6],horizontal,"(890.0, 262.0)",0.6166666666666667,0.563,1,6803.812,3,0.0,0.25
0,618,catch,"[(1152, 787)]",[],[1],[],horizontal,"(390.0, 262.0)",1.7,nan,1,6809.402,3,0.0,0.25
0,619,catch,"[(1157, 792)]",[],[1],[],horizontal,"(890.0, 262.0)",1.7,nan,1,6815.434,3,0.0,0.25
0,620,target,"[(1140, 799)]",[],[1],[0.5166666666666666],horizontal,"(890.0, 762.0)",1.3333333333333333,0.482,1,6821.258,3,0.0,0.25
0,621,target,"[(1163, 785)]",[],[1],[0.5833333333333334],vertical,"(890.0, 762.0)",1.05,0.552,1,6827.167,3,0.0,0.25
0,622,target,"[(1157, 817)]",[],[1],[0.5833333333333334],horizontal,"(890.0, 762.0)",1.0666666666666667,0.553,1,6832.702,3,0.0,0.25
0,623,target,"[(1146, 794)]",[],[1],[0.55],vertical,"(890.0, 262.0)",1.45,0.51,1,6838.503,3,0.0,0.25
0,624,target,"[(1157, 791)]",[],[1],[0.55],vertical,"(890.0, 762.0)",1.3166666666666667,0.509,1,6844.503,3,0.0,0.25
0,625,target,"[(1132, 836)]",[],[1],[0.7166666666666667],vertical,"(890.0, 762.0)",1.0333333333333332,0.673,1,6850.777,3,0.0,0.25
0,626,target,"[(1155, 794)]",[],[1],[0.5333333333333333],vertical,"(390.0, 262.0)",0.45,0.497,1,6856.953,3,0.0,0.25
0,627,target,"[(1158, 795)]",[],[1],[0.5666666666666667],horizontal,"(390.0, 262.0)",1.2166666666666666,0.525,1,6862.181,3,0.0,0.25
0,628,target,"[(1159, 818)]",[],[1],[0.55],vertical,"(890.0, 762.0)",0.75,0.511,1,6868.215,3,0.0,0.25
0,629,target,"[(1123, 830)]",[],[1],[0.5],horizontal,"(890.0, 762.0)",1.2333333333333334,0.46,1,6873.897,3,0.0,0.25
0,630,target,"[(1136, 790)]",[],[1],[0.7666666666666666],horizontal,"(890.0, 762.0)",1.1833333333333333,0.725,1,6880.278,3,0.0,0.25
0,631,catch,"[(1126, 801)]",[],[1],[],vertical,"(890.0, 262.0)",1.7,nan,1,6886.669,3,0.0,0.25
0,632,target,"[(1141, 773)]",[],[1],[0.5666666666666667],horizontal,"(890.0, 762.0)",0.3833333333333333,0.524,1,6896.695,3,0.0,0.25
0,633,target,"[(1151, 788)]",[],[1],[0.6],horizontal,"(390.0, 762.0)",0.75,0.56,1,6901.786,3,0.0,0.25
0,634,catch,"[(1135, 795)]",[],[1],[],horizontal,"(890.0, 262.0)",1.7,nan,1,6907.487,3,0.0,0.25
0,635,target,"[(1162, 797)]",[],[1],[0.6333333333333333],horizontal,"(890.0, 262.0)",1.3166666666666667,0.594,1,6913.241,3,0.0,0.25
0,636,target,"[(1146, 787)]",[],[1],[0.6833333333333333],horizontal,"(890.0, 762.0)",1.1833333333333333,0.648,1,6919.303,3,0.0,0.25
0,637,catch,"[(1160, 782)]",[],[1],[],horizontal,"(890.0, 262.0)",1.7,nan,1,6925.469,3,0.0,0.25
0,638,target,"[(1160, 785)]",[],[1],[0.5666666666666667],horizontal,"(390.0, 762.0)",0.5,0.523,1,6931.57,3,0.0,0.25
0,639,target,"[(1158, 811)]",[],[1],[0.7166666666666667],horizontal,"(890.0, 762.0)",1.3833333333333333,0.669,1,6936.986,3,0.0,0.25
0,640,catch,"[(1141, 801)]",[],[1],[],horizontal,"(390.0, 262.0)",1.7,nan,1,6943.537,3,0.0,0.25
0,641,target,"[(1136, 791)]",[],[1],[0.55],horizontal,"(890.0, 762.0)",0.9166666666666666,0.506,1,6949.453,3,0.0,0.25
0,642,target,"[(1163, 797)]",[],[1],[0.65],horizontal,"(890.0, 262.0)",0.3833333333333333,0.608,1,6955.505,3,0.0,0.25
0,643,catch,"[(1136, 800)]",[],[1],[],vertical,"(890.0, 762.0)",1.7,nan,1,6960.898,3,0.0,0.25
0,644,target,"[(1155, 791)]",[],[1],[0.5333333333333333],vertical,"(390.0, 262.0)",0.9666666666666667,0.496,1,6966.526,3,0.0,0.25
0,645,target,"[(1145, 786)]",[],[1],[0.23333333333333334],vertical,"(390.0, 262.0)",1.4833333333333334,0.198,0,6972.295,0,0.0,0.25
0,646,target,"[(1091, 825)]",[],[1],[],vertical,"(890.0, 762.0)",,"('cti', 0.067)",0,6977.386,0,0.02,0.25
0,647,catch,"[(1012, 925)]",[],[1],[],vertical,"(390.0, 762.0)",,"('fix', 0.051),nan",0,7350.289,0,0.04,0.25
0,648,target,"[(1081, 861)]",[],[1],[0.85],vertical,"(390.0, 262.0)",0.9,nan,0,7353.289,0,0.04,0.25
0,649,catch,"[(1126, 827)]",[],[1],[],horizontal,"(390.0, 262.0)",1.7,nan,1,7375.6,1,0.04,0.25
0,650,catch,"[(1126, 834)]",[],[1],[],vertical,"(890.0, 262.0)",1.7,nan,1,8264.321,1,0.04,0.25
0,651,target,"[(1112, 828)]",[],[1],[0.85],vertical,"(890.0, 762.0)",0.65,nan,0,8287.958,0,0.04,0.25
0,652,catch,"[(1124, 828)]",[],[1],[],vertical,"(890.0, 262.0)",1.7,nan,1,8293.232,1,0.04,0.25
0,653,target,"[(1133, 792)]",[],[1],[0.85],vertical,"(390.0, 762.0)",0.8,nan,0,8299.534,0,0.04,0.25
0,654,target,"[(1185, 910)]",[],[1],[],horizontal,"(390.0, 262.0)",,"('fix', 0.067)",0,8303.942,0,0.04,0.25
0,655,catch,"[(1155, 807)]",[],[1],[],vertical,"(890.0, 762.0)",,"('fix', 0.148),nan",0,8306.746,0,0.06,0.25
0,656,catch,"[(1088, 798)]",[],[1],[],vertical,"(390.0, 762.0)",1.7,nan,1,8308.391,1,0.06,0.25
0,657,target,"[(1133, 796)]",[],[1],[0.85],vertical,"(390.0, 262.0)",0.5666666666666667,nan,0,8326.908,0,0.06,0.25
0,658,target,"[(1111, 847)]",[],[1],[0.5],vertical,"(890.0, 762.0)",0.4666666666666667,0.463,1,8331.083,1,0.06,0.25
0,659,target,"[(1140, 816)]",[],[1],[0.85],vertical,"(890.0, 762.0)",1.15,nan,0,8337.854,0,0.06,0.25
0,660,target,"[(1131, 799)]",[],[1],[0.5333333333333333],horizontal,"(390.0, 762.0)",0.43333333333333335,0.496,1,8342.937,1,0.06,0.25
0,661,target,"[(1157, 807)]",[],[1],[0.6833333333333333],horizontal,"(890.0, 262.0)",1.2333333333333334,0.639,1,8347.634,1,0.06,0.25
0,662,target,"[(1163, 791)]",[],[1],[0.85],horizontal,"(890.0, 762.0)",0.9833333333333333,nan,0,8352.811,0,0.06,0.25
0,663,target,"[(1136, 809)]",[],[1],[0.6166666666666667],vertical,"(390.0, 262.0)",0.4,0.574,1,8357.478,1,0.06,0.25
0,664,catch,"[(1136, 832)]",[],[1],[],horizontal,"(890.0, 262.0)",1.7,nan,1,8362.129,1,0.06,0.25
0,665,target,"[(1142, 789)]",[],[1],[0.85],vertical,"(390.0, 262.0)",0.55,nan,0,8367.4,0,0.06,0.25
0,666,target,"[(1135, 812)]",[],[1],[0.65],vertical,"(390.0, 762.0)",0.35,0.604,1,8372.059,1,0.06,0.25
0,667,target,"[(1160, 787)]",[],[1],[0.5],vertical,"(890.0, 762.0)",0.6833333333333333,0.458,1,8376.709,1,0.06,0.25
0,668,target,"[(1131, 775)]",[],[1],[0.5666666666666667],horizontal,"(390.0, 262.0)",0.5666666666666667,0.524,1,8380.939,1,0.06,0.25
0,669,target,"[(1145, 778)]",[],[1],[0.6166666666666667],horizontal,"(390.0, 262.0)",0.8833333333333333,0.577,1,8385.576,2,0.06,0.25
0,670,catch,"[(1154, 791)]",[],[1],[],horizontal,"(890.0, 262.0)",1.7,nan,1,8391.072,2,0.06,0.25
0,671,target,"[(1180, 793)]",[],[1],[0.65],horizontal,"(890.0, 262.0)",0.8333333333333334,0.609,1,8396.789,2,0.06,0.25
0,672,target,"[(1161, 783)]",[],[1],[0.5166666666666666],vertical,"(390.0, 262.0)",0.5,0.475,1,8402.16,3,0.06,0.25
0,673,catch,"[(1151, 778)]",[],[1],[],vertical,"(890.0, 762.0)",1.7,nan,1,8407.576,3,0.06,0.25
0,674,target,"[(1164, 790)]",[],[1],[0.85],horizontal,"(390.0, 262.0)",0.5333333333333333,nan,0,8413.258,0,0.06,0.25
0,675,target,"[(1125, 799)]",[],[1],[0.7333333333333333],horizontal,"(390.0, 762.0)",0.55,0.688,1,8417.193,1,0.06,0.25
0,676,catch,"[(1155, 773)]",[],[1],[],horizontal,"(890.0, 262.0)",1.7,nan,1,8422.443,1,0.06,0.25
0,677,target,"[(1159, 774)]",[],[1],[0.5666666666666667],vertical,"(390.0, 762.0)",1.05,0.526,1,8427.334,1,0.06,0.25
0,678,catch,"[(1167, 773)]",[],[1],[],horizontal,"(890.0, 762.0)",,"('cti', 1.628),nan",0,8432.326,0,0.08,0.25
0,679,target,"[(1146, 817)]",[],[1],[0.6],horizontal,"(890.0, 762.0)",1.1333333333333333,0.56,1,8437.41,1,0.08,0.25
0,680,target,"[(1130, 820)]",[],[1],[0.5833333333333334],vertical,"(890.0, 762.0)",0.9166666666666666,0.542,1,8442.676,1,0.08,0.25
0,681,target,"[(1157, 786)]",[],[1],[0.6166666666666667],horizontal,"(890.0, 262.0)",0.7333333333333333,0.58,1,8447.609,1,0.08,0.25
0,682,target,"[(1185, 774)]",[],[1],[0.5166666666666666],vertical,"(890.0, 762.0)",1.4333333333333333,0.482,1,8452.725,2,0.08,0.25
0,683,catch,"[(1185, 776)]",[],[1],[],horizontal,"(390.0, 262.0)",1.7,nan,1,8458.428,2,0.08,0.25
0,684,target,"[(1146, 782)]",[],[1],[0.85],vertical,"(390.0, 762.0)",0.48333333333333334,nan,0,8464.41,0,0.08,0.25
0,685,catch,"[(1125, 787)]",[],[1],[],vertical,"(890.0, 762.0)",1.7,nan,1,8468.876,1,0.08,0.25
0,686,target,"[(1160, 808)]",[],[1],[0.7],horizontal,"(890.0, 262.0)",0.35,0.659,1,8474.4,1,0.08,0.25
0,687,target,"[(1146, 783)]",[],[1],[0.6666666666666666],vertical,"(890.0, 762.0)",1.1166666666666667,0.627,1,8479.142,1,0.08,0.25
0,688,target,"[(1193, 783)]",[],[1],[0.5],horizontal,"(890.0, 262.0)",1.3,0.459,1,8484.128,2,0.08,0.25
0,689,catch,"[(1159, 762)]",[],[1],[],horizontal,"(390.0, 262.0)",1.7,nan,1,8490.167,2,0.08,0.25
0,690,catch,"[(1156, 769)]",[],[1],[],horizontal,"(390.0, 762.0)",1.7,nan,1,8495.492,2,0.08,0.25
0,691,target,"[(1136, 784)]",[],[1],[0.55],vertical,"(890.0, 762.0)",0.6333333333333333,0.51,1,8501.407,3,0.08,0.25
0,692,target,"[(1159, 783)]",[],[1],[0.5166666666666666],vertical,"(890.0, 762.0)",1.35,0.478,1,8506.894,3,0.08,0.25
0,693,target,"[(1112, 844)]",[],[1],"[0.85, 0.85]",horizontal,"(390.0, 762.0)",1.0,"0.809,nan",0,8513.461,0,0.08,0.25
0,694,catch,"[(1131, 802)]",[],[1],[],vertical,"(890.0, 262.0)",1.7,nan,1,8518.385,1,0.08,0.25
0,695,target,"[(1204, 778)]",[],[1],[0.4666666666666667],vertical,"(890.0, 762.0)",0.7333333333333333,0.429,1,8523.78,1,0.08,0.25
0,696,target,"[(1131, 779)]",[],[1],[0.55],vertical,"(390.0, 262.0)",0.7666666666666666,0.515,1,8528.363,1,0.06,0.25
0,697,target,"[(1122, 839)]",[],[1],[0.5],vertical,"(890.0, 262.0)",0.9833333333333333,0.462,1,8533.251,2,0.04,0.25
0,698,catch,"[(1116, 808)]",[],[1],[],horizontal,"(390.0, 762.0)",1.7,nan,1,8539.259,2,0.04,0.25
0,699,catch,"[(1105, 837)]",[],[1],[],horizontal,"(890.0, 762.0)",1.7,nan,1,9508.897,2,0.04,0.25
0,700,target,"[(1136, 818)]",[],[1],[0.6],horizontal,"(890.0, 262.0)",1.1166666666666667,0.555,1,9517.709,3,0.04,0.25
0,701,target,"[(1133, 802)]",[],[1],[0.7],horizontal,"(390.0, 262.0)",0.9833333333333333,0.655,1,9523.797,3,0.04,0.25
0,702,target,"[(1161, 804)]",[],[1],[0.85],vertical,"(890.0, 762.0)",0.7166666666666667,nan,0,9529.681,0,0.04,0.25
0,703,catch,"[(1137, 799)]",[],[1],[],horizontal,"(390.0, 262.0)",1.7,nan,1,9533.78,1,0.04,0.25
0,704,catch,"[(1140, 789)]",[],[1],[],horizontal,"(890.0, 762.0)",,"('cti', 1.691),nan",0,9538.996,0,0.06,0.25
0,705,catch,"[(1130, 833)]",[],[1],[],vertical,"(390.0, 262.0)",1.7,nan,1,9544.096,1,0.04,0.25
0,706,target,"[(1154, 794)]",[],[1],[0.5333333333333333],vertical,"(890.0, 762.0)",0.4666666666666667,0.495,1,9549.43,1,0.04,0.25
0,707,catch,"[(1159, 803)]",[],[1],[],vertical,"(890.0, 762.0)",1.7,nan,1,9553.781,1,0.04,0.25
0,708,target,"[(1158, 792)]",[],[1],[0.6166666666666667],horizontal,"(890.0, 262.0)",0.9333333333333333,0.576,1,9558.781,2,0.04,0.25
0,709,catch,"[(1116, 800)]",[],[1],[],horizontal,"(890.0, 262.0)",1.7,nan,1,9563.807,2,0.04,0.25
0,710,catch,"[(1131, 808)]",[],[1],[],vertical,"(890.0, 262.0)",1.7,nan,1,9569.685,2,0.04,0.25
0,711,target,"[(1132, 797)]",[],[1],[0.65],horizontal,"(390.0, 762.0)",1.1166666666666667,0.61,1,9575.751,3,0.04,0.25
0,712,target,"[(1146, 795)]",[],[1],[0.48333333333333334],horizontal,"(890.0, 262.0)",0.43333333333333335,0.441,1,9581.446,3,0.04,0.25
0,713,catch,"[(1166, 796)]",[],[1],[],horizontal,"(890.0, 262.0)",1.7,nan,1,9586.577,3,0.04,0.25
0,714,target,"[(1178, 795)]",[],[1],[0.55],vertical,"(390.0, 262.0)",0.95,0.517,1,9592.697,3,0.04,0.25
0,715,catch,"[(1155, 793)]",[],[1],[],vertical,"(390.0, 262.0)",1.7,nan,1,9598.38,3,0.04,0.25
0,716,catch,"[(1157, 807)]",[],[1],[],vertical,"(890.0, 262.0)",1.7,nan,1,9604.53,3,0.04,0.25
0,717,target,"[(1160, 808)]",[],[1],[0.65],horizontal,"(390.0, 262.0)",0.35,0.605,1,9610.773,3,0.04,0.25
0,718,target,"[(1149, 803)]",[],[1],[0.5833333333333334],vertical,"(390.0, 762.0)",1.35,0.541,1,9616.023,3,0.04,0.25
0,719,target,"[(1155, 791)]",[],[1],[0.4666666666666667],vertical,"(890.0, 762.0)",1.2333333333333334,0.429,1,9622.15,3,0.04,0.25
0,720,catch,"[(1131, 805)]",[],[1],[],vertical,"(890.0, 262.0)",1.7,nan,1,9628.396,3,0.04,0.25
0,721,target,"[(1165, 797)]",[],[1],[0.5],horizontal,"(390.0, 762.0)",0.5666666666666667,0.465,1,9634.255,3,0.04,0.25
0,722,target,"[(1156, 803)]",[],[1],[0.6333333333333333],vertical,"(390.0, 762.0)",0.8333333333333334,0.592,1,9639.963,3,0.04,0.25
0,723,catch,"[(1160, 804)]",[],[1],[],horizontal,"(890.0, 762.0)",1.7,nan,1,9645.398,3,0.04,0.25
0,724,catch,"[(1160, 795)]",[],[1],[],horizontal,"(890.0, 262.0)",1.7,nan,1,9651.108,3,0.04,0.25
0,725,target,"[(1162, 802)]",[],[1],[0.35],horizontal,"(390.0, 262.0)",1.45,0.314,1,9657.065,3,0.04,0.25
0,726,target,"[(1158, 798)]",[],[1],[0.55],vertical,"(390.0, 262.0)",1.2166666666666666,0.513,1,9663.243,3,0.04,0.25
0,727,catch,"[(1162, 792)]",[],[1],[],horizontal,"(890.0, 762.0)",1.7,nan,1,9669.08,3,0.04,0.25
0,728,target,"[(1158, 817)]",[],[1],[0.48333333333333334],horizontal,"(390.0, 262.0)",0.7333333333333333,0.445,1,9675.088,3,0.02,0.25
0,729,target,"[(1142, 818)]",[],[1],[0.5333333333333333],horizontal,"(890.0, 762.0)",0.9166666666666666,0.492,1,9680.599,3,0.02,0.25
0,730,catch,"[(1135, 784)]",[],[1],[],horizontal,"(390.0, 762.0)",1.7,nan,1,9686.03,3,0.02,0.25
0,731,target,"[(1152, 804)]",[],[1],[0.5166666666666666],vertical,"(890.0, 262.0)",0.8833333333333333,0.479,1,9691.958,3,0.02,0.25
0,732,target,"[(1166, 789)]",[],[1],[0.5833333333333334],vertical,"(390.0, 762.0)",0.8333333333333334,0.548,1,9697.447,3,0.02,0.25
0,733,target,"[(1132, 797)]",[],[1],[0.5166666666666666],horizontal,"(390.0, 762.0)",0.5333333333333333,0.485,1,9702.947,3,0.02,0.25
0,734,target,"[(1158, 791)]",[],[1],[0.6166666666666667],horizontal,"(390.0, 262.0)",0.75,0.577,1,9708.338,3,0.02,0.25
0,735,target,"[(1155, 797)]",[],[1],[0.85],horizontal,"(890.0, 262.0)",0.55,nan,0,9713.753,0,0.02,0.25
0,736,target,"[(1120, 794)]",[],[1],[0.75],horizontal,"(890.0, 762.0)",0.8166666666666667,0.706,1,9718.052,1,0.02,0.25
0,737,target,"[(1158, 802)]",[],[1],[0.5166666666666666],horizontal,"(390.0, 762.0)",1.0833333333333333,0.475,1,9728.236,1,0.02,0.25
0,738,target,"[(1155, 804)]",[],[1],[0.7833333333333333],horizontal,"(890.0, 762.0)",0.6666666666666666,0.753,1,9733.281,1,0.02,0.25
0,739,catch,"[(1155, 783)]",[],[1],[],vertical,"(890.0, 262.0)",1.7,nan,1,9738.097,2,0.02,0.25
0,740,target,"[(1145, 809)]",[],[1],[0.5166666666666666],horizontal,"(390.0, 762.0)",0.7666666666666666,0.476,1,9743.684,2,0.02,0.25
0,741,target,"[(1153, 800)]",[],[1],[0.85],vertical,"(890.0, 762.0)",0.5666666666666667,nan,0,9749.186,0,0.02,0.25
0,742,target,"[(1128, 796)]",[],[1],[0.6],horizontal,"(390.0, 762.0)",1.2833333333333332,0.559,1,9753.852,1,0.02,0.25
0,743,target,"[(1161, 800)]",[],[1],[0.5333333333333333],horizontal,"(890.0, 762.0)",0.4666666666666667,0.504,1,9759.252,1,0.02,0.25
0,744,catch,"[(1123, 787)]",[],[1],[],horizontal,"(890.0, 762.0)",1.7,nan,1,9763.668,1,0.02,0.25
0,745,target,"[(1163, 802)]",[],[1],[0.6166666666666667],vertical,"(390.0, 762.0)",1.0,0.575,1,9769.062,2,0.02,0.25
0,746,target,"[(1182, 796)]",[],[1],[0.6666666666666666],horizontal,"(390.0, 262.0)",0.6166666666666667,0.626,1,9774.764,2,0.02,0.25
0,747,catch,"[(1160, 793)]",[],[1],[],vertical,"(890.0, 262.0)",1.7,nan,1,9780.203,2,0.02,0.25
0,748,catch,"[(1160, 800)]",[],[1],[],vertical,"(390.0, 762.0)",1.7,nan,1,9786.088,3,0.02,0.25
0,749,target,"[(1158, 791)]",[],[1],[0.5],vertical,"(890.0, 262.0)",0.9,0.463,1,9792.432,3,0.02,0.25
0,750,target,"[(1175, 808)]",[],[1],[0.6833333333333333],horizontal,"(390.0, 262.0)",0.8833333333333333,0.645,1,9797.773,3,0.02,0.25
0,751,catch,"[(1160, 799)]",[],[1],[],vertical,"(890.0, 262.0)",1.7,nan,1,9803.897,3,0.02,0.25
0,752,target,"[(1165, 798)]",[],[1],[0.65],horizontal,"(390.0, 762.0)",0.9666666666666667,0.606,1,9809.878,3,0.02,0.25
0,753,catch,"[(1117, 814)]",[],[1],[],horizontal,"(890.0, 262.0)",1.7,nan,1,9815.722,3,0.02,0.25
0,754,target,"[(1140, 799)]",[],[1],[0.6333333333333333],horizontal,"(890.0, 262.0)",0.8333333333333334,0.59,1,9821.802,3,0.0,0.25
0,755,target,"[(1131, 804)]",[],[1],[0.5333333333333333],horizontal,"(390.0, 762.0)",0.9333333333333333,0.497,1,9828.064,3,0.0,0.25
0,756,catch,"[(1165, 808)]",[],[1],[],horizontal,"(890.0, 762.0)",1.7,nan,1,9833.582,3,0.0,0.25
0,757,target,"[(1161, 764)]",[],[1],[0.23333333333333334],vertical,"(390.0, 762.0)",1.5333333333333332,0.202,1,9839.979,3,0.0,0.25
0,758,target,"[(1165, 800)]",[],[1],[0.5333333333333333],vertical,"(390.0, 262.0)",1.4333333333333333,0.494,1,9845.948,3,0.0,0.25
0,759,target,"[(1141, 793)]",[],[1],[0.55],vertical,"(390.0, 262.0)",0.85,0.507,1,9852.162,3,0.0,0.25
0,760,catch,"[(1165, 776)]",[],[1],[],vertical,"(890.0, 762.0)",1.7,nan,1,9857.781,3,0.0,0.25
0,761,catch,"[(1157, 785)]",[],[1],[],vertical,"(390.0, 762.0)",1.7,nan,1,9864.023,3,0.0,0.25
0,762,catch,"[(1161, 795)]",[],[1],[],vertical,"(890.0, 762.0)",1.7,nan,1,9869.782,3,0.0,0.25
0,763,target,"[(1160, 808)]",[],[1],"[0.85, 0.85]",vertical,"(890.0, 762.0)",1.1333333333333333,"0.802,nan",0,9876.148,0,0.0,0.25
0,764,target,"[(1130, 795)]",[],[1],[0.5333333333333333],horizontal,"(390.0, 262.0)",0.9666666666666667,0.493,1,9881.148,1,0.0,0.25
0,765,catch,"[(1180, 803)]",[],[1],[],horizontal,"(390.0, 762.0)",1.7,nan,1,9886.115,1,0.0,0.25
0,766,target,"[(1159, 802)]",[],[1],[0.5],horizontal,"(390.0, 762.0)",1.15,0.476,1,9891.138,1,0.0,0.25
0,767,catch,"[(1160, 795)]",[],[1],[],vertical,"(390.0, 762.0)",1.7,nan,1,9896.548,2,0.0,0.25
0,768,target,"[(1127, 824)]",[],[1],[0.85],horizontal,"(390.0, 262.0)",1.05,nan,0,9901.83,0,0.0,0.25
0,769,target,"[(1121, 832)]",[],[1],[0.6],horizontal,"(890.0, 262.0)",1.3166666666666667,0.557,1,9953.306,1,0.0,0.25
0,770,catch,"[(1152, 820)]",[],[1],[],horizontal,"(890.0, 762.0)",1.7,nan,1,9959.699,1,0.0,0.25
0,771,target,"[(1155, 828)]",[],[1],[0.7666666666666666],vertical,"(390.0, 762.0)",0.9333333333333333,0.723,1,9965.248,1,0.0,0.25
0,772,target,"[(1155, 802)]",[],[1],[0.7166666666666667],vertical,"(390.0, 262.0)",0.9666666666666667,0.686,1,9970.838,2,0.0,0.25
0,773,target,"[(1160, 789)]",[],[1],[0.3],vertical,"(890.0, 762.0)",1.35,0.269,1,9976.797,2,0.0,0.25
0,774,target,"[(1163, 770)]",[],[1],[0.5166666666666666],vertical,"(390.0, 762.0)",0.35,0.478,1,9982.722,2,0.0,0.25
0,775,target,"[(1160, 790)]",[],[1],[0.8],vertical,"(890.0, 762.0)",1.3,0.751,1,9987.248,3,0.0,0.25
0,776,target,"[(1135, 784)]",[],[1],[0.8166666666666667],vertical,"(390.0, 262.0)",1.1666666666666667,0.771,1,9993.616,3,0.0,0.25
0,777,target,"[(1146, 786)]",[],[1],[0.55],vertical,"(390.0, 762.0)",1.35,0.518,1,10000.134,3,0.0,0.25
0,778,catch,"[(1140, 788)]",[],[1],[],vertical,"(390.0, 262.0)",1.7,nan,1,10006.006,3,0.0,0.25
0,779,target,"[(1131, 798)]",[],[1],[0.6666666666666666],vertical,"(390.0, 762.0)",1.0166666666666666,0.633,1,10011.84,3,0.0,0.25
0,780,target,"[(1156, 786)]",[],[1],[0.5666666666666667],vertical,"(890.0, 262.0)",1.2166666666666666,0.524,1,10017.79,3,0.0,0.25
0,781,target,"[(1161, 788)]",[],[1],[0.4666666666666667],vertical,"(390.0, 262.0)",0.65,0.427,1,10023.981,3,0.0,0.25
0,782,target,"[(1174, 798)]",[],[1],[0.5333333333333333],horizontal,"(390.0, 762.0)",0.75,0.492,1,10029.089,3,0.0,0.25
0,783,target,"[(1150, 792)]",[],[1],[0.5833333333333334],vertical,"(890.0, 762.0)",0.8166666666666667,0.54,1,10034.365,3,0.0,0.25
0,784,target,"[(1159, 793)]",[],[1],[0.65],horizontal,"(890.0, 762.0)",1.1833333333333333,0.613,1,10040.215,3,0.0,0.25
0,785,target,"[(1135, 809)]",[],[1],[0.5],horizontal,"(890.0, 762.0)",1.4333333333333333,0.459,1,10046.116,3,0.0,0.25
0,786,catch,"[(1160, 815)]",[],[1],[],horizontal,"(890.0, 762.0)",1.7,nan,1,10052.726,3,0.0,0.25
0,787,target,"[(1145, 809)]",[],[1],[0.7333333333333333],vertical,"(890.0, 262.0)",0.6166666666666667,0.697,1,10058.665,3,0.0,0.25
0,788,catch,"[(1159, 782)]",[],[1],[],vertical,"(890.0, 762.0)",1.7,nan,1,10064.265,3,0.0,0.25
0,789,catch,"[(1133, 783)]",[],[1],[],horizontal,"(890.0, 762.0)",1.7,nan,1,10070.101,3,0.0,0.25
0,790,catch,"[(1165, 792)]",[],[1],[],horizontal,"(390.0, 762.0)",1.7,nan,1,10076.417,3,0.0,0.25
0,791,catch,"[(1155, 808)]",[],[1],[],vertical,"(890.0, 762.0)",1.7,nan,1,10082.566,3,0.0,0.25
0,792,target,"[(1131, 800)]",[],[1],[0.5166666666666666],vertical,"(890.0, 762.0)",0.7333333333333333,0.476,1,10088.59,3,0.0,0.25
0,793,target,"[(1153, 799)]",[],[1],[0.6166666666666667],horizontal,"(390.0, 762.0)",0.7,0.575,1,10093.649,3,0.0,0.25
0,794,target,"[(1148, 802)]",[],[1],[0.55],vertical,"(890.0, 762.0)",0.48333333333333334,0.511,1,10099.227,3,0.0,0.25
0,795,target,"[(1160, 790)]",[],[1],[0.55],horizontal,"(390.0, 262.0)",0.9333333333333333,0.511,1,10104.547,3,0.0,0.25
0,796,catch,"[(1160, 803)]",[],[1],[],horizontal,"(390.0, 262.0)",1.7,nan,1,10110.176,3,0.0,0.25
0,797,target,"[(1136, 813)]",[],[1],[0.6],vertical,"(890.0, 762.0)",0.4,0.556,1,10116.181,3,0.0,0.25
0,798,catch,"[(1155, 802)]",[],[1],[0.03333333333333333],vertical,"(890.0, 762.0)",1.7,"0.018,nan",0,10121.099,0,0.02,0.25
0,799,target,"[(1105, 790)]",[],[1],[0.5166666666666666],horizontal,"(890.0, 262.0)",0.5666666666666667,0.482,1,10125.983,1,0.02,0.25
0,800,target,"[(1156, 806)]",[],[1],[0.5],horizontal,"(390.0, 262.0)",0.9833333333333333,0.459,1,10130.515,1,0.02,0.25
0,801,target,"[(1136, 799)]",[],[1],[0.65],vertical,"(390.0, 762.0)",0.6333333333333333,0.606,1,10135.296,1,0.02,0.25
0,802,target,"[(1097, 837)]",[],[1],[0.25],horizontal,"(390.0, 762.0)",1.45,0.216,1,10139.733,2,0.02,0.25
0,803,catch,"[(1135, 802)]",[],[1],[],vertical,"(890.0, 262.0)",1.7,nan,1,10152.165,2,0.02,0.25
0,804,target,"[(1157, 785)]",[],[1],[0.55],horizontal,"(890.0, 762.0)",0.9,0.509,1,10157.932,2,0.02,0.25
0,805,target,"[(1159, 784)]",[],[1],[0.6],vertical,"(390.0, 762.0)",0.6833333333333333,0.554,1,10163.25,3,0.02,0.25
0,806,target,"[(1155, 790)]",[],[1],[0.5333333333333333],horizontal,"(890.0, 262.0)",0.4166666666666667,0.493,1,10168.766,3,0.02,0.25
0,807,target,"[(1159, 782)]",[],[1],[0.85],horizontal,"(890.0, 762.0)",0.5166666666666666,nan,0,10173.708,0,0.02,0.25
0,808,target,"[(1136, 790)]",[],[1],[0.5833333333333334],horizontal,"(390.0, 262.0)",0.8333333333333334,0.538,1,10178.311,1,0.02,0.25
0,809,target,"[(1164, 790)]",[],[1],[0.6666666666666666],vertical,"(390.0, 762.0)",0.9,0.633,1,10183.466,1,0.02,0.25
0,810,target,"[(1157, 764)]",[],[1],[0.5166666666666666],vertical,"(890.0, 262.0)",1.1833333333333333,0.476,1,10188.665,1,0.02,0.25
0,811,target,"[(1136, 781)]",[],[1],[0.55],vertical,"(890.0, 762.0)",0.95,0.505,1,10193.815,2,0.02,0.25
0,812,catch,"[(1165, 775)]",[],[1],[],vertical,"(390.0, 262.0)",1.7,nan,1,10199.315,2,0.02,0.25
0,813,target,"[(1136, 791)]",[],[1],[0.5166666666666666],vertical,"(390.0, 762.0)",0.55,0.475,1,10204.873,2,0.02,0.25
0,814,target,"[(1159, 782)]",[],[1],[0.6],vertical,"(890.0, 762.0)",0.85,0.56,1,10209.632,3,0.02,0.25
0,815,catch,"[(1136, 799)]",[],[1],[],vertical,"(890.0, 762.0)",1.7,nan,1,10215.807,3,0.02,0.25
0,816,catch,"[(1141, 794)]",[],[1],[],horizontal,"(390.0, 762.0)",1.7,nan,1,10222.033,3,0.02,0.25
0,817,target,"[(1159, 793)]",[],[1],[0.5166666666666666],horizontal,"(390.0, 262.0)",1.2333333333333334,0.474,1,10228.032,3,0.02,0.25
0,818,target,"[(1160, 796)]",[],[1],[0.85],vertical,"(390.0, 262.0)",0.36666666666666664,nan,0,10234.032,0,0.02,0.25
0,819,catch,"[(1108, 778)]","[(1071, 841)]",[1],[0.31666666666666665],vertical,"(890.0, 262.0)",,"('bar', 0.336),nan",0,10237.833,0,0.04,0.25
0,820,target,"[(1106, 826)]",[],[1],[0.85],horizontal,"(390.0, 762.0)",1.1166666666666667,nan,0,10240.6,0,0.04,0.25
0,821,catch,"[(1056, 891)]",[],[1],[],vertical,"(890.0, 262.0)",1.7,nan,1,11172.271,1,0.04,0.25
0,822,target,"[(1107, 817)]",[],[1],[0.48333333333333334],vertical,"(890.0, 262.0)",1.3833333333333333,"('fix', 0.672),0.443",1,11178.434,1,0.04,0.25
0,823,target,"[(1155, 832)]",[],[1],[0.85],vertical,"(890.0, 262.0)",0.5333333333333333,nan,0,11184.512,0,0.04,0.25
0,824,target,"[(1141, 804)]",[],[1],[0.5833333333333334],vertical,"(390.0, 762.0)",1.45,0.542,1,11189.393,1,0.04,0.25
0,825,catch,"[(1129, 795)]",[],[1],[],vertical,"(890.0, 262.0)",1.7,nan,1,11195.22,1,0.04,0.25
0,826,target,"[(1131, 836)]",[],[1],[0.5333333333333333],vertical,"(890.0, 262.0)",0.4166666666666667,0.498,1,11200.766,1,0.04,0.25
0,827,target,"[(1129, 782)]",[],[1],[0.5333333333333333],horizontal,"(890.0, 262.0)",1.0666666666666667,0.494,1,11205.786,2,0.04,0.25
0,828,target,"[(1151, 804)]",[],[1],[0.85],vertical,"(390.0, 762.0)",0.9666666666666667,nan,0,11211.272,0,0.04,0.25
0,829,target,"[(1130, 792)]",[],[1],[0.6],vertical,"(390.0, 762.0)",0.7,0.562,1,11215.953,1,0.04,0.25
0,830,target,"[(1132, 792)]",[],[1],[0.5833333333333334],vertical,"(890.0, 262.0)",0.95,0.548,1,11220.826,1,0.04,0.25
0,831,target,"[(1132, 792)]",[],[1],[0.5333333333333333],vertical,"(890.0, 262.0)",0.75,0.493,1,11226.054,1,0.04,0.25
0,832,target,"[(1153, 805)]",[],[1],[0.85],horizontal,"(390.0, 262.0)",0.36666666666666664,nan,0,11230.586,0,0.04,0.25
0,833,target,"[(1131, 809)]",[],[1],[0.85],horizontal,"(890.0, 262.0)",0.5333333333333333,nan,0,11235.004,0,0.04,0.25
0,834,catch,"[(1144, 812)]",[],[1],[],horizontal,"(890.0, 762.0)",1.7,nan,1,11239.487,1,0.04,0.25
0,835,target,"[(1136, 820)]",[],[1],[0.85],vertical,"(890.0, 762.0)",0.75,nan,0,11245.032,0,0.04,0.25
0,836,target,"[(1043, 831)]",[],[1],[0.6333333333333333],vertical,"(890.0, 262.0)",1.0166666666666666,0.582,1,11251.888,1,0.04,0.25
0,837,catch,"[(1131, 784)]",[],[1],[],vertical,"(890.0, 762.0)",1.7,nan,1,11259.406,1,0.04,0.25
0,838,target,"[(1158, 814)]",[],[1],[0.6166666666666667],horizontal,"(890.0, 262.0)",1.25,0.572,1,11265.015,1,0.04,0.25
0,839,target,"[(1153, 791)]",[],[1],[0.7833333333333333],horizontal,"(890.0, 762.0)",1.2333333333333334,0.739,1,11270.261,2,0.04,0.25
0,840,target,"[(1139, 812)]",[],[1],[0.7666666666666666],horizontal,"(890.0, 762.0)",1.4333333333333333,0.722,1,11276.254,2,0.04,0.25
0,841,catch,"[(1160, 787)]",[],[1],[],horizontal,"(890.0, 762.0)",1.7,nan,1,11282.133,2,0.04,0.25
0,842,catch,"[(1160, 778)]",[],[1],[],horizontal,"(890.0, 762.0)",1.7,nan,1,11287.403,3,0.04,0.25
0,843,target,"[(1160, 779)]",[],[1],[0.5166666666666666],horizontal,"(890.0, 762.0)",0.5,0.475,1,11293.703,3,0.04,0.25
0,844,catch,"[(1158, 793)]",[],[1],[],horizontal,"(890.0, 262.0)",1.7,nan,1,11299.107,3,0.04,0.25
0,845,target,"[(1144, 783)]",[],[1],[0.5833333333333334],horizontal,"(890.0, 762.0)",1.2166666666666666,0.542,1,11305.168,3,0.04,0.25
0,846,target,"[(1161, 777)]",[],[1],[0.4666666666666667],vertical,"(390.0, 762.0)",1.5333333333333332,0.427,1,11310.937,3,0.04,0.25
0,847,target,"[(1160, 790)]",[],[1],[0.5333333333333333],vertical,"(390.0, 262.0)",0.8,0.491,1,11317.079,3,0.04,0.25
0,848,catch,"[(1183, 791)]",[],[1],[],horizontal,"(390.0, 262.0)",1.7,nan,1,11322.33,3,0.02,0.25
0,849,target,"[(1160, 799)]",[],[1],[0.85],vertical,"(390.0, 762.0)",0.43333333333333335,nan,0,11328.504,0,0.02,0.25
0,850,target,"[(1143, 807)]",[],[1],[0.6333333333333333],horizontal,"(390.0, 762.0)",1.3833333333333333,0.595,1,11332.82,1,0.02,0.25
0,851,catch,"[(1131, 820)]",[],[1],[],horizontal,"(390.0, 262.0)",1.7,nan,1,11338.509,1,0.02,0.25
0,852,target,"[(1155, 794)]",[],[1],[0.6666666666666666],vertical,"(390.0, 762.0)",0.4666666666666667,0.633,1,11344.203,1,0.02,0.25
0,853,catch,"[(1157, 787)]",[],[1],[],vertical,"(390.0, 262.0)",1.7,nan,1,11348.921,2,0.02,0.25
0,854,catch,"[(1155, 785)]",[],[1],[0.03333333333333333],vertical,"(390.0, 262.0)",1.7,"0.02,nan",0,11354.22,0,0.04,0.25
0,855,target,"[(1143, 805)]",[],[1],[0.7],vertical,"(390.0, 262.0)",1.0833333333333333,0.656,1,11359.396,1,0.04,0.25
0,856,catch,"[(1146, 777)]",[],[1],[],horizontal,"(890.0, 262.0)",1.7,nan,1,11364.5,1,0.04,0.25
0,857,catch,"[(1157, 792)]",[],[1],[],horizontal,"(890.0, 762.0)",1.7,nan,1,11369.82,1,0.04,0.25
0,858,target,"[(1132, 796)]",[],[1],[0.8166666666666667],horizontal,"(890.0, 262.0)",1.0833333333333333,0.776,1,11375.205,2,0.04,0.25
0,859,target,"[(1131, 783)]",[],[1],[0.55],vertical,"(390.0, 262.0)",0.8,0.512,1,11381.305,2,0.04,0.25
0,860,target,"[(1137, 796)]",[],[1],[0.6],vertical,"(890.0, 262.0)",0.48333333333333334,0.554,1,11386.303,2,0.04,0.25
0,861,target,"[(1126, 779)]",[],[1],[0.5833333333333334],vertical,"(890.0, 762.0)",0.4666666666666667,0.542,1,11391.404,3,0.04,0.25
0,862,target,"[(1134, 790)]",[],[1],[0.65],vertical,"(390.0, 262.0)",0.4166666666666667,0.602,1,11397.237,3,0.04,0.25
0,863,catch,"[(1159, 794)]",[],[1],[],vertical,"(890.0, 262.0)",1.7,nan,1,11402.821,3,0.04,0.25
0,864,catch,"[(1158, 785)]",[],[1],[],vertical,"(890.0, 762.0)",1.7,nan,1,11408.704,3,0.04,0.25
0,865,target,"[(1158, 792)]",[],[1],[0.5666666666666667],vertical,"(390.0, 762.0)",0.9,0.53,1,11414.365,3,0.04,0.25
0,866,target,"[(1141, 782)]",[],[1],[0.55],horizontal,"(890.0, 262.0)",1.4666666666666666,0.514,1,11420.221,3,0.04,0.25
0,867,catch,"[(1162, 786)]",[],[1],[],vertical,"(890.0, 262.0)",1.7,nan,1,11426.471,3,0.04,0.25
0,868,target,"[(1157, 795)]",[],[1],[0.75],vertical,"(890.0, 762.0)",1.0666666666666667,0.708,1,11432.499,3,0.04,0.25
0,869,target,"[(1156, 778)]",[],[1],[0.7333333333333333],vertical,"(390.0, 262.0)",1.2666666666666666,0.691,1,11438.77,3,0.02,0.25
0,870,target,"[(1149, 785)]",[],[1],[0.5166666666666666],horizontal,"(390.0, 762.0)",0.6166666666666667,0.479,1,11444.855,3,0.02,0.25
0,871,target,"[(1160, 791)]",[],[1],[0.5666666666666667],vertical,"(890.0, 762.0)",1.4333333333333333,0.526,1,11450.303,3,0.02,0.25
0,872,target,"[(1135, 816)]",[],[1],[0.6],horizontal,"(890.0, 762.0)",1.4833333333333334,0.556,1,11456.404,3,0.02,0.25
0,873,target,"[(1144, 799)]",[],[1],[0.5666666666666667],vertical,"(390.0, 762.0)",1.5333333333333332,0.529,1,11462.549,3,0.02,0.25
0,874,target,"[(1158, 799)]",[],[1],[0.5333333333333333],vertical,"(390.0, 262.0)",0.85,0.493,1,11468.71,3,0.02,0.25
0,875,target,"[(1131, 799)]",[],[1],[0.55],horizontal,"(890.0, 262.0)",1.1,0.513,1,11474.587,3,0.02,0.25
0,876,target,"[(1134, 786)]",[],[1],[0.6],vertical,"(890.0, 262.0)",1.2166666666666666,0.56,1,11480.078,3,0.02,0.25
0,877,target,"[(1151, 799)]",[],[1],[0.5166666666666666],horizontal,"(890.0, 762.0)",0.6666666666666666,0.473,1,11486.415,3,0.02,0.25
