block,trial,trial_type,taps_start_loc_during_fix,taps_end_loc_during_fix,taps_on_lever_during_fix,taps_on_lever_s_during_fix,bar_orientation,target_xy,cti,rt,acc,time,pulses,fa_rate_recent100,actual_invalid_type
0,1,invalid_adjacent_other_bar,"[(1087, 804)]",[],[1],[0.08333333333333333],vertical,"(890.0, 262.0)",1.25,0.051,0,1.041,0,0.0,other
0,2,valid,"[(1125, 830)]",[],[1],[0.35],horizontal,"(390.0, 762.0)",1.2333333333333334,0.316,1,33.413,1,0.0,same
0,3,catch,"[(1130, 813)]",[],[1],[0.03333333333333333],horizontal,"(890.0, 762.0)",1.7,"0.018,nan",0,73.395,0,0.3333333333333333,same
0,4,invalid_same_bar,"[(1125, 803)]",[],[1],[0.6833333333333333],vertical,"(890.0, 762.0)",0.35,0.655,1,78.717,1,0.25,same
0,5,valid,"[(1162, 793)]",[],[1],[0.5],horizontal,"(890.0, 762.0)",0.7666666666666666,0.468,1,85.407,1,0.2,same
0,6,valid,"[(1160, 763)]",[],[1],[0.55],horizontal,"(390.0, 762.0)",0.9666666666666667,0.521,1,89.982,1,0.16666666666666666,same
0,7,valid,"[(1161, 761)]",[],[1],[0.55],horizontal,"(390.0, 262.0)",0.9666666666666667,0.519,1,95.413,2,0.14285714285714285,same
0,8,valid,"[(1160, 785)]",[],[1],[0.5],vertical,"(390.0, 762.0)",1.4333333333333333,0.471,1,101.043,2,0.125,same
0,9,catch,"[(1162, 771)]",[],[1],[],horizontal,"(390.0, 762.0)",1.7,nan,1,106.8,2,0.1111111111111111,same
0,10,catch,"[(1113, 819)]",[],[1],[],horizontal,"(390.0, 762.0)",,"('cti', 1.515),nan",0,112.705,0,0.2,same
0,11,valid,"[(1112, 804)]",[],[1],[0.5],horizontal,"(390.0, 262.0)",0.8166666666666667,0.468,1,119.671,1,0.18181818181818182,same
0,12,catch,"[(1165, 787)]",[],[1],[],vertical,"(890.0, 262.0)",1.7,nan,1,139.615,1,0.16666666666666666,same
0,13,valid,"[(1174, 792)]",[],[1],[0.5],horizontal,"(390.0, 762.0)",1.45,0.46,1,145.103,1,0.15384615384615385,same
0,14,valid,"[(1177, 788)]",[],[1],[0.5333333333333333],horizontal,"(390.0, 262.0)",0.8166666666666667,0.487,1,150.83,2,0.14285714285714285,same
0,15,valid,"[(1180, 783)]",[],[1],[0.85],vertical,"(390.0, 762.0)",0.8,nan,0,155.805,0,0.13333333333333333,same
0,16,valid,"[(1140, 789)]",[],[1],[0.4666666666666667],vertical,"(890.0, 762.0)",0.55,0.429,1,159.966,1,0.125,same
0,17,valid,"[(1166, 767)]",[],[1],[0.5333333333333333],vertical,"(390.0, 762.0)",0.65,0.492,1,164.646,1,0.11764705882352941,same
0,18,catch,"[(1169, 794)]",[],[1],[],horizontal,"(390.0, 762.0)",1.7,nan,1,169.555,1,0.1111111111111111,same
0,19,catch,"[(1180, 796)]",[],[1],[],vertical,"(390.0, 762.0)",1.7,nan,1,174.503,2,0.10526315789473684,same
0,20,catch,"[(1163, 769)]",[],[1],[],horizontal,"(390.0, 762.0)",1.7,nan,1,180.321,2,0.1,same
0,21,invalid_adjacent_other_bar,"[(1181, 787)]",[],[1],[0.55],vertical,"(390.0, 262.0)",1.2,0.508,1,186.105,2,0.09523809523809523,other
0,22,valid,"[(1178, 787)]",[],[1],[0.6],horizontal,"(390.0, 262.0)",1.1333333333333333,0.555,1,191.656,3,0.09090909090909091,same
0,23,valid,"[(1178, 784)]",[],[1],[0.85],horizontal,"(390.0, 762.0)",0.8,nan,0,197.727,0,0.08695652173913043,same
0,24,catch,"[(1135, 793)]",[],[1],[],horizontal,"(390.0, 262.0)",,"('cti', 1.013),nan",0,202.424,0,0.125,same
0,25,valid,"[(1107, 818)]",[],[1],[0.5666666666666667],vertical,"(890.0, 762.0)",0.43333333333333335,0.534,1,206.668,1,0.12,same
0,26,catch,"[(1159, 771)]",[],[1],[],horizontal,"(890.0, 262.0)",1.7,nan,1,439.073,1,0.11538461538461539,same
0,27,valid,"[(1166, 767)]",[],[1],[0.85],horizontal,"(890.0, 762.0)",0.9,nan,0,444.155,0,0.1111111111111111,same
0,28,valid,"[(1150, 761)]",[],[1],[0.5166666666666666],vertical,"(890.0, 762.0)",1.0833333333333333,0.479,1,448.856,1,0.10714285714285714,same
0,29,catch,"[(1195, 792)]",[],[1],[],horizontal,"(890.0, 762.0)",,"('cti', 1.085),nan",0,453.972,0,0.13793103448275862,same
0,30,valid,"[(1156, 796)]",[],[1],[0.85],horizontal,"(390.0, 762.0)",1.0666666666666667,nan,0,457.706,0,0.13333333333333333,same
0,31,valid,"[(1155, 770)]",[],[1],[0.85],horizontal,"(390.0, 762.0)",0.6333333333333333,nan,0,462.481,0,0.12903225806451613,same
0,32,valid,"[(1155, 795)]",[],[1],[0.6666666666666666],horizontal,"(390.0, 262.0)",0.6166666666666667,0.627,1,467.222,1,0.125,same
0,33,valid,"[(1183, 785)]","[(1169, 879)]",[1],[0.43333333333333335],vertical,"(390.0, 262.0)",,"('bar', 0.444)",0,472.873,0,0.12121212121212122,same
0,34,valid,"[(1131, 791)]",[],[1],[0.4666666666666667],horizontal,"(390.0, 762.0)",0.65,0.428,1,475.491,1,0.11764705882352941,same
0,35,catch,"[(1161, 789)]",[],[1],[],vertical,"(890.0, 262.0)",1.7,nan,1,480.531,1,0.11428571428571428,same
0,36,valid,"[(1178, 786)]",[],[1],[0.5333333333333333],horizontal,"(890.0, 762.0)",1.25,0.492,1,485.547,1,0.1111111111111111,same
0,37,invalid_adjacent_other_bar,"[(1180, 783)]",[],[1],[0.6333333333333333],vertical,"(890.0, 262.0)",1.0833333333333333,0.59,1,490.717,2,0.10810810810810811,other
0,38,invalid_same_bar,"[(1185, 773)]",[],[1],[0.55],vertical,"(890.0, 762.0)",0.7833333333333333,0.516,1,496.439,2,0.10526315789473684,same
0,39,valid,"[(1175, 791)]",[],[1],[0.48333333333333334],vertical,"(890.0, 762.0)",0.48333333333333334,0.439,1,501.591,2,0.10256410256410256,same
0,40,valid,"[(1160, 803)]",[],[1],[0.48333333333333334],horizontal,"(390.0, 762.0)",0.6,0.447,1,506.405,3,0.1,same
0,41,catch,"[(1130, 821)]",[],[1],[],horizontal,"(390.0, 762.0)",1.7,nan,1,512.421,3,0.0975609756097561,same
0,42,catch,"[(1168, 772)]",[],[1],[],vertical,"(890.0, 262.0)",1.7,nan,1,518.906,3,0.09523809523809523,same
0,43,valid,"[(1179, 791)]",[],[1],[0.5833333333333334],horizontal,"(390.0, 262.0)",0.6833333333333333,0.537,1,524.755,3,0.09302325581395349,same
0,44,catch,"[(1180, 786)]",[],[1],[],horizontal,"(890.0, 762.0)",,"('cti', 1.209),nan",0,530.322,0,0.11363636363636363,same
0,45,valid,"[(1141, 768)]",[],[1],[0.5],vertical,"(390.0, 762.0)",0.9166666666666666,0.452,1,534.689,1,0.1111111111111111,same
0,46,valid,"[(1160, 767)]",[],[1],[0.45],horizontal,"(890.0, 262.0)",0.8166666666666667,0.414,1,539.89,1,0.10869565217391304,same
0,47,valid,"[(1180, 792)]",[],[1],[0.6666666666666666],horizontal,"(890.0, 262.0)",0.4,0.622,1,544.63,1,0.10638297872340426,same
0,48,valid,"[(1180, 777)]",[],[1],[0.5166666666666666],horizontal,"(390.0, 762.0)",0.3833333333333333,0.474,1,548.856,2,0.10416666666666667,same
0,49,catch,"[(1160, 776)]",[],[1],[],vertical,"(390.0, 762.0)",1.7,nan,1,553.59,2,0.10204081632653061,same
0,50,valid,"[(1164, 779)]",[],[1],[0.55],horizontal,"(390.0, 762.0)",0.8166666666666667,0.506,1,559.508,2,0.1,same
0,51,valid,"[(1162, 775)]",[],[1],[],horizontal,"(890.0, 762.0)",,"('cti', 1.458)",0,564.402,0,0.1,same
0,52,catch,"[(1136, 782)]",[],[1],[],horizontal,"(890.0, 262.0)",1.7,nan,1,569.445,1,0.1,same
0,53,valid,"[(1180, 778)]",[],[1],[0.5],vertical,"(390.0, 262.0)",0.4,0.458,1,574.405,1,0.08,same
0,54,valid,"[(1163, 781)]",[],[1],[0.48333333333333334],vertical,"(390.0, 262.0)",0.7333333333333333,0.441,1,578.922,1,0.08,same
0,55,valid,"[(1177, 774)]",[],[1],[0.5666666666666667],vertical,"(890.0, 262.0)",1.25,0.515,1,583.241,2,0.08,same
0,56,catch,"[(1174, 775)]","[(1096, 852)]",[1],[0.5833333333333334],horizontal,"(390.0, 762.0)",,"('bar', 0.589),nan",0,588.887,0,0.1,same
0,57,valid,"[(1139, 791)]",[],[1],[0.5333333333333333],vertical,"(890.0, 262.0)",1.2166666666666666,0.484,1,591.589,1,0.1,same
0,58,valid,"[(1175, 774)]",[],[1],[0.5166666666666666],vertical,"(890.0, 262.0)",0.6166666666666667,0.473,1,596.641,1,0.1,same
0,59,valid,"[(1178, 770)]",[],[1],[0.85],vertical,"(890.0, 762.0)",1.1,nan,0,601.746,0,0.1,same
0,60,invalid_adjacent_other_bar,"[(1144, 778)]",[],[1],[0.4],vertical,"(890.0, 762.0)",1.5,0.362,1,606.352,1,0.08,other
0,61,catch,"[(1175, 792)]",[],[1],[],vertical,"(890.0, 762.0)",1.7,nan,1,611.538,1,0.08,same
0,62,valid,"[(1168, 787)]",[],[1],[0.5333333333333333],horizontal,"(390.0, 262.0)",0.7666666666666666,0.487,1,616.555,1,0.08,same
0,63,catch,"[(1178, 783)]",[],[1],[],vertical,"(890.0, 262.0)",1.7,nan,1,621.234,2,0.08,same
0,64,invalid_adjacent_other_bar,"[(1165, 786)]",[],[1],[0.6],vertical,"(890.0, 262.0)",1.4333333333333333,0.555,1,626.98,2,0.08,other
0,65,invalid_same_bar,"[(1175, 787)]",[],[1],[0.26666666666666666],horizontal,"(390.0, 762.0)",1.1666666666666667,0.23,1,633.071,2,0.08,same
0,66,catch,"[(1175, 778)]",[],[1],[],vertical,"(390.0, 762.0)",1.7,nan,1,638.622,3,0.08,same
0,67,valid,"[(1170, 774)]",[],[1],[0.5333333333333333],horizontal,"(890.0, 762.0)",0.9333333333333333,0.49,1,644.902,3,0.08,same
0,68,valid,"[(1151, 823)]",[],[1],[0.5666666666666667],horizontal,"(390.0, 762.0)",1.5,0.527,1,651.022,3,0.08,same
0,69,valid,"[(1160, 777)]",[],[1],[0.5666666666666667],horizontal,"(890.0, 762.0)",1.25,0.53,1,657.63,3,0.08,same
0,70,valid,"[(1171, 786)]",[],[1],[0.5],horizontal,"(390.0, 762.0)",0.75,0.465,1,663.668,3,0.08,same
0,71,valid,"[(1169, 773)]",[],[1],[0.5666666666666667],vertical,"(890.0, 762.0)",1.45,0.529,1,669.206,3,0.08,same
0,72,catch,"[(1176, 778)]",[],[1],[],horizontal,"(890.0, 262.0)",1.7,nan,1,675.539,3,0.08,same
0,73,valid,"[(1168, 763)]",[],[1],[0.5666666666666667],vertical,"(390.0, 762.0)",1.4166666666666667,0.526,1,681.406,3,0.08,same
0,74,valid,"[(1175, 779)]",[],[1],[0.5],vertical,"(390.0, 262.0)",0.4666666666666667,0.463,1,687.666,3,0.06,same
0,75,invalid_same_bar,"[(1175, 769)]",[],[1],[0.6166666666666667],vertical,"(890.0, 762.0)",1.15,0.582,1,692.799,3,0.06,same
0,76,catch,"[(1175, 783)]",[],[1],[],vertical,"(890.0, 262.0)",1.7,nan,1,698.691,3,0.06,same
0,77,valid,"[(1165, 788)]",[],[1],[0.5],horizontal,"(390.0, 762.0)",1.4333333333333333,0.462,1,704.338,3,0.06,same
0,78,catch,"[(1140, 807)]",[],[1],[],horizontal,"(890.0, 262.0)",1.7,nan,1,710.99,3,0.06,same
0,79,valid,"[(1165, 796)]",[],[1],[0.5833333333333334],horizontal,"(890.0, 262.0)",1.1166666666666667,0.548,1,717.21,3,0.04,same
0,80,valid,"[(1163, 776)]",[],[1],[0.6],horizontal,"(390.0, 762.0)",0.95,0.554,1,722.973,3,0.04,same
0,81,valid,"[(1179, 781)]","[(1170, 852)]",[1],[0.6],vertical,"(890.0, 762.0)",,"('bar', 0.612)",0,729.007,0,0.04,same
0,82,catch,"[(1137, 778)]",[],[1],[],horizontal,"(890.0, 762.0)",1.7,nan,1,731.621,1,0.04,same
0,83,valid,"[(1187, 783)]",[],[1],[0.5666666666666667],horizontal,"(890.0, 762.0)",0.9833333333333333,0.525,1,737.146,1,0.04,same
0,84,valid,"[(1163, 767)]",[],[1],[0.5166666666666666],vertical,"(890.0, 762.0)",1.15,0.478,1,742.48,1,0.04,same
0,85,invalid_adjacent_other_bar,"[(1180, 775)]",[],[1],[0.6666666666666666],vertical,"(390.0, 762.0)",1.4166666666666667,0.621,1,747.289,2,0.04,other
0,86,catch,"[(1178, 783)]",[],[1],[],horizontal,"(390.0, 262.0)",1.7,nan,1,753.431,2,0.04,same
0,87,invalid_adjacent_other_bar,"[(1172, 793)]",[],[1],[0.4666666666666667],vertical,"(890.0, 262.0)",1.0166666666666666,0.433,1,759.179,2,0.04,other
0,88,catch,"[(1172, 790)]",[],[1],[],horizontal,"(890.0, 262.0)",1.7,nan,1,764.936,3,0.04,same
0,89,valid,"[(1156, 799)]",[],[1],[0.5333333333333333],horizontal,"(890.0, 762.0)",0.5166666666666666,0.492,1,771.639,3,0.04,same
0,90,valid,"[(1165, 781)]",[],[1],[0.5333333333333333],vertical,"(390.0, 762.0)",1.4666666666666666,0.493,1,776.987,3,0.04,same
0,91,valid,"[(1170, 795)]",[],[1],[0.5333333333333333],vertical,"(390.0, 762.0)",1.3833333333333333,0.496,1,783.171,3,0.04,same
0,92,invalid_adjacent_other_bar,"[(1175, 778)]",[],[1],[0.5833333333333334],vertical,"(390.0, 762.0)",0.8666666666666667,0.543,1,789.239,3,0.04,other
0,93,valid,"[(1170, 764)]",[],[1],[0.5],vertical,"(390.0, 762.0)",0.9,0.466,1,795.074,3,0.04,same
0,94,valid,"[(1165, 774)]",[],[1],[0.48333333333333334],horizontal,"(390.0, 762.0)",1.0,0.446,1,800.457,3,0.02,same
0,95,valid,"[(1170, 778)]",[],[1],[0.5666666666666667],horizontal,"(890.0, 762.0)",1.1166666666666667,0.524,1,806.485,3,0.02,same
0,96,valid,"[(1163, 796)]",[],[1],[0.6166666666666667],horizontal,"(390.0, 762.0)",0.8,0.581,1,812.708,3,0.02,same
0,97,valid,"[(1165, 767)]",[],[1],[0.5],horizontal,"(390.0, 262.0)",0.6666666666666666,0.462,1,818.106,3,0.02,same
0,98,catch,"[(1178, 771)]",[],[1],[],horizontal,"(390.0, 262.0)",1.7,nan,1,823.609,3,0.02,same
0,99,valid,"[(1170, 782)]",[],[1],[0.5333333333333333],horizontal,"(890.0, 262.0)",1.4666666666666666,0.491,1,829.703,3,0.02,same
0,100,valid,"[(1175, 793)]",[],[1],[0.6333333333333333],horizontal,"(390.0, 262.0)",0.5833333333333334,0.592,1,835.872,3,0.02,same
0,101,valid,"[(1180, 768)]",[],[1],[0.48333333333333334],vertical,"(390.0, 262.0)",1.1333333333333333,0.448,1,841.388,3,0.02,same
0,102,valid,"[(1172, 781)]",[],[1],[0.5166666666666666],horizontal,"(390.0, 262.0)",0.95,0.479,1,847.257,3,0.02,same
0,103,valid,"[(1174, 769)]",[],[1],[0.48333333333333334],horizontal,"(890.0, 762.0)",1.3666666666666667,0.443,1,852.935,3,0.02,same
0,104,valid,"[(1180, 770)]",[],[1],[0.4666666666666667],vertical,"(390.0, 762.0)",1.4,0.428,1,858.941,3,0.02,same
0,105,valid,"[(1175, 788)]",[],[1],[0.55],vertical,"(390.0, 262.0)",1.2166666666666666,0.515,1,865.394,3,0.02,same
0,106,valid,"[(1165, 769)]",[],[1],[0.5166666666666666],horizontal,"(390.0, 262.0)",1.0333333333333332,0.475,1,871.622,3,0.0,same
0,107,valid,"[(1132, 797)]",[],[1],[0.5166666666666666],vertical,"(390.0, 262.0)",1.0666666666666667,0.478,1,877.532,3,0.0,same
0,108,valid,"[(1176, 773)]",[],[1],[0.4166666666666667],horizontal,"(890.0, 262.0)",1.2166666666666666,0.373,1,883.698,3,0.0,same
0,109,catch,"[(1165, 782)]",[],[1],[],vertical,"(890.0, 762.0)",1.7,nan,1,889.824,3,0.0,same
0,110,catch,"[(1175, 782)]",[],[1],[],vertical,"(390.0, 762.0)",1.7,nan,1,895.79,3,0.0,same
0,111,catch,"[(1137, 799)]",[],[1],[],vertical,"(890.0, 262.0)",1.7,nan,1,902.255,3,0.0,same
0,112,valid,"[(1165, 773)]",[],[1],[0.6666666666666666],vertical,"(890.0, 762.0)",0.6166666666666667,0.63,1,908.221,3,0.0,same
0,113,valid,"[(1172, 778)]",[],[1],[0.4166666666666667],vertical,"(890.0, 262.0)",1.2333333333333334,0.379,1,913.578,3,0.0,same
0,114,valid,"[(1161, 774)]",[],[1],[0.3833333333333333],horizontal,"(390.0, 762.0)",1.2833333333333332,0.346,1,919.469,3,0.0,same
0,115,catch,"[(1167, 780)]",[],[1],[],vertical,"(390.0, 762.0)",1.7,nan,1,925.859,3,0.0,same
0,116,valid,"[(1176, 802)]",[],[1],[0.5],horizontal,"(890.0, 262.0)",1.0,0.458,1,931.958,3,0.0,same
0,117,valid,"[(1160, 779)]",[],[1],[0.5833333333333334],vertical,"(390.0, 762.0)",0.5833333333333334,0.543,1,937.973,3,0.0,same
0,118,catch,"[(1169, 774)]",[],[1],[],horizontal,"(390.0, 262.0)",1.7,nan,1,943.305,3,0.0,same
0,119,valid,"[(1170, 763)]",[],[1],[0.5833333333333334],vertical,"(390.0, 762.0)",1.15,0.546,1,949.073,3,0.0,same
0,120,valid,"[(1163, 760)]",[],[1],[0.65],vertical,"(890.0, 762.0)",1.1333333333333333,0.612,1,955.407,3,0.0,same
0,121,valid,"[(1172, 773)]",[],[1],[0.5666666666666667],horizontal,"(390.0, 262.0)",1.2333333333333334,0.526,1,961.789,3,0.0,same
0,122,valid,"[(1171, 778)]",[],[1],[0.75],horizontal,"(890.0, 762.0)",0.9166666666666666,0.696,1,967.806,3,0.0,same
0,123,valid,"[(1172, 785)]",[],[1],[0.85],horizontal,"(390.0, 762.0)",0.5166666666666666,nan,0,973.755,0,0.0,same
0,124,invalid_same_bar,"[(1165, 778)]",[],[1],[0.5166666666666666],horizontal,"(390.0, 762.0)",0.6333333333333333,0.471,1,978.157,1,0.0,same
0,125,valid,"[(1177, 767)]",[],[1],[0.85],vertical,"(390.0, 762.0)",0.5666666666666667,nan,0,982.833,0,0.0,same
0,126,catch,"[(1165, 784)]",[],[1],[],vertical,"(390.0, 262.0)",1.7,nan,1,987.373,1,0.0,same
0,127,valid,"[(1165, 809)]",[],[1],[0.5333333333333333],vertical,"(890.0, 762.0)",1.45,0.49,1,992.59,1,0.0,same
0,128,valid,"[(1178, 786)]",[],[1],[0.5],vertical,"(890.0, 262.0)",0.36666666666666664,0.458,1,998.224,1,0.0,same
0,129,valid,"[(1170, 773)]",[],[1],[0.5833333333333334],horizontal,"(890.0, 762.0)",0.36666666666666664,0.539,1,1002.777,2,0.0,same
0,130,invalid_same_bar,"[(1144, 818)]",[],[1],[0.48333333333333334],horizontal,"(390.0, 262.0)",1.4666666666666666,0.439,1,1008.033,2,0.0,same
0,131,valid,"[(1156, 776)]",[],[1],[0.5333333333333333],horizontal,"(390.0, 762.0)",1.4166666666666667,0.49,1,1013.957,2,0.0,same
0,132,catch,"[(1165, 782)]",[],[1],[],vertical,"(390.0, 762.0)",1.7,nan,1,1019.722,3,0.0,same
0,133,valid,"[(1160, 785)]",[],[1],[0.85],horizontal,"(390.0, 762.0)",0.35,nan,0,1025.68,0,0.0,same
0,134,valid,"[(1137, 778)]",[],[1],[0.75],horizontal,"(890.0, 762.0)",0.9833333333333333,0.708,1,1029.839,1,0.0,same
0,135,catch,"[(1165, 779)]",[],[1],[],vertical,"(890.0, 762.0)",1.7,nan,1,1035.173,1,0.0,same
0,136,invalid_same_bar,"[(1170, 778)]",[],[1],[0.5166666666666666],vertical,"(890.0, 762.0)",1.15,0.474,1,1040.423,1,0.0,same
0,137,valid,"[(1173, 778)]",[],[1],[0.5],vertical,"(890.0, 262.0)",0.4666666666666667,0.46,1,1045.795,2,0.0,same
0,138,valid,"[(1175, 777)]",[],[1],[0.5666666666666667],horizontal,"(390.0, 262.0)",0.6166666666666667,0.52,1,1050.623,2,0.0,same
0,139,valid,"[(1175, 782)]",[],[1],[0.85],vertical,"(890.0, 762.0)",0.9166666666666666,nan,0,1055.663,0,0.0,same
0,140,valid,"[(1165, 783)]",[],[1],[0.5166666666666666],vertical,"(890.0, 262.0)",1.45,0.472,1,1060.807,1,0.0,same
0,141,valid,"[(1172, 767)]",[],[1],[0.5333333333333333],vertical,"(390.0, 262.0)",1.2833333333333332,0.485,1,1066.173,1,0.0,same
0,142,valid,"[(1167, 778)]",[],[1],[0.65],horizontal,"(890.0, 762.0)",0.5666666666666667,0.603,1,1071.132,1,0.0,same
0,143,valid,"[(1165, 815)]",[],[1],[0.5166666666666666],vertical,"(890.0, 762.0)",0.6833333333333333,0.473,1,1075.676,2,0.0,same
0,144,valid,"[(1178, 787)]",[],[1],[0.6333333333333333],horizontal,"(390.0, 262.0)",1.4333333333333333,0.591,1,1081.414,2,0.0,same
0,145,valid,"[(1179, 767)]",[],[1],[0.65],vertical,"(390.0, 762.0)",0.6,0.613,1,1086.873,2,0.0,same
0,146,valid,"[(1164, 772)]",[],[1],[0.5666666666666667],vertical,"(390.0, 762.0)",0.5166666666666666,0.524,1,1092.597,3,0.0,same
0,147,valid,"[(1176, 785)]",[],[1],[0.55],vertical,"(390.0, 762.0)",1.0833333333333333,0.509,1,1097.907,3,0.0,same
0,148,catch,"[(1175, 789)]",[],[1],[],vertical,"(390.0, 762.0)",1.7,nan,1,1103.504,3,0.0,same
0,149,valid,"[(1162, 782)]",[],[1],[0.7166666666666667],vertical,"(890.0, 262.0)",0.8666666666666667,0.665,1,1109.535,3,0.0,same
0,150,catch,"[(1139, 794)]",[],[1],[],horizontal,"(390.0, 762.0)",1.7,nan,1,1115.62,3,0.0,same
0,151,catch,"[(1178, 770)]",[],[1],[],horizontal,"(890.0, 762.0)",1.7,nan,1,1121.308,3,0.0,same
0,152,valid,"[(1178, 780)]",[],[1],[0.6666666666666666],horizontal,"(890.0, 762.0)",0.55,0.618,1,1127.573,3,0.0,same
0,153,valid,"[(1174, 789)]",[],[1],[0.6333333333333333],horizontal,"(890.0, 762.0)",1.0166666666666666,0.593,1,1133.19,3,0.0,same
0,154,catch,"[(1182, 778)]",[],[1],[],vertical,"(390.0, 262.0)",1.7,nan,1,1139.189,3,0.0,same
0,155,valid,"[(1175, 787)]",[],[1],[0.55],horizontal,"(390.0, 762.0)",1.0,0.511,1,1145.2,3,0.0,same
0,156,valid,"[(1169, 787)]",[],[1],[0.6],horizontal,"(890.0, 762.0)",1.2166666666666666,0.56,1,1151.356,3,0.0,same
0,157,invalid_adjacent_other_bar,"[(1160, 782)]",[],[1],[0.85],horizontal,"(890.0, 262.0)",0.5166666666666666,nan,0,1157.49,0,0.0,other
0,158,valid,"[(1162, 787)]",[],[1],[0.7],horizontal,"(890.0, 262.0)",0.4166666666666667,0.657,1,1161.907,1,0.0,same
0,159,valid,"[(1165, 789)]",[],[1],[0.45],vertical,"(890.0, 262.0)",1.4333333333333333,0.413,1,1166.721,1,0.0,same
0,160,valid,"[(1165, 777)]",[],[1],[0.5166666666666666],vertical,"(890.0, 262.0)",0.9166666666666666,0.475,1,1172.006,1,0.0,same
0,161,invalid_same_bar,"[(1164, 760)]",[],[1],[0.5833333333333334],horizontal,"(890.0, 262.0)",0.7166666666666667,0.546,1,1177.002,2,0.0,same
0,162,valid,"[(1163, 817)]",[],[1],[0.6666666666666666],horizontal,"(390.0, 762.0)",1.0333333333333332,0.624,1,1182.274,2,0.0,same
0,163,valid,"[(1160, 760)]",[],[1],[0.6833333333333333],vertical,"(390.0, 762.0)",1.0666666666666667,0.638,1,1188.189,2,0.0,same
0,164,valid,"[(1121, 803)]",[],[1],[0.5333333333333333],vertical,"(890.0, 262.0)",1.0666666666666667,0.487,1,1193.874,3,0.0,same
0,165,valid,"[(1125, 789)]",[],[1],[0.55],vertical,"(890.0, 262.0)",1.55,0.511,1,1200.523,3,0.0,same
0,166,valid,"[(1143, 798)]",[],[1],[0.5666666666666667],vertical,"(390.0, 762.0)",1.4166666666666667,0.53,1,1206.894,3,0.0,same
0,167,invalid_adjacent_other_bar,"[(1167, 770)]",[],[1],[0.4666666666666667],horizontal,"(890.0, 262.0)",0.7333333333333333,0.425,1,1213.347,3,0.0,other
0,168,catch,"[(1166, 775)]",[],[1],[],horizontal,"(890.0, 762.0)",1.7,nan,1,1218.806,3,0.0,same
0,169,valid,"[(1165, 794)]",[],[1],[0.4166666666666667],vertical,"(390.0, 762.0)",1.3166666666666667,0.378,1,1224.69,3,0.0,same
0,170,catch,"[(1138, 787)]",[],[1],[],horizontal,"(390.0, 762.0)",1.7,nan,1,1230.971,3,0.0,same
0,171,valid,"[(1179, 787)]",[],[1],[0.48333333333333334],vertical,"(390.0, 262.0)",0.7833333333333333,0.459,1,1236.791,3,0.0,same
0,172,valid,"[(1172, 790)]",[],[1],[0.45],horizontal,"(890.0, 262.0)",0.9,0.413,1,1242.606,3,0.0,same
0,173,valid,"[(1177, 773)]",[],[1],[0.6833333333333333],horizontal,"(890.0, 262.0)",0.95,0.64,1,1248.007,3,0.0,same
0,174,valid,"[(1164, 773)]",[],[1],[0.55],horizontal,"(390.0, 262.0)",1.2166666666666666,0.512,1,1254.089,3,0.0,same
0,175,invalid_same_bar,"[(1160, 786)]",[],[1],[0.5],horizontal,"(390.0, 762.0)",1.1,0.459,1,1260.306,3,0.0,same
0,176,valid,"[(1178, 785)]",[],[1],[0.5833333333333334],horizontal,"(890.0, 762.0)",0.6333333333333333,0.543,1,1266.383,3,0.0,same
0,177,valid,"[(1165, 771)]",[],[1],[0.48333333333333334],vertical,"(890.0, 262.0)",1.5333333333333332,0.44,1,1271.973,3,0.0,same
0,178,valid,"[(1175, 798)]",[],[1],[0.5166666666666666],horizontal,"(390.0, 262.0)",0.35,0.477,1,1277.71,3,0.0,same
0,179,invalid_same_bar,"[(1136, 789)]",[],[1],[0.5166666666666666],vertical,"(390.0, 762.0)",0.7333333333333333,0.474,1,1283.125,3,0.0,same
0,180,invalid_adjacent_other_bar,"[(1178, 792)]",[],[1],[0.6666666666666666],vertical,"(890.0, 262.0)",1.0666666666666667,0.626,1,1288.906,3,0.0,other
0,181,valid,"[(1175, 785)]",[],[1],[0.5333333333333333],vertical,"(390.0, 762.0)",0.8833333333333333,0.492,1,1294.908,3,0.0,same
0,182,valid,"[(1175, 786)]",[],[1],[0.48333333333333334],vertical,"(390.0, 762.0)",0.5666666666666667,0.445,1,1300.756,3,0.0,same
0,183,invalid_adjacent_other_bar,"[(1125, 802)]",[],[1],[0.5],vertical,"(890.0, 262.0)",0.8833333333333333,0.459,1,1306.524,3,0.0,other
0,184,valid,"[(1158, 783)]",[],[1],[0.6],vertical,"(390.0, 762.0)",0.7166666666666667,0.557,1,1312.94,3,0.0,same
0,185,valid,"[(1170, 789)]",[],[1],[0.5],horizontal,"(390.0, 762.0)",0.5333333333333333,0.466,1,1318.755,3,0.0,same
0,186,invalid_adjacent_other_bar,"[(1173, 777)]",[],[1],[0.5],horizontal,"(390.0, 762.0)",1.1666666666666667,0.462,1,1323.907,3,0.0,other
0,187,valid,"[(1175, 792)]",[],[1],[0.6333333333333333],vertical,"(390.0, 762.0)",1.25,0.596,1,1329.641,3,0.0,same
0,188,valid,"[(1162, 768)]",[],[1],[0.5166666666666666],horizontal,"(390.0, 762.0)",0.43333333333333335,0.474,1,1335.702,3,0.0,same
0,189,valid,"[(1165, 791)]",[],[1],[0.4666666666666667],vertical,"(890.0, 762.0)",0.8333333333333334,0.429,1,1340.774,3,0.0,same
0,190,catch,"[(1179, 795)]",[],[1],[],vertical,"(890.0, 762.0)",1.7,nan,1,1346.568,3,0.0,same
0,191,invalid_same_bar,"[(1125, 806)]",[],[1],[0.6],vertical,"(890.0, 762.0)",0.7166666666666667,0.559,1,1353.091,3,0.0,same
0,192,valid,"[(1179, 777)]",[],[1],[0.55],horizontal,"(890.0, 762.0)",1.45,0.508,1,1359.802,3,0.0,same
0,193,catch,"[(1172, 767)]",[],[1],[],horizontal,"(890.0, 762.0)",1.7,nan,1,1366.31,3,0.0,same
0,194,catch,"[(1163, 773)]",[],[1],[],vertical,"(390.0, 262.0)",1.7,nan,1,1371.908,3,0.0,same
0,195,valid,"[(1177, 774)]",[],[1],[0.43333333333333335],vertical,"(890.0, 262.0)",0.85,0.397,1,1377.94,3,0.0,same
0,196,valid,"[(1164, 782)]",[],[1],[0.6],horizontal,"(390.0, 262.0)",0.7666666666666666,0.558,1,1383.879,3,0.0,same
0,197,valid,"[(1157, 779)]",[],[1],[0.5],horizontal,"(890.0, 762.0)",0.9333333333333333,0.462,1,1389.949,3,0.0,same
0,198,valid,"[(1203, 773)]",[],[1],[0.5166666666666666],vertical,"(390.0, 762.0)",1.3833333333333333,0.482,1,1395.408,3,0.0,same
0,199,invalid_same_bar,"[(1178, 774)]",[],[1],[0.65],vertical,"(390.0, 762.0)",0.8666666666666667,0.606,1,1401.39,3,0.0,same
0,200,valid,"[(1178, 788)]",[],[1],[0.6833333333333333],horizontal,"(890.0, 762.0)",0.48333333333333334,0.637,1,1407.226,3,0.0,same
0,201,valid,"[(1185, 775)]",[],[1],[0.5],horizontal,"(390.0, 762.0)",1.1166666666666667,0.462,1,1412.317,3,0.0,same
0,202,catch,"[(1175, 783)]",[],[1],[],horizontal,"(390.0, 762.0)",,"('fix', 0.284),nan",0,1418.222,0,0.02,same
0,203,invalid_same_bar,"[(1138, 801)]",[],[1],[0.5666666666666667],horizontal,"(890.0, 762.0)",1.0333333333333332,0.522,1,1419.888,1,0.02,same
0,204,valid,"[(1176, 783)]",[],[1],[0.3833333333333333],horizontal,"(390.0, 762.0)",1.35,0.345,1,1424.84,1,0.02,same
0,205,valid,"[(1178, 782)]",[],[1],[0.45],horizontal,"(390.0, 762.0)",0.8666666666666667,0.411,1,1430.37,1,0.02,same
0,206,valid,"[(1164, 775)]",[],[1],[0.5666666666666667],vertical,"(890.0, 262.0)",1.0666666666666667,0.524,1,1435.379,2,0.02,same
0,207,valid,"[(1176, 765)]",[],[1],[0.5],horizontal,"(890.0, 262.0)",0.5333333333333333,0.455,1,1440.839,2,0.02,same
0,208,valid,"[(1179, 769)]",[],[1],[0.43333333333333335],horizontal,"(390.0, 262.0)",1.05,0.394,1,1446.048,2,0.02,same
0,209,valid,"[(1104, 846)]",[],[1],[0.6833333333333333],horizontal,"(390.0, 262.0)",1.0666666666666667,0.637,1,1451.457,3,0.02,same
0,210,valid,"[(1123, 804)]",[],[1],[0.5333333333333333],horizontal,"(390.0, 762.0)",0.5666666666666667,0.494,1,2540.988,3,0.02,same
0,211,valid,"[(1146, 805)]",[],[1],[0.5333333333333333],vertical,"(890.0, 262.0)",0.7833333333333333,0.493,1,2546.558,3,0.02,same
0,212,valid,"[(1169, 787)]",[],[1],[0.5666666666666667],horizontal,"(890.0, 762.0)",0.8833333333333333,0.528,1,2552.438,3,0.02,same
0,213,valid,"[(1166, 779)]",[],[1],[0.6166666666666667],vertical,"(390.0, 262.0)",0.6333333333333333,0.579,1,2558.309,3,0.02,same
0,214,valid,"[(1117, 816)]",[],[1],[0.85],vertical,"(390.0, 762.0)",0.4166666666666667,nan,0,2564.081,0,0.02,same
0,215,invalid_same_bar,"[(1136, 777)]",[],[1],[0.5666666666666667],horizontal,"(390.0, 762.0)",1.3333333333333333,0.522,1,2568.358,1,0.02,same
0,216,catch,"[(1090, 816)]",[],[1],[],vertical,"(890.0, 762.0)",1.7,nan,1,2573.647,1,0.02,same
0,217,catch,"[(1141, 775)]",[],[1],[],vertical,"(890.0, 262.0)",1.7,nan,1,2603.69,1,0.02,same
0,218,valid,"[(1161, 780)]",[],[1],[0.7166666666666667],horizontal,"(390.0, 262.0)",0.8333333333333334,0.672,1,2609.127,2,0.02,same
0,219,valid,"[(1178, 790)]",[],[1],[0.5166666666666666],vertical,"(890.0, 762.0)",0.75,0.476,1,2614.422,2,0.02,same
0,220,valid,"[(1065, 888)]",[],[1],[],vertical,"(390.0, 262.0)",,"('fix', 0.05)",0,2619.49,0,0.02,same
0,221,invalid_same_bar,"[(1114, 803)]",[],[1],[0.6],horizontal,"(390.0, 762.0)",1.2666666666666666,0.563,1,2621.158,1,0.02,same
0,222,valid,"[(1135, 779)]",[],[1],[0.6166666666666667],horizontal,"(890.0, 762.0)",1.2333333333333334,0.573,1,2665.81,1,0.02,same
0,223,catch,"[(1159, 786)]",[],[1],[],vertical,"(890.0, 762.0)",1.7,nan,1,2671.059,1,0.02,same
0,224,valid,"[(1178, 800)]",[],[1],[0.85],vertical,"(890.0, 762.0)",0.7333333333333333,nan,0,2676.575,0,0.02,same
0,225,invalid_same_bar,"[(1115, 780)]",[],[1],[0.55],vertical,"(890.0, 262.0)",1.3666666666666667,0.507,1,2681.444,1,0.02,same
0,226,valid,"[(1165, 777)]",[],[1],[],horizontal,"(390.0, 762.0)",,"('fix', 0.15)",0,2688.143,0,0.02,same
0,227,catch,"[(1129, 807)]",[],[1],[],horizontal,"(890.0, 762.0)",,"('fix', 0.539),nan",0,2689.99,0,0.04,same
0,228,valid,"[(1109, 825)]",[],[1],[0.65],horizontal,"(890.0, 762.0)",0.5666666666666667,0.612,1,2693.193,1,0.04,same
0,229,valid,"[(1160, 787)]",[],[1],[0.43333333333333335],horizontal,"(390.0, 262.0)",1.5333333333333332,0.401,1,2703.109,1,0.04,same
0,230,valid,"[(1165, 786)]",[],[1],[0.75],horizontal,"(390.0, 762.0)",0.7666666666666666,0.709,1,2708.71,1,0.04,same
0,231,invalid_same_bar,"[(1162, 780)]",[],[1],[0.75],vertical,"(890.0, 762.0)",1.25,0.709,1,2713.459,2,0.04,same
0,232,valid,"[(1140, 790)]",[],[1],[0.85],vertical,"(890.0, 262.0)",0.45,nan,0,2719.359,0,0.04,same
0,233,invalid_same_bar,"[(1118, 785)]",[],[1],[0.45],horizontal,"(890.0, 262.0)",1.4666666666666666,0.412,1,2724.01,1,0.04,same
0,234,valid,"[(1157, 787)]",[],[1],[0.6166666666666667],vertical,"(390.0, 262.0)",0.9833333333333333,0.574,1,2729.451,1,0.04,same
0,235,valid,"[(1172, 776)]",[],[1],[0.85],horizontal,"(390.0, 762.0)",0.43333333333333335,nan,0,2734.45,0,0.04,same
0,236,valid,"[(1132, 802)]",[],[1],[0.6666666666666666],vertical,"(390.0, 262.0)",1.3666666666666667,0.631,1,2738.724,1,0.04,same
0,237,catch,"[(1169, 792)]",[],[1],[],horizontal,"(890.0, 762.0)",,"('cti', 1.293),nan",0,2745.11,0,0.06,same
0,238,catch,"[(1167, 766)]",[],[1],[],horizontal,"(890.0, 762.0)",,"('cti', 1.653),nan",0,2749.398,0,0.08,same
0,239,valid,"[(1086, 807)]",[],[1],[0.4],vertical,"(890.0, 262.0)",0.9666666666666667,0.359,1,2754.167,1,0.08,same
0,240,invalid_same_bar,"[(1165, 782)]",[],[1],[0.6833333333333333],horizontal,"(390.0, 262.0)",1.3333333333333333,0.636,1,2760.124,1,0.08,same
0,241,invalid_same_bar,"[(1180, 785)]",[],[1],[0.05],horizontal,"(390.0, 762.0)",1.4833333333333334,0.02,0,2765.808,0,0.08,same
0,242,valid,"[(1137, 769)]",[],[1],[0.6333333333333333],horizontal,"(890.0, 262.0)",0.6333333333333333,0.595,1,2770.827,1,0.08,same
0,243,valid,"[(1167, 792)]",[],[1],[0.6],vertical,"(890.0, 262.0)",0.85,0.557,1,2776.192,1,0.08,same
0,244,catch,"[(1162, 784)]",[],[1],[],vertical,"(390.0, 262.0)",1.7,nan,1,2781.443,1,0.08,same
0,245,catch,"[(1175, 780)]",[],[1],[],horizontal,"(890.0, 762.0)",1.7,nan,1,2787.027,2,0.08,same
0,246,invalid_adjacent_other_bar,"[(1175, 765)]",[],[1],[0.85],vertical,"(390.0, 762.0)",0.6333333333333333,nan,0,2792.437,0,0.08,other
0,247,invalid_same_bar,"[(1135, 797)]",[],[1],[0.5166666666666666],vertical,"(890.0, 262.0)",0.9666666666666667,0.491,1,2796.882,1,0.08,same
0,248,invalid_adjacent_other_bar,"[(1163, 764)]",[],[1],[0.65],horizontal,"(890.0, 262.0)",0.7666666666666666,0.604,1,2801.686,1,0.08,other
0,249,valid,"[(1194, 780)]",[],[1],[0.7],vertical,"(390.0, 762.0)",1.4333333333333333,0.653,1,2806.584,1,0.08,same
0,250,catch,"[(1160, 773)]",[],[1],[],horizontal,"(890.0, 762.0)",1.7,nan,1,2811.972,2,0.08,same
0,251,valid,"[(1165, 792)]",[],[1],[0.6666666666666666],horizontal,"(390.0, 262.0)",0.6166666666666667,0.622,1,2817.26,2,0.08,same
0,252,catch,"[(1179, 791)]",[],[1],[],horizontal,"(390.0, 762.0)",1.7,nan,1,2822.645,2,0.06,same
0,253,valid,"[(1180, 791)]",[],[1],[0.4166666666666667],horizontal,"(890.0, 262.0)",1.5166666666666666,0.378,1,2828.076,3,0.06,same
0,254,catch,"[(1160, 765)]",[],[1],[],horizontal,"(890.0, 762.0)",1.7,nan,1,2834.429,3,0.06,same
0,255,valid,"[(1184, 792)]",[],[1],[0.5166666666666666],horizontal,"(890.0, 262.0)",1.1,0.474,1,2840.043,3,0.06,same
0,256,valid,"[(1161, 789)]",[],[1],[0.55],vertical,"(890.0, 762.0)",0.9833333333333333,0.505,1,2846.308,3,0.06,same
0,257,catch,"[(1173, 771)]",[],[1],[],horizontal,"(890.0, 762.0)",1.7,nan,1,2852.075,3,0.06,same
0,258,valid,"[(1160, 786)]",[],[1],[0.5333333333333333],vertical,"(890.0, 262.0)",1.2666666666666666,0.493,1,2858.112,3,0.06,same
0,259,valid,"[(1135, 802)]",[],[1],[0.5166666666666666],vertical,"(890.0, 262.0)",0.8333333333333334,0.475,1,2864.484,3,0.06,same
0,260,valid,"[(1175, 782)]",[],[1],[0.6333333333333333],vertical,"(890.0, 262.0)",0.45,0.584,1,2870.319,3,0.06,same
0,261,valid,"[(1163, 793)]",[],[1],[0.85],horizontal,"(890.0, 262.0)",0.65,nan,0,2875.892,0,0.06,same
0,262,valid,"[(1153, 787)]",[],[1],[0.6666666666666666],vertical,"(390.0, 262.0)",1.3,0.62,1,2880.575,1,0.06,same
0,263,valid,"[(1175, 778)]",[],[1],[0.6833333333333333],horizontal,"(390.0, 262.0)",0.4,0.631,1,2886.566,1,0.06,same
0,264,valid,"[(1179, 777)]",[],[1],[0.5333333333333333],horizontal,"(890.0, 762.0)",0.9,0.493,1,2891.305,1,0.06,same
0,265,catch,"[(1167, 771)]",[],[1],[],vertical,"(890.0, 262.0)",1.7,nan,1,2896.203,2,0.06,same
0,266,valid,"[(1179, 778)]",[],[1],[],horizontal,"(390.0, 262.0)",,"('fix', 0.2)",0,2901.893,0,0.06,same
0,267,valid,"[(1140, 810)]",[],[1],[0.6166666666666667],vertical,"(890.0, 262.0)",0.48333333333333334,0.576,1,2903.425,1,0.06,same
0,268,invalid_adjacent_other_bar,"[(1167, 791)]",[],[1],[0.4166666666666667],vertical,"(390.0, 262.0)",1.15,0.376,1,2908.409,1,0.06,other
0,269,valid,"[(1179, 789)]",[],[1],[0.5666666666666667],horizontal,"(390.0, 762.0)",0.7166666666666667,0.531,1,2913.709,1,0.06,same
0,270,valid,"[(1175, 774)]",[],[1],[0.4166666666666667],horizontal,"(390.0, 262.0)",1.0833333333333333,0.378,1,2918.692,2,0.06,same
0,271,catch,"[(1166, 782)]",[],[1],[],vertical,"(890.0, 262.0)",1.7,nan,1,2924.504,2,0.06,same
0,272,valid,"[(1180, 795)]",[],[1],[0.6666666666666666],vertical,"(390.0, 762.0)",1.0666666666666667,0.628,1,2929.925,2,0.06,same
0,273,catch,"[(1168, 782)]",[],[1],[],horizontal,"(390.0, 762.0)",1.7,nan,1,2935.984,3,0.06,same
0,274,valid,"[(1175, 778)]",[],[1],[0.65],horizontal,"(390.0, 262.0)",1.3666666666666667,0.608,1,2942.192,3,0.06,same
0,275,invalid_adjacent_other_bar,"[(1204, 786)]",[],[1],[],horizontal,"(390.0, 262.0)",,"('fix', 0.2)",0,2948.759,0,0.06,other
0,276,valid,"[(1135, 802)]",[],[1],[0.7833333333333333],horizontal,"(390.0, 762.0)",0.9833333333333333,0.742,1,2950.289,1,0.06,same
0,277,valid,"[(1171, 784)]",[],[1],[0.6333333333333333],horizontal,"(890.0, 262.0)",0.8166666666666667,0.588,1,2955.244,1,0.04,same
0,278,catch,"[(1178, 778)]",[],[1],[],horizontal,"(890.0, 262.0)",,"('cti', 1.473),nan",0,2960.26,0,0.06,same
0,279,valid,"[(1137, 806)]",[],[1],[0.6333333333333333],horizontal,"(390.0, 762.0)",0.45,0.591,1,2965.293,1,0.06,same
0,280,valid,"[(1161, 779)]",[],[1],[0.85],vertical,"(890.0, 762.0)",1.1833333333333333,nan,0,2970.685,0,0.06,same
0,281,catch,"[(1096, 816)]",[],[1],[],vertical,"(390.0, 262.0)",1.7,nan,1,2975.608,1,0.06,same
0,282,valid,"[(1150, 782)]",[],[1],[0.5833333333333334],horizontal,"(890.0, 262.0)",1.4166666666666667,0.54,1,2981.275,1,0.06,same
0,283,valid,"[(1175, 764)]",[],[1],[0.5333333333333333],horizontal,"(890.0, 762.0)",0.7166666666666667,0.493,1,2986.443,1,0.06,same
0,284,valid,"[(1179, 765)]",[],[1],[0.5333333333333333],vertical,"(390.0, 762.0)",0.4666666666666667,0.495,1,2991.275,2,0.06,same
0,285,catch,"[(1175, 795)]",[],[1],[],vertical,"(890.0, 262.0)",1.7,nan,1,2995.893,2,0.06,same
0,286,catch,"[(1175, 795)]",[],[1],[],vertical,"(890.0, 762.0)",1.7,nan,1,3001.443,2,0.06,same
0,287,valid,"[(1180, 786)]",[],[1],[0.55],vertical,"(390.0, 262.0)",0.85,0.514,1,3007.121,3,0.04,same
0,288,valid,"[(1175, 786)]",[],[1],[0.6166666666666667],vertical,"(390.0, 262.0)",0.75,0.578,1,3012.987,3,0.02,same
0,289,valid,"[(1165, 779)]",[],[1],[0.5666666666666667],vertical,"(890.0, 762.0)",0.43333333333333335,0.527,1,3018.291,3,0.02,same
0,290,catch,"[(1175, 778)]",[],[1],[],horizontal,"(390.0, 762.0)",1.7,nan,1,3023.476,3,0.02,same
0,291,invalid_same_bar,"[(1160, 772)]",[],[1],[0.5833333333333334],vertical,"(390.0, 262.0)",0.5166666666666666,0.543,1,3029.598,3,0.02,same
0,292,invalid_adjacent_other_bar,"[(1178, 782)]",[],[1],[0.6],vertical,"(890.0, 762.0)",1.1833333333333333,0.556,1,3035.376,3,0.02,other
0,293,valid,"[(1166, 786)]",[],[1],[0.5833333333333334],vertical,"(890.0, 262.0)",1.3333333333333333,0.542,1,3041.877,3,0.02,same
0,294,valid,"[(1155, 798)]",[],[1],[0.6666666666666666],vertical,"(390.0, 262.0)",0.7666666666666666,0.63,1,3048.604,3,0.02,same
0,295,valid,"[(1160, 800)]",[],[1],[0.5833333333333334],vertical,"(890.0, 262.0)",0.6666666666666666,0.54,1,3054.327,3,0.02,same
0,296,valid,"[(1170, 775)]",[],[1],[0.55],horizontal,"(390.0, 762.0)",0.7333333333333333,0.513,1,3060.026,3,0.02,same
0,297,invalid_same_bar,"[(1159, 791)]",[],[1],[0.65],vertical,"(390.0, 262.0)",0.7833333333333333,0.613,1,3066.335,3,0.02,same
0,298,valid,"[(1160, 784)]",[],[1],[0.85],horizontal,"(390.0, 262.0)",0.36666666666666664,nan,0,3071.821,0,0.02,same
0,299,valid,"[(1125, 781)]",[],[1],[0.3833333333333333],horizontal,"(390.0, 262.0)",1.45,0.346,1,3075.851,1,0.02,same
0,300,catch,"[(1159, 765)]",[],[1],[],vertical,"(390.0, 762.0)",1.7,nan,1,3081.544,1,0.02,same
0,301,valid,"[(1178, 774)]",[],[1],[0.5666666666666667],vertical,"(390.0, 262.0)",1.3666666666666667,0.526,1,3086.58,1,0.02,same
0,302,valid,"[(1139, 767)]",[],[1],[0.5166666666666666],horizontal,"(890.0, 262.0)",0.75,0.473,1,3092.16,2,0.02,same
0,303,valid,"[(1175, 782)]",[],[1],[0.5166666666666666],vertical,"(390.0, 762.0)",0.8333333333333334,0.48,1,3097.469,2,0.02,same
0,304,valid,"[(1179, 773)]",[],[1],[0.85],vertical,"(890.0, 762.0)",0.5,nan,0,3102.839,0,0.02,same
0,305,valid,"[(1140, 773)]",[],[1],[0.5166666666666666],vertical,"(890.0, 762.0)",1.0666666666666667,0.482,1,3107.327,1,0.02,same
0,306,valid,"[(1180, 762)]",[],[1],[0.85],horizontal,"(890.0, 762.0)",0.9833333333333333,nan,0,3112.609,0,0.02,same
0,307,valid,"[(1116, 816)]",[],[1],[0.55],vertical,"(390.0, 262.0)",1.5166666666666666,0.509,1,3117.285,1,0.02,same
0,308,valid,"[(1165, 765)]",[],[1],[0.6333333333333333],horizontal,"(390.0, 262.0)",0.95,0.598,1,3123.889,1,0.02,same
0,309,invalid_adjacent_other_bar,"[(1165, 776)]",[],[1],[0.5666666666666667],horizontal,"(890.0, 762.0)",1.05,0.529,1,3129.267,1,0.02,other
0,310,invalid_adjacent_other_bar,"[(1138, 789)]",[],[1],[0.6333333333333333],vertical,"(890.0, 262.0)",1.3666666666666667,0.593,1,3134.611,2,0.02,other
0,311,invalid_adjacent_other_bar,"[(1165, 789)]",[],[1],[0.7166666666666667],vertical,"(890.0, 262.0)",0.5666666666666667,0.678,1,3140.677,2,0.02,other
0,312,invalid_adjacent_other_bar,"[(1180, 797)]",[],[1],[0.85],horizontal,"(890.0, 762.0)",1.0166666666666666,nan,0,3145.837,0,0.02,other
0,313,valid,"[(1162, 788)]",[],[1],[0.65],horizontal,"(390.0, 262.0)",1.1833333333333333,0.607,1,3150.611,1,0.02,same
0,314,valid,"[(1165, 778)]",[],[1],[0.5],vertical,"(890.0, 262.0)",0.9166666666666666,0.464,1,3155.667,1,0.02,same
0,315,valid,"[(1170, 761)]",[],[1],[0.5333333333333333],vertical,"(390.0, 762.0)",1.4,0.497,1,3160.604,1,0.02,same
0,316,catch,"[(1165, 787)]",[],[1],[],vertical,"(390.0, 762.0)",1.7,nan,1,3165.969,2,0.02,same
0,317,valid,"[(1165, 782)]",[],[1],[0.5],vertical,"(890.0, 762.0)",0.7666666666666666,0.463,1,3171.417,2,0.02,same
0,318,valid,"[(1175, 781)]",[],[1],[0.8],vertical,"(390.0, 762.0)",0.4,0.757,1,3176.427,2,0.02,same
0,319,valid,"[(1167, 765)]",[],[1],[0.65],vertical,"(390.0, 762.0)",0.6833333333333333,0.615,1,3181.921,3,0.02,same
0,320,catch,"[(1158, 789)]",[],[1],[],vertical,"(890.0, 262.0)",1.7,nan,1,3188.283,3,0.02,same
0,321,valid,"[(1160, 772)]",[],[1],[0.65],horizontal,"(390.0, 262.0)",1.0666666666666667,0.603,1,3193.994,3,0.02,same
0,322,valid,"[(1155, 779)]",[],[1],[0.65],horizontal,"(390.0, 762.0)",0.85,0.606,1,3200.406,3,0.02,same
0,323,invalid_same_bar,"[(1164, 773)]",[],[1],[0.5833333333333334],vertical,"(890.0, 262.0)",0.65,0.539,1,3206.017,3,0.02,same
0,324,valid,"[(1170, 792)]",[],[1],[0.6333333333333333],vertical,"(390.0, 762.0)",1.2,0.585,1,3211.701,3,0.02,same
0,325,valid,"[(1175, 773)]",[],[1],[0.7666666666666666],vertical,"(890.0, 262.0)",0.35,0.723,1,3217.711,3,0.02,same
0,326,valid,"[(1163, 766)]",[],[1],[0.5666666666666667],horizontal,"(390.0, 762.0)",1.4166666666666667,0.523,1,3223.061,3,0.02,same
0,327,valid,"[(1166, 771)]",[],[1],[0.55],horizontal,"(890.0, 762.0)",0.45,0.506,1,3229.026,3,0.02,same
0,328,valid,"[(1178, 761)]",[],[1],[0.85],horizontal,"(390.0, 762.0)",0.4166666666666667,nan,0,3234.177,0,0.0,same
0,329,invalid_same_bar,"[(1136, 777)]",[],[1],[0.55],vertical,"(390.0, 762.0)",1.05,0.511,1,3238.159,1,0.0,same
0,330,valid,"[(1170, 776)]",[],[1],[0.85],vertical,"(390.0, 762.0)",1.0333333333333332,nan,0,3243.643,0,0.0,same
0,331,valid,"[(1166, 784)]",[],[1],[0.5333333333333333],vertical,"(890.0, 262.0)",1.1,0.49,1,3248.372,1,0.0,same
0,332,valid,"[(1165, 773)]",[],[1],[0.5166666666666666],horizontal,"(390.0, 262.0)",1.1,0.476,1,3253.477,1,0.0,same
0,333,invalid_same_bar,"[(1177, 778)]",[],[1],[0.6333333333333333],vertical,"(390.0, 262.0)",1.2833333333333332,0.589,1,3258.143,1,0.0,same
0,334,valid,"[(1165, 775)]",[],[1],[0.5333333333333333],vertical,"(390.0, 262.0)",0.8,0.49,1,3263.444,2,0.0,same
0,335,valid,"[(1176, 778)]",[],[1],[0.5333333333333333],horizontal,"(390.0, 762.0)",1.4,0.494,1,3269.01,2,0.0,same
0,336,valid,"[(1185, 776)]",[],[1],[0.5333333333333333],horizontal,"(390.0, 262.0)",0.9666666666666667,0.493,1,3275.27,2,0.0,same
0,337,valid,"[(1179, 774)]",[],[1],[0.6166666666666667],vertical,"(390.0, 262.0)",0.7666666666666666,0.573,1,3280.761,3,0.0,same
0,338,invalid_same_bar,"[(1176, 769)]",[],[1],[0.6333333333333333],horizontal,"(890.0, 762.0)",0.9,0.586,1,3286.676,3,0.0,same
0,339,catch,"[(1177, 768)]",[],[1],[],horizontal,"(890.0, 262.0)",1.7,nan,1,3292.037,3,0.0,same
0,340,valid,"[(1165, 773)]",[],[1],[0.65],horizontal,"(890.0, 762.0)",1.2333333333333334,0.607,1,3298.076,3,0.0,same
0,341,catch,"[(1162, 778)]",[],[1],[],horizontal,"(390.0, 762.0)",1.7,nan,1,3303.91,3,0.0,same
0,342,catch,"[(1173, 777)]",[],[1],[],vertical,"(890.0, 262.0)",1.7,nan,1,3310.226,3,0.0,same
0,343,valid,"[(1160, 774)]",[],[1],[0.5833333333333334],vertical,"(390.0, 262.0)",1.1833333333333333,0.539,1,3316.108,3,0.0,same
0,344,valid,"[(1172, 768)]",[],[1],[0.7666666666666666],horizontal,"(890.0, 262.0)",0.8333333333333334,0.722,1,3321.885,3,0.0,same
0,345,invalid_same_bar,"[(1165, 769)]",[],[1],[0.6666666666666666],horizontal,"(390.0, 762.0)",0.3833333333333333,0.625,1,3327.598,3,0.0,same
0,346,valid,"[(1168, 777)]",[],[1],[0.85],vertical,"(390.0, 762.0)",0.45,nan,0,3332.797,0,0.0,same
0,347,catch,"[(1140, 778)]",[],[1],[],vertical,"(890.0, 262.0)",1.7,nan,1,3337.044,1,0.0,same
0,348,catch,"[(1181, 765)]",[],[1],[],horizontal,"(890.0, 262.0)",1.7,nan,1,3342.676,1,0.0,same
0,349,invalid_same_bar,"[(1172, 771)]",[],[1],[0.5166666666666666],vertical,"(890.0, 262.0)",0.9833333333333333,0.479,1,3347.547,1,0.0,same
0,350,valid,"[(1171, 781)]",[],[1],[0.6333333333333333],horizontal,"(390.0, 762.0)",1.35,0.587,1,3352.802,2,0.0,same
0,351,valid,"[(1162, 778)]",[],[1],[0.55],vertical,"(390.0, 762.0)",0.8666666666666667,0.512,1,3358.636,2,0.0,same
0,352,valid,"[(1176, 768)]",[],[1],[0.5],horizontal,"(890.0, 262.0)",1.3333333333333333,0.461,1,3364.189,2,0.0,same
0,353,valid,"[(1180, 778)]",[],[1],[0.5666666666666667],horizontal,"(390.0, 762.0)",0.8833333333333333,0.528,1,3369.894,3,0.0,same
0,354,valid,"[(1160, 772)]",[],[1],[],horizontal,"(390.0, 262.0)",,"('fix', 0.18)",0,3375.876,0,0.0,same
0,355,valid,"[(1140, 778)]",[],[1],[0.5],horizontal,"(390.0, 762.0)",1.3333333333333333,0.461,1,3377.393,1,0.0,same
0,356,valid,"[(1165, 770)]",[],[1],[0.7333333333333333],horizontal,"(390.0, 262.0)",1.0,0.691,1,3382.81,1,0.0,same
0,357,valid,"[(1177, 769)]",[],[1],[0.5666666666666667],vertical,"(890.0, 262.0)",0.75,0.523,1,3388.243,1,0.0,same
0,358,invalid_same_bar,"[(1175, 778)]",[],[1],[0.6833333333333333],vertical,"(390.0, 762.0)",1.2166666666666666,0.636,1,3392.91,2,0.0,same
0,359,valid,"[(1161, 772)]",[],[1],[0.55],horizontal,"(890.0, 262.0)",1.2666666666666666,0.511,1,3398.943,2,0.0,same
0,360,catch,"[(1169, 792)]",[],[1],[],vertical,"(890.0, 262.0)",1.7,nan,1,3404.361,2,0.0,same
0,361,valid,"[(1184, 781)]",[],[1],[0.5],horizontal,"(390.0, 762.0)",0.9166666666666666,0.461,1,3410.118,3,0.0,same
0,362,valid,"[(1170, 786)]",[],[1],[0.65],horizontal,"(390.0, 762.0)",0.6166666666666667,0.606,1,3416.426,3,0.0,same
0,363,catch,"[(1180, 784)]",[],[1],[],vertical,"(390.0, 762.0)",,"('fix', 0.099),nan",0,3422.343,0,0.02,same
0,364,invalid_same_bar,"[(1118, 805)]",[],[1],[0.85],horizontal,"(890.0, 762.0)",0.4666666666666667,nan,0,3424.092,0,0.02,same
0,365,valid,"[(1116, 792)]",[],[1],[0.5333333333333333],vertical,"(390.0, 262.0)",1.3666666666666667,0.493,1,3428.96,1,0.02,same
0,366,valid,"[(1166, 778)]",[],[1],[0.5666666666666667],vertical,"(890.0, 262.0)",1.25,0.527,1,3434.545,1,0.02,same
0,367,valid,"[(1161, 791)]",[],[1],[0.85],horizontal,"(890.0, 762.0)",0.5166666666666666,nan,0,3439.507,0,0.02,same
0,368,invalid_same_bar,"[(1164, 778)]",[],[1],[0.5833333333333334],horizontal,"(890.0, 262.0)",1.5,0.549,1,3443.76,1,0.02,same
0,369,valid,"[(1165, 778)]",[],[1],[0.5],horizontal,"(890.0, 262.0)",1.1166666666666667,0.463,1,3448.962,1,0.02,same
0,370,invalid_same_bar,"[(1143, 766)]",[],[1],[0.6],horizontal,"(390.0, 262.0)",0.36666666666666664,0.567,1,3454.426,1,0.02,same
0,371,catch,"[(1170, 777)]",[],[1],[],horizontal,"(390.0, 762.0)",1.7,nan,1,3459.108,2,0.02,same
0,372,catch,"[(1160, 781)]",[],[1],[],vertical,"(390.0, 762.0)",1.7,nan,1,3465.01,2,0.02,same
0,373,catch,"[(1174, 797)]",[],[1],[],horizontal,"(390.0, 762.0)",1.7,nan,1,3470.899,2,0.02,same
0,374,valid,"[(1158, 781)]",[],[1],[0.5333333333333333],vertical,"(390.0, 762.0)",1.5,0.495,1,3477.093,3,0.02,same
0,375,valid,"[(1165, 775)]",[],[1],[0.5166666666666666],vertical,"(890.0, 262.0)",0.3833333333333333,0.475,1,3483.579,3,0.02,same
0,376,catch,"[(1140, 772)]",[],[1],[],horizontal,"(890.0, 262.0)",1.7,nan,1,3488.961,3,0.02,same
0,377,catch,"[(1162, 779)]",[],[1],[],vertical,"(890.0, 762.0)",1.7,nan,1,3495.238,3,0.02,same
0,378,catch,"[(1161, 791)]",[],[1],[],vertical,"(390.0, 262.0)",1.7,nan,1,3501.136,3,0.02,same
0,379,catch,"[(1135, 802)]",[],[1],[],vertical,"(390.0, 262.0)",1.7,nan,1,3507.694,3,0.02,same
0,380,valid,"[(1161, 771)]",[],[1],[0.55],vertical,"(890.0, 762.0)",1.1833333333333333,0.512,1,3514.009,3,0.02,same
0,381,valid,"[(1161, 784)]",[],[1],[0.7166666666666667],horizontal,"(390.0, 762.0)",1.3666666666666667,0.676,1,3519.975,3,0.02,same
0,382,invalid_same_bar,"[(1157, 792)]",[],[1],[0.5333333333333333],horizontal,"(890.0, 262.0)",1.1,0.499,1,3526.261,3,0.02,same
0,383,valid,"[(1180, 787)]",[],[1],[0.5666666666666667],horizontal,"(390.0, 762.0)",1.2166666666666666,0.527,1,3532.182,3,0.02,same
0,384,valid,"[(1155, 768)]",[],[1],[0.55],horizontal,"(390.0, 262.0)",0.9,0.51,1,3538.109,3,0.02,same
0,385,valid,"[(1168, 774)]",[],[1],[0.5333333333333333],horizontal,"(890.0, 262.0)",1.2,0.498,1,3544.153,3,0.02,same
0,386,catch,"[(1161, 773)]",[],[1],[],vertical,"(890.0, 762.0)",1.7,nan,1,3550.176,3,0.02,same
0,387,valid,"[(1165, 773)]",[],[1],[0.7166666666666667],horizontal,"(390.0, 262.0)",1.3333333333333333,0.675,1,3556.343,3,0.02,same
0,388,catch,"[(1160, 795)]",[],[1],[],horizontal,"(890.0, 262.0)",1.7,nan,1,3562.705,3,0.02,same
0,389,invalid_adjacent_other_bar,"[(1168, 787)]",[],[1],[0.7166666666666667],horizontal,"(390.0, 762.0)",1.0666666666666667,0.679,1,3568.764,3,0.02,other
0,390,valid,"[(1163, 781)]",[],[1],[0.5666666666666667],horizontal,"(890.0, 262.0)",1.3166666666666667,0.523,1,3574.891,3,0.02,same
0,391,valid,"[(1172, 786)]",[],[1],[0.6],vertical,"(390.0, 762.0)",0.65,0.561,1,3581.127,3,0.02,same
0,392,valid,"[(1150, 782)]",[],[1],[0.5666666666666667],vertical,"(890.0, 762.0)",0.6,0.53,1,3586.713,3,0.02,same
0,393,valid,"[(1137, 805)]",[],[1],[0.7666666666666666],vertical,"(390.0, 262.0)",0.9166666666666666,0.728,1,3592.532,3,0.02,same
0,394,valid,"[(1136, 778)]",[],[1],[0.5666666666666667],horizontal,"(890.0, 762.0)",0.3833333333333333,0.528,1,3598.693,3,0.02,same
0,395,valid,"[(1165, 783)]",[],[1],[0.5166666666666666],horizontal,"(390.0, 262.0)",0.43333333333333335,0.484,1,3603.745,3,0.02,same
0,396,invalid_same_bar,"[(1140, 790)]",[],[1],[0.5166666666666666],horizontal,"(890.0, 262.0)",0.6166666666666667,0.477,1,3609.144,3,0.02,same
0,397,catch,"[(1161, 782)]",[],[1],[],vertical,"(890.0, 262.0)",1.7,nan,1,3614.277,3,0.02,same
0,398,valid,"[(1138, 764)]",[],[1],[0.5333333333333333],vertical,"(890.0, 262.0)",0.9666666666666667,0.493,1,3619.928,3,0.02,same
0,399,valid,"[(1160, 794)]",[],[1],[0.5666666666666667],horizontal,"(890.0, 262.0)",1.0166666666666666,0.534,1,3625.925,3,0.02,same
0,400,catch,"[(1165, 782)]",[],[1],[],vertical,"(390.0, 762.0)",1.7,nan,1,3631.745,3,0.02,same
0,401,catch,"[(1158, 787)]",[],[1],[],vertical,"(890.0, 262.0)",1.7,nan,1,3637.461,3,0.02,same
0,402,invalid_same_bar,"[(1143, 785)]",[],[1],[0.6333333333333333],horizontal,"(390.0, 762.0)",0.7333333333333333,0.592,1,3643.727,3,0.02,same
0,403,valid,"[(1159, 790)]",[],[1],[],vertical,"(390.0, 262.0)",,"('fix', 0.202)",0,3650.129,0,0.02,same
0,404,valid,"[(1148, 802)]",[],[1],[0.6833333333333333],horizontal,"(890.0, 262.0)",0.43333333333333335,0.64,1,3651.698,1,0.02,same
0,405,invalid_adjacent_other_bar,"[(1142, 768)]",[],[1],[0.85],vertical,"(390.0, 262.0)",0.5666666666666667,nan,0,3656.528,0,0.02,other
0,406,invalid_adjacent_other_bar,"[(1135, 778)]",[],[1],[0.6166666666666667],horizontal,"(890.0, 762.0)",0.8333333333333334,0.578,1,3661.114,1,0.02,other
0,407,valid,"[(1116, 795)]",[],[1],[0.5666666666666667],horizontal,"(390.0, 762.0)",0.9333333333333333,0.528,1,3665.914,1,0.02,same
0,408,valid,"[(1146, 771)]",[],[1],[0.7833333333333333],horizontal,"(390.0, 762.0)",0.36666666666666664,0.746,1,3670.675,1,0.02,same
0,409,valid,"[(1143, 782)]",[],[1],[0.6],vertical,"(390.0, 262.0)",1.0833333333333333,0.561,1,3675.461,2,0.02,same
0,410,valid,"[(1155, 790)]",[],[1],[0.5833333333333334],horizontal,"(890.0, 762.0)",1.5333333333333332,0.541,1,3681.233,2,0.02,same
0,411,valid,"[(1178, 781)]",[],[1],[0.5333333333333333],vertical,"(390.0, 762.0)",0.4,0.488,1,3687.295,2,0.02,same
0,412,invalid_same_bar,"[(1160, 766)]",[],[1],[0.6],vertical,"(890.0, 262.0)",1.5,0.557,1,3691.975,3,0.02,same
0,413,valid,"[(1149, 766)]",[],[1],[0.7],horizontal,"(890.0, 262.0)",0.6333333333333333,0.652,1,3698.488,3,0.0,same
0,414,valid,"[(1120, 782)]",[],[1],[0.5666666666666667],vertical,"(390.0, 762.0)",0.5833333333333334,0.522,1,3704.316,3,0.0,same
0,415,valid,"[(1140, 782)]",[],[1],[0.85],vertical,"(890.0, 762.0)",1.1333333333333333,nan,0,3710.063,0,0.0,same
0,416,valid,"[(1140, 788)]",[],[1],[0.85],horizontal,"(390.0, 762.0)",0.35,nan,0,3715.334,0,0.0,same
0,417,catch,"[(1117, 771)]",[],[1],[],horizontal,"(390.0, 762.0)",1.7,nan,1,3719.634,1,0.0,same
0,418,valid,"[(1159, 806)]",[],[1],[0.5833333333333334],horizontal,"(390.0, 762.0)",1.4333333333333333,0.543,1,3725.261,1,0.0,same
0,419,valid,"[(1160, 785)]",[],[1],[0.5833333333333334],vertical,"(390.0, 762.0)",1.4833333333333334,0.54,1,3730.768,1,0.0,same
0,420,invalid_same_bar,"[(1115, 813)]",[],[1],[0.6166666666666667],vertical,"(390.0, 762.0)",0.8666666666666667,0.576,1,3736.278,2,0.0,same
0,421,valid,"[(1112, 775)]",[],[1],[0.6333333333333333],vertical,"(890.0, 762.0)",1.3166666666666667,0.589,1,3787.017,2,0.0,same
0,422,valid,"[(1160, 778)]",[],[1],[0.6],vertical,"(390.0, 262.0)",0.4166666666666667,0.56,1,3792.877,2,0.0,same
0,423,valid,"[(1162, 756)]",[],[1],[0.6166666666666667],vertical,"(890.0, 762.0)",0.7666666666666666,0.575,1,3797.944,3,0.0,same
0,424,catch,"[(1165, 807)]",[],[1],[],vertical,"(890.0, 262.0)",1.7,nan,1,3804.81,3,0.0,same
0,425,invalid_adjacent_other_bar,"[(1141, 787)]",[],[1],[0.5833333333333334],horizontal,"(390.0, 262.0)",1.5166666666666666,0.548,1,3810.728,3,0.0,other
0,426,valid,"[(1175, 786)]",[],[1],[0.3833333333333333],vertical,"(390.0, 762.0)",1.5333333333333332,0.347,1,3816.961,3,0.0,same
0,427,invalid_same_bar,"[(1140, 760)]",[],[1],[0.5666666666666667],horizontal,"(890.0, 262.0)",1.2666666666666666,0.525,1,3823.362,3,0.0,same
0,428,valid,"[(1165, 802)]",[],[1],[0.6166666666666667],vertical,"(390.0, 762.0)",1.35,0.574,1,3829.712,3,0.0,same
0,429,valid,"[(1167, 768)]",[],[1],[0.7],horizontal,"(890.0, 762.0)",0.55,0.657,1,3836.11,3,0.0,same
0,430,catch,"[(1157, 772)]",[],[1],[],vertical,"(390.0, 762.0)",1.7,nan,1,3841.744,3,0.0,same
0,431,valid,"[(1158, 781)]",[],[1],[0.5833333333333334],vertical,"(390.0, 762.0)",0.7166666666666667,0.543,1,3847.744,3,0.0,same
0,432,catch,"[(1162, 767)]",[],[1],[],vertical,"(890.0, 762.0)",1.7,nan,1,3853.661,3,0.0,same
0,433,valid,"[(1135, 811)]",[],[1],[0.8166666666666667],vertical,"(890.0, 762.0)",0.9833333333333333,0.776,1,3860.06,3,0.0,same
0,434,catch,"[(1135, 800)]",[],[1],[],horizontal,"(890.0, 762.0)",,"('cti', 1.512),nan",0,3866.527,0,0.02,same
0,435,catch,"[(1135, 772)]",[],[1],[],vertical,"(390.0, 762.0)",1.7,nan,1,3873.494,1,0.02,same
0,436,valid,"[(1163, 764)]",[],[1],[0.6166666666666667],vertical,"(390.0, 762.0)",1.2833333333333332,0.575,1,3878.594,1,0.02,same
0,437,invalid_same_bar,"[(1158, 763)]",[],[1],[0.7],vertical,"(390.0, 762.0)",1.5333333333333332,0.653,1,3884.177,1,0.02,same
0,438,catch,"[(1166, 787)]",[],[1],[],horizontal,"(890.0, 762.0)",1.7,nan,1,3889.679,2,0.02,same
0,439,catch,"[(1140, 798)]",[],[1],[],vertical,"(390.0, 262.0)",1.7,nan,1,3895.559,2,0.02,same
0,440,valid,"[(1165, 765)]",[],[1],[0.5833333333333334],vertical,"(890.0, 262.0)",0.5333333333333333,0.543,1,3901.178,2,0.02,same
0,441,valid,"[(1175, 757)]",[],[1],[0.85],vertical,"(390.0, 762.0)",0.7833333333333333,nan,0,3906.162,0,0.02,same
0,442,valid,"[(1144, 776)]",[],[1],[0.5333333333333333],vertical,"(390.0, 262.0)",0.5666666666666667,0.491,1,3910.48,1,0.02,same
0,443,valid,"[(1162, 776)]",[],[1],[0.5666666666666667],vertical,"(390.0, 262.0)",1.45,0.526,1,3915.227,1,0.02,same
0,444,catch,"[(1164, 755)]",[],[1],[],horizontal,"(390.0, 762.0)",,"('fix', 0.167),nan",0,3920.793,0,0.04,same
0,445,valid,"[(1144, 794)]",[],[1],[0.5166666666666666],horizontal,"(890.0, 262.0)",1.0666666666666667,0.481,1,3922.612,1,0.04,same
0,446,valid,"[(1159, 772)]",[],[1],[0.48333333333333334],horizontal,"(890.0, 262.0)",0.45,0.441,1,3927.612,1,0.04,same
0,447,valid,"[(1140, 785)]",[],[1],[0.6166666666666667],vertical,"(390.0, 762.0)",0.8666666666666667,0.575,1,3931.82,1,0.04,same
0,448,catch,"[(1162, 758)]",[],[1],[],horizontal,"(890.0, 262.0)",1.7,nan,1,3936.677,2,0.04,same
0,449,catch,"[(1160, 765)]",[],[1],[],horizontal,"(390.0, 262.0)",1.7,nan,1,3942.474,2,0.04,same
0,450,catch,"[(1146, 776)]",[],[1],[],vertical,"(390.0, 762.0)",1.7,nan,1,3948.153,2,0.04,same
0,451,valid,"[(1178, 770)]",[],[1],[0.5333333333333333],vertical,"(390.0, 762.0)",1.5333333333333332,0.501,1,3953.505,3,0.04,same
0,452,valid,"[(1165, 789)]",[],[1],[0.5666666666666667],horizontal,"(390.0, 262.0)",0.4,0.524,1,3960.362,3,0.04,same
0,453,valid,"[(1163, 767)]",[],[1],[0.65],horizontal,"(890.0, 762.0)",1.4333333333333333,0.61,1,3965.966,3,0.04,same
0,454,valid,"[(1165, 792)]",[],[1],[0.5833333333333334],vertical,"(890.0, 262.0)",0.48333333333333334,0.547,1,3972.391,3,0.04,same
0,455,catch,"[(1163, 764)]",[],[1],[],horizontal,"(890.0, 262.0)",1.7,nan,1,3978.207,3,0.04,same
0,456,valid,"[(1169, 768)]",[],[1],[0.5],horizontal,"(890.0, 762.0)",1.4833333333333334,0.457,1,3984.212,3,0.04,same
0,457,catch,"[(1165, 764)]",[],[1],[],vertical,"(890.0, 762.0)",1.7,nan,1,3990.296,3,0.04,same
0,458,invalid_adjacent_other_bar,"[(1165, 768)]",[],[1],[0.6166666666666667],horizontal,"(890.0, 262.0)",0.9333333333333333,0.587,1,3996.728,3,0.04,other
0,459,catch,"[(1146, 769)]",[],[1],[],horizontal,"(890.0, 762.0)",1.7,nan,1,4002.743,3,0.04,same
0,460,invalid_adjacent_other_bar,"[(1167, 766)]",[],[1],[0.7],vertical,"(890.0, 262.0)",0.55,0.661,1,4008.662,3,0.04,other
0,461,valid,"[(1168, 765)]",[],[1],[0.6666666666666666],vertical,"(890.0, 262.0)",1.1166666666666667,0.625,1,4014.49,3,0.04,same
0,462,catch,"[(1165, 764)]",[],[1],[],horizontal,"(890.0, 262.0)",1.7,nan,1,4020.728,3,0.04,same
0,463,valid,"[(1166, 771)]",[],[1],[0.6166666666666667],vertical,"(890.0, 762.0)",1.2,0.578,1,4026.967,3,0.04,same
0,464,invalid_adjacent_other_bar,"[(1171, 765)]",[],[1],[0.85],vertical,"(390.0, 762.0)",1.4666666666666666,nan,0,4033.262,0,0.04,other
0,465,valid,"[(1143, 773)]",[],[1],[0.5833333333333334],horizontal,"(390.0, 762.0)",0.9,0.543,1,4038.534,1,0.04,same
0,466,valid,"[(1126, 765)]",[],[1],[0.43333333333333335],vertical,"(390.0, 762.0)",1.5333333333333332,0.396,1,4043.652,1,0.04,same
0,467,valid,"[(1125, 784)]",[],[1],[0.5333333333333333],vertical,"(890.0, 762.0)",0.8666666666666667,0.489,1,4049.601,1,0.04,same
0,468,valid,"[(1164, 772)]",[],[1],[],vertical,"(890.0, 762.0)",,"('fix', 0.201)",0,4055.345,0,0.04,same
0,469,invalid_same_bar,"[(1130, 812)]",[],[1],[0.6166666666666667],vertical,"(390.0, 262.0)",0.9,0.576,1,4057.195,1,0.04,same
0,470,valid,"[(1162, 765)]",[],[1],[0.7],vertical,"(390.0, 262.0)",0.5,0.661,1,4064.129,1,0.04,same
0,471,invalid_adjacent_other_bar,"[(1162, 763)]",[],[1],[0.85],horizontal,"(390.0, 762.0)",0.9,nan,0,4068.52,0,0.04,other
0,472,catch,"[(1139, 764)]",[],[1],[],horizontal,"(390.0, 762.0)",1.7,nan,1,4073.861,1,0.04,same
0,473,invalid_same_bar,"[(1160, 770)]",[],[1],[0.5333333333333333],vertical,"(390.0, 762.0)",0.3833333333333333,0.489,1,4079.357,1,0.04,same
0,474,catch,"[(1180, 766)]",[],[1],[],horizontal,"(390.0, 762.0)",1.7,nan,1,4084.051,1,0.04,same
0,475,valid,"[(1163, 758)]",[],[1],[0.5],vertical,"(390.0, 262.0)",1.0833333333333333,0.464,1,4088.887,2,0.04,same
0,476,valid,"[(1161, 770)]",[],[1],[0.5166666666666666],vertical,"(890.0, 262.0)",0.75,0.479,1,4094.745,2,0.04,same
0,477,valid,"[(1177, 766)]",[],[1],[0.6166666666666667],horizontal,"(890.0, 762.0)",0.7833333333333333,0.578,1,4100.089,2,0.04,same
0,478,valid,"[(1164, 759)]",[],[1],[0.6666666666666666],horizontal,"(890.0, 762.0)",1.5,0.622,1,4105.296,3,0.04,same
0,479,catch,"[(1160, 765)]",[],[1],[],horizontal,"(390.0, 262.0)",1.7,nan,1,4111.694,3,0.04,same
0,480,valid,"[(1176, 764)]",[],[1],[0.85],vertical,"(390.0, 762.0)",0.55,nan,0,4117.605,0,0.04,same
0,481,valid,"[(1140, 765)]",[],[1],[0.65],vertical,"(390.0, 262.0)",1.35,0.607,1,4121.967,1,0.04,same
0,482,valid,"[(1145, 760)]",[],[1],[0.55],vertical,"(890.0, 262.0)",0.8166666666666667,0.51,1,4127.494,1,0.04,same
0,483,valid,"[(1136, 797)]",[],[1],[0.55],vertical,"(890.0, 262.0)",0.9,0.506,1,4132.576,1,0.04,same
0,484,valid,"[(1163, 781)]",[],[1],[0.6166666666666667],horizontal,"(390.0, 762.0)",1.2833333333333332,0.575,1,4137.561,2,0.02,same
0,485,valid,"[(1160, 774)]",[],[1],[0.5833333333333334],horizontal,"(390.0, 762.0)",1.2166666666666666,0.541,1,4143.662,2,0.02,same
0,486,valid,"[(1164, 764)]",[],[1],[0.85],horizontal,"(890.0, 762.0)",1.2,nan,0,4149.439,0,0.02,same
0,487,catch,"[(1160, 778)]",[],[1],[],vertical,"(890.0, 262.0)",1.7,nan,1,4154.529,1,0.02,same
0,488,valid,"[(1164, 789)]",[],[1],[0.5666666666666667],horizontal,"(390.0, 762.0)",0.45,0.526,1,4159.971,1,0.02,same
0,489,valid,"[(1164, 773)]",[],[1],[0.5333333333333333],vertical,"(390.0, 762.0)",0.8333333333333334,0.49,1,4164.677,1,0.02,same
0,490,valid,"[(1137, 750), (1140, 800)]",[],"[0, 1]",[0.6],vertical,"(890.0, 762.0)",0.65,0.554,1,4169.378,2,0.02,same
0,491,valid,"[(1173, 799)]",[],[1],[0.4666666666666667],vertical,"(890.0, 262.0)",1.1,0.434,1,4176.161,2,0.02,same
0,492,invalid_adjacent_other_bar,"[(1147, 755)]",[],[1],[0.85],horizontal,"(390.0, 262.0)",0.36666666666666664,nan,0,4181.727,0,0.02,other
0,493,invalid_same_bar,"[(1145, 778)]",[],[1],[0.65],vertical,"(890.0, 762.0)",1.25,0.607,1,4186.153,1,0.02,same
0,494,invalid_adjacent_other_bar,"[(1162, 778)]",[],[1],[0.6],vertical,"(890.0, 262.0)",1.2333333333333334,0.553,1,4191.327,1,0.0,other
0,495,valid,"[(1175, 770)]",[],[1],[0.75],vertical,"(890.0, 262.0)",0.36666666666666664,0.701,1,4196.383,1,0.0,same
0,496,valid,"[(1179, 757)]",[],[1],[0.6166666666666667],vertical,"(890.0, 762.0)",1.35,0.573,1,4201.45,2,0.0,same
0,497,valid,"[(1162, 768)]",[],[1],[0.5833333333333334],vertical,"(390.0, 262.0)",1.4,0.537,1,4207.336,2,0.0,same
0,498,valid,"[(1161, 778)]",[],[1],[],horizontal,"(390.0, 262.0)",,"('fix', 0.152)",0,4213.178,0,0.0,same
0,499,valid,"[(1132, 787)]",[],[1],[0.65],vertical,"(390.0, 262.0)",0.75,0.603,1,4214.729,1,0.0,same
0,500,valid,"[(1163, 780)]",[],[1],[0.6333333333333333],vertical,"(890.0, 262.0)",0.8666666666666667,0.591,1,4220.018,1,0.0,same
0,501,valid,"[(1167, 778)]",[],[1],[0.6],horizontal,"(890.0, 262.0)",1.3333333333333333,0.552,1,4225.0,1,0.0,same
0,502,catch,"[(1180, 800)]",[],[1],[],horizontal,"(890.0, 262.0)",1.7,nan,1,4230.677,2,0.0,same
0,503,catch,"[(1140, 772)]",[],[1],[],horizontal,"(390.0, 762.0)",1.7,nan,1,4236.829,2,0.0,same
0,504,catch,"[(1158, 784)]",[],[1],[],horizontal,"(390.0, 762.0)",1.7,nan,1,4242.828,2,0.0,same
0,505,catch,"[(1144, 784)]",[],[1],[],horizontal,"(890.0, 762.0)",1.7,nan,1,4248.744,3,0.0,same
0,506,valid,"[(1161, 770)]",[],[1],[0.6333333333333333],horizontal,"(390.0, 262.0)",0.6666666666666666,0.591,1,4254.816,3,0.0,same
0,507,valid,"[(1146, 769)]",[],[1],[0.7],vertical,"(390.0, 262.0)",0.75,0.651,1,4260.111,3,0.0,same
0,508,invalid_same_bar,"[(1159, 773)]",[],[1],[0.6333333333333333],vertical,"(890.0, 762.0)",0.35,0.592,1,4265.644,3,0.0,same
0,509,valid,"[(1155, 769)]",[],[1],[0.55],horizontal,"(390.0, 262.0)",0.45,0.503,1,4270.729,3,0.0,same
0,510,catch,"[(1154, 768)]",[],[1],[],vertical,"(890.0, 262.0)",1.7,nan,1,4275.978,3,0.0,same
0,511,valid,"[(1140, 766)]",[],[1],[0.5666666666666667],vertical,"(390.0, 262.0)",0.48333333333333334,0.527,1,4281.928,3,0.0,same
0,512,catch,"[(1163, 771)]",[],[1],[],horizontal,"(390.0, 762.0)",1.7,nan,1,4287.778,3,0.0,same
0,513,valid,"[(1171, 773)]",[],[1],[0.5833333333333334],horizontal,"(890.0, 762.0)",1.0,0.548,1,4293.445,3,0.0,same
0,514,valid,"[(1135, 777)]",[],[1],[0.85],vertical,"(890.0, 762.0)",0.3833333333333333,nan,0,4299.392,0,0.0,same
0,515,valid,"[(1135, 778)]",[],[1],[0.6166666666666667],vertical,"(890.0, 262.0)",0.8666666666666667,0.577,1,4303.958,1,0.0,same
0,516,valid,"[(1160, 791)]",[],[1],[0.6333333333333333],horizontal,"(390.0, 762.0)",1.3833333333333333,0.59,1,4309.2,1,0.0,same
0,517,valid,"[(1115, 772)]",[],[1],[0.55],vertical,"(890.0, 762.0)",1.35,0.51,1,4314.601,1,0.0,same
0,518,valid,"[(1159, 783)]",[],[1],[0.7166666666666667],vertical,"(390.0, 262.0)",0.8,0.68,1,4319.665,2,0.0,same
0,519,catch,"[(1161, 767)]",[],[1],[],vertical,"(390.0, 262.0)",1.7,nan,1,4325.021,2,0.0,same
0,520,invalid_same_bar,"[(1153, 782)]",[],[1],[0.55],vertical,"(890.0, 762.0)",1.45,0.515,1,4330.869,2,0.0,same
0,521,valid,"[(1126, 786)]",[],[1],[0.65],horizontal,"(890.0, 762.0)",1.0166666666666666,0.61,1,4337.452,3,0.0,same
0,522,invalid_same_bar,"[(1139, 762)]",[],[1],[0.5333333333333333],vertical,"(390.0, 262.0)",0.85,0.493,1,4343.443,3,0.0,same
0,523,catch,"[(1140, 778)]",[],[1],[],vertical,"(390.0, 262.0)",1.7,nan,1,4349.453,3,0.0,same
0,524,catch,"[(1161, 783)]",[],[1],[],horizontal,"(390.0, 262.0)",1.7,nan,1,4355.396,3,0.0,same
0,525,valid,"[(1145, 774)]",[],[1],[0.7333333333333333],horizontal,"(890.0, 262.0)",1.4166666666666667,0.689,1,4361.278,3,0.0,same
0,526,catch,"[(1164, 781)]",[],[1],[],horizontal,"(390.0, 262.0)",1.7,nan,1,4367.346,3,0.0,same
0,527,valid,"[(1131, 777)]",[],[1],[0.6],horizontal,"(390.0, 762.0)",0.5333333333333333,0.56,1,4373.255,3,0.0,same
0,528,valid,"[(1135, 783)]",[],[1],[],horizontal,"(390.0, 762.0)",,"('fix', 0.035)",0,4378.511,0,0.0,same
0,529,valid,"[(1120, 787)]",[],[1],[0.5666666666666667],vertical,"(890.0, 762.0)",0.8166666666666667,0.528,1,4380.23,1,0.0,same
0,530,catch,"[(1137, 773)]",[],[1],[],horizontal,"(390.0, 262.0)",1.7,nan,1,4384.86,1,0.0,same
0,531,invalid_adjacent_other_bar,"[(1121, 757)]",[],[1],[],horizontal,"(390.0, 262.0)",,"('fix', 0.17)",0,4390.545,0,0.0,other
0,532,invalid_same_bar,"[(1085, 782)]",[],[1],[0.65],horizontal,"(890.0, 262.0)",1.2833333333333332,0.624,1,4392.078,1,0.0,same
0,533,valid,"[(1067, 782)]",[],[1],[0.5666666666666667],vertical,"(390.0, 262.0)",0.8166666666666667,0.535,1,4421.381,1,0.0,same
0,534,valid,"[(1133, 782)]",[],[1],[0.5833333333333334],vertical,"(390.0, 262.0)",1.1,0.549,1,4426.712,1,0.0,same
0,535,catch,"[(1144, 777)]",[],[1],[],vertical,"(890.0, 262.0)",1.7,nan,1,4432.323,2,0.0,same
0,536,valid,"[(1138, 748), (1121, 815)]",[],"[0, 1]",[0.6],horizontal,"(390.0, 262.0)",1.1,0.561,1,4437.938,2,0.0,same
0,537,catch,"[(1140, 795)]",[],[1],[],horizontal,"(390.0, 762.0)",1.7,nan,1,4444.81,2,0.0,same
0,538,valid,"[(1159, 771)]",[],[1],[0.6833333333333333],horizontal,"(390.0, 762.0)",1.2666666666666666,0.647,1,4450.329,3,0.0,same
0,539,valid,"[(1143, 776)]",[],[1],[0.5333333333333333],horizontal,"(390.0, 262.0)",0.7166666666666667,0.49,1,4456.798,3,0.0,same
0,540,valid,"[(1166, 767)]",[],[1],[0.5],horizontal,"(890.0, 262.0)",0.9166666666666666,0.463,1,4462.08,3,0.0,same
0,541,invalid_same_bar,"[(1144, 788)]",[],[1],[0.6666666666666666],vertical,"(390.0, 762.0)",1.15,0.623,1,4468.1,3,0.0,same
0,542,valid,"[(1155, 787)]",[],[1],[0.5166666666666666],vertical,"(890.0, 262.0)",0.85,0.484,1,4473.966,3,0.0,same
0,543,catch,"[(1135, 773)]",[],[1],[],vertical,"(390.0, 262.0)",1.7,nan,1,4479.999,3,0.0,same
0,544,valid,"[(1150, 777)]",[],[1],[0.5333333333333333],vertical,"(890.0, 262.0)",0.4,0.498,1,4486.245,3,0.0,same
0,545,catch,"[(1137, 797)]",[],[1],[],horizontal,"(390.0, 762.0)",1.7,nan,1,4491.729,3,0.0,same
0,546,catch,"[(1150, 780)]",[],[1],[],horizontal,"(390.0, 262.0)",,"('cti', 1.565),nan",0,4497.993,0,0.02,same
0,547,invalid_adjacent_other_bar,"[(1084, 830)]",[],[1],[0.7],horizontal,"(890.0, 762.0)",1.1333333333333333,0.657,1,4503.048,1,0.02,other
0,548,catch,"[(1129, 786)]",[],[1],[],vertical,"(390.0, 262.0)",1.7,nan,1,4508.762,1,0.02,same
0,549,catch,"[(1140, 783)]",[],[1],[],vertical,"(890.0, 762.0)",1.7,nan,1,4514.399,1,0.02,same
0,550,valid,"[(1143, 787)]",[],[1],[],horizontal,"(890.0, 762.0)",,"('fix', 0.085)",0,4520.262,0,0.02,same
0,551,catch,"[(1101, 780)]",[],[1],[],vertical,"(390.0, 762.0)",1.7,nan,1,4521.692,1,0.02,same
0,552,valid,"[(1144, 772)]",[],[1],[0.6666666666666666],vertical,"(390.0, 762.0)",1.35,0.631,1,4527.311,1,0.02,same
0,553,valid,"[(1170, 783)]",[],[1],[0.5166666666666666],horizontal,"(390.0, 262.0)",0.6166666666666667,0.486,1,4532.762,1,0.02,same
0,554,valid,"[(1152, 774)]",[],[1],[0.7666666666666666],vertical,"(390.0, 762.0)",0.9666666666666667,0.727,1,4537.657,2,0.02,same
0,555,valid,"[(1140, 763)]",[],[1],[0.5166666666666666],horizontal,"(890.0, 262.0)",1.4166666666666667,0.482,1,4543.863,2,0.02,same
0,556,catch,"[(1138, 792)]",[],[1],[],vertical,"(390.0, 262.0)",1.7,nan,1,4550.278,2,0.02,same
0,557,catch,"[(1121, 792)]",[],[1],[],vertical,"(390.0, 762.0)",1.7,nan,1,4556.742,3,0.02,same
0,558,valid,"[(1137, 783)]",[],[1],[0.5166666666666666],vertical,"(890.0, 262.0)",0.5833333333333334,0.473,1,4562.77,3,0.02,same
0,559,valid,"[(1138, 755)]",[],[1],[0.5666666666666667],horizontal,"(390.0, 762.0)",1.4666666666666666,0.531,1,4568.268,3,0.02,same
0,560,valid,"[(1144, 779)]",[],[1],[0.5666666666666667],vertical,"(890.0, 762.0)",1.4333333333333333,0.525,1,4574.634,3,0.02,same
0,561,invalid_same_bar,"[(1145, 791)]",[],[1],"[0.85, 0.85]",horizontal,"(390.0, 762.0)",1.2,"0.795,nan",0,4581.144,0,0.02,same
0,562,valid,"[(1145, 792)]",[],[1],[0.5833333333333334],vertical,"(890.0, 762.0)",1.4166666666666667,0.54,1,4586.073,1,0.02,same
0,563,valid,"[(1159, 784)]",[],[1],[0.5666666666666667],vertical,"(890.0, 762.0)",0.7833333333333333,0.525,1,4591.432,1,0.02,same
0,564,valid,"[(1181, 768)]",[],[1],[0.55],horizontal,"(890.0, 762.0)",0.48333333333333334,0.513,1,4596.729,1,0.02,same
0,565,catch,"[(1161, 778)]",[],[1],[],horizontal,"(390.0, 262.0)",1.7,nan,1,4601.373,2,0.02,same
0,566,valid,"[(1131, 772)]",[],[1],[0.85],horizontal,"(390.0, 762.0)",1.4,nan,0,4607.245,0,0.02,same
0,567,invalid_adjacent_other_bar,"[(1100, 763)]",[],[1],[0.6333333333333333],horizontal,"(390.0, 262.0)",0.9833333333333333,0.588,1,4612.387,1,0.02,other
0,568,valid,"[(1170, 768)]",[],[1],[0.5333333333333333],horizontal,"(390.0, 762.0)",1.15,0.49,1,4617.079,1,0.02,same
0,569,valid,"[(1160, 786)]",[],[1],[0.55],vertical,"(890.0, 762.0)",1.4166666666666667,0.508,1,4622.403,1,0.02,same
0,570,valid,"[(1149, 783)]",[],[1],[0.5333333333333333],horizontal,"(390.0, 762.0)",0.95,0.493,1,4627.708,2,0.02,same
0,571,valid,"[(1161, 760)]",[],[1],[0.5166666666666666],vertical,"(890.0, 762.0)",0.5166666666666666,0.469,1,4633.226,2,0.02,same
0,572,catch,"[(1161, 783)]",[],[1],[],vertical,"(890.0, 762.0)",1.7,nan,1,4637.846,2,0.02,same
0,573,catch,"[(1139, 772)]",[],[1],[],horizontal,"(890.0, 762.0)",1.7,nan,1,4643.724,3,0.02,same
0,574,catch,"[(1162, 776)]",[],[1],[],vertical,"(890.0, 762.0)",1.7,nan,1,4650.05,3,0.02,same
0,575,invalid_adjacent_other_bar,"[(1135, 801)]",[],[1],[0.85],vertical,"(390.0, 262.0)",0.45,nan,0,4656.178,0,0.02,other
0,576,valid,"[(1139, 789)]",[],[1],[0.5833333333333334],vertical,"(390.0, 762.0)",0.9666666666666667,0.537,1,4660.354,1,0.02,same
0,577,valid,"[(1163, 777)]",[],[1],[0.6333333333333333],horizontal,"(890.0, 762.0)",1.25,0.59,1,4665.512,1,0.02,same
0,578,catch,"[(1156, 774)]",[],[1],[],horizontal,"(390.0, 262.0)",1.7,nan,1,4671.267,1,0.02,same
0,579,valid,"[(1160, 781)]",[],[1],[0.55],horizontal,"(890.0, 262.0)",0.45,0.511,1,4676.651,2,0.02,same
0,580,valid,"[(1143, 769)]",[],[1],[0.6666666666666666],horizontal,"(890.0, 262.0)",1.0,0.626,1,4681.929,2,0.02,same
0,581,valid,"[(1135, 772)]",[],[1],[0.6166666666666667],vertical,"(890.0, 762.0)",0.8333333333333334,0.577,1,4688.345,2,0.02,same
0,582,valid,"[(1174, 778)]",[],[1],[0.6],vertical,"(890.0, 762.0)",1.5166666666666666,0.559,1,4693.696,3,0.02,same
0,583,valid,"[(1142, 766)]",[],[1],[0.5333333333333333],horizontal,"(390.0, 262.0)",1.0833333333333333,0.492,1,4700.445,3,0.02,same
0,584,valid,"[(1135, 787)]",[],[1],[0.5333333333333333],horizontal,"(390.0, 262.0)",1.1333333333333333,0.498,1,4706.723,3,0.02,same
0,585,valid,"[(1140, 769)]",[],[1],[0.6],horizontal,"(390.0, 762.0)",0.7166666666666667,0.556,1,4712.479,3,0.02,same
0,586,valid,"[(1134, 753), (1108, 808)]",[],"[0, 1]",[0.5833333333333334],horizontal,"(390.0, 262.0)",1.2666666666666666,0.54,1,4718.195,3,0.02,same
0,587,valid,"[(1107, 813)]",[],[1],[0.85],horizontal,"(890.0, 762.0)",1.4,nan,0,4725.427,0,0.02,same
0,588,invalid_adjacent_other_bar,"[(1110, 784)]",[],[1],[0.7],vertical,"(390.0, 262.0)",1.0833333333333333,0.663,1,4830.415,1,0.02,other
0,589,valid,"[(1150, 768)]",[],[1],[0.6666666666666666],vertical,"(890.0, 262.0)",0.9333333333333333,0.622,1,4835.695,1,0.02,same
0,590,valid,"[(1163, 757)]",[],[1],[0.7],vertical,"(890.0, 762.0)",0.4666666666666667,0.655,1,4840.996,1,0.02,same
0,591,valid,"[(1179, 766)]",[],[1],[0.6],horizontal,"(890.0, 262.0)",0.9333333333333333,0.557,1,4845.942,2,0.02,same
0,592,catch,"[(1176, 761)]",[],[1],[],vertical,"(390.0, 762.0)",1.7,nan,1,4851.371,2,0.02,same
0,593,valid,"[(1150, 753), (1105, 806)]",[],"[0, 1]",[0.5666666666666667],horizontal,"(390.0, 262.0)",0.6666666666666666,0.534,1,4856.813,2,0.02,same
0,594,valid,"[(1157, 779)]",[],[1],[0.5333333333333333],vertical,"(390.0, 262.0)",1.1,0.491,1,4864.199,3,0.02,same
0,595,valid,"[(1130, 774)]",[],[1],[0.6833333333333333],horizontal,"(390.0, 762.0)",0.5833333333333334,0.644,1,4870.482,3,0.02,same
0,596,invalid_adjacent_other_bar,"[(1125, 782)]",[],[1],[0.6333333333333333],horizontal,"(390.0, 762.0)",0.9833333333333333,0.596,1,4876.264,3,0.0,other
0,597,invalid_adjacent_other_bar,"[(1141, 753), (1115, 802)]",[],"[0, 1]",[0.85],vertical,"(390.0, 262.0)",0.85,nan,0,4882.463,0,0.0,other
0,598,valid,"[(1135, 778)]",[],[1],[0.5666666666666667],horizontal,"(390.0, 762.0)",1.1166666666666667,0.533,1,4888.429,1,0.0,same
0,599,catch,"[(1178, 755)]",[],[1],[],horizontal,"(890.0, 262.0)",1.7,nan,1,4893.562,1,0.0,same
0,600,valid,"[(1139, 763)]",[],[1],[0.6666666666666666],horizontal,"(390.0, 762.0)",1.2666666666666666,0.634,1,4899.129,1,0.0,same
0,601,valid,"[(1146, 759)]",[],[1],[0.55],horizontal,"(390.0, 262.0)",1.0166666666666666,0.514,1,4904.879,2,0.0,same
0,602,valid,"[(1158, 769)]",[],[1],[0.6833333333333333],horizontal,"(890.0, 762.0)",1.1,0.641,1,4910.297,2,0.0,same
0,603,valid,"[(1150, 775)]",[],[1],[0.85],horizontal,"(390.0, 762.0)",0.6,nan,0,4915.84,0,0.0,same
0,604,valid,"[(1145, 771)]",[],[1],[0.6333333333333333],horizontal,"(890.0, 262.0)",1.1,0.595,1,4920.269,1,0.0,same
0,605,invalid_same_bar,"[(1179, 840)]",[],[1],[0.6666666666666666],vertical,"(390.0, 262.0)",0.55,0.62,1,4928.346,1,0.0,same
0,606,valid,"[(1145, 784)]",[],[1],[0.6333333333333333],horizontal,"(390.0, 762.0)",1.05,0.591,1,4932.907,1,0.0,same
0,607,catch,"[(1171, 776)]",[],[1],[],vertical,"(890.0, 762.0)",1.7,nan,1,4938.179,2,0.0,same
0,608,catch,"[(1160, 786)]",[],[1],[],horizontal,"(890.0, 262.0)",1.7,nan,1,4943.949,2,0.0,same
0,609,valid,"[(1157, 773)]",[],[1],[0.6],horizontal,"(390.0, 762.0)",0.6666666666666666,0.555,1,4949.646,2,0.0,same
0,610,catch,"[(1155, 783)]",[],[1],[],horizontal,"(390.0, 762.0)",1.7,nan,1,4954.746,3,0.0,same
0,611,valid,"[(1155, 781)]",[],[1],[0.55],vertical,"(390.0, 762.0)",0.6666666666666666,0.51,1,4960.931,3,0.0,same
0,612,catch,"[(1140, 762)]",[],[1],[],horizontal,"(890.0, 262.0)",1.7,nan,1,4966.447,3,0.0,same
0,613,catch,"[(1170, 792)]",[],[1],[],vertical,"(390.0, 762.0)",1.7,nan,1,4972.163,3,0.0,same
0,614,catch,"[(1152, 811)]",[],[1],[],horizontal,"(390.0, 762.0)",1.7,nan,1,4978.28,3,0.0,same
0,615,valid,"[(1157, 760)]",[],[1],[0.6],horizontal,"(890.0, 762.0)",1.2666666666666666,0.562,1,4984.562,3,0.0,same
0,616,catch,"[(1160, 767)]",[],[1],[],horizontal,"(890.0, 262.0)",1.7,nan,1,4990.513,3,0.0,same
0,617,catch,"[(1146, 774)]",[],[1],[],vertical,"(390.0, 262.0)",1.7,nan,1,4996.463,3,0.0,same
0,618,valid,"[(1158, 764)]",[],[1],[0.5],vertical,"(890.0, 262.0)",0.8833333333333333,0.459,1,5002.426,3,0.0,same
0,619,invalid_same_bar,"[(1165, 761)]",[],[1],[0.5333333333333333],horizontal,"(890.0, 262.0)",0.5,0.497,1,5007.842,3,0.0,same
0,620,catch,"[(1160, 770)]",[],[1],[],horizontal,"(390.0, 762.0)",1.7,nan,1,5013.223,3,0.0,same
0,621,invalid_adjacent_other_bar,"[(1150, 773)]",[],[1],[0.5166666666666666],horizontal,"(890.0, 262.0)",1.15,0.473,1,5019.277,3,0.0,other
0,622,valid,"[(1160, 778)]",[],[1],[0.6166666666666667],horizontal,"(390.0, 762.0)",1.2,0.566,1,5024.962,3,0.0,same
0,623,valid,"[(1149, 763)]",[],[1],[0.5666666666666667],vertical,"(890.0, 262.0)",1.15,0.525,1,5031.28,3,0.0,same
0,624,valid,"[(1139, 773)]",[],[1],[0.5333333333333333],horizontal,"(390.0, 262.0)",1.1666666666666667,0.492,1,5038.07,3,0.0,same
0,625,valid,"[(1135, 776)]",[],[1],[0.5],horizontal,"(890.0, 762.0)",1.25,0.458,1,5044.35,3,0.0,same
0,626,valid,"[(1163, 774)]",[],[1],[0.5833333333333334],horizontal,"(890.0, 762.0)",0.8166666666666667,0.54,1,5050.478,3,0.0,same
0,627,valid,"[(1161, 781)]",[],[1],[0.5166666666666666],vertical,"(890.0, 262.0)",0.6666666666666666,0.472,1,5056.035,3,0.0,same
0,628,catch,"[(1162, 774)]",[],[1],[],horizontal,"(390.0, 262.0)",1.7,nan,1,5061.557,3,0.0,same
0,629,valid,"[(1164, 778)]",[],[1],[0.6833333333333333],vertical,"(390.0, 262.0)",0.7166666666666667,0.635,1,5067.612,3,0.0,same
0,630,valid,"[(1160, 764)]",[],[1],[0.6333333333333333],horizontal,"(390.0, 762.0)",0.8666666666666667,0.587,1,5073.188,3,0.0,same
0,631,catch,"[(1162, 769)]",[],[1],[],vertical,"(390.0, 262.0)",1.7,nan,1,5079.289,3,0.0,same
0,632,catch,"[(1176, 773)]",[],[1],[],vertical,"(390.0, 262.0)",1.7,nan,1,5085.471,3,0.0,same
0,633,valid,"[(1179, 785)]",[],[1],[0.5833333333333334],horizontal,"(890.0, 762.0)",0.7166666666666667,0.532,1,5091.695,3,0.0,same
0,634,catch,"[(1141, 766)]",[],[1],[],horizontal,"(890.0, 762.0)",1.7,nan,1,5097.047,3,0.0,same
0,635,valid,"[(1147, 768)]",[],[1],[0.5333333333333333],vertical,"(890.0, 762.0)",1.1833333333333333,0.495,1,5102.982,3,0.0,same
0,636,valid,"[(1140, 770)]",[],[1],[0.6166666666666667],vertical,"(390.0, 762.0)",1.4666666666666666,0.57,1,5108.928,3,0.0,same
0,637,valid,"[(1173, 774)]",[],[1],[0.6],vertical,"(390.0, 762.0)",1.3833333333333333,0.558,1,5115.279,3,0.0,same
0,638,valid,"[(1160, 778)]",[],[1],[0.5666666666666667],horizontal,"(390.0, 262.0)",1.2666666666666666,0.524,1,5121.697,3,0.0,same
0,639,catch,"[(1155, 777)]",[],[1],[],horizontal,"(390.0, 262.0)",1.7,nan,1,5127.51,3,0.0,same
0,640,valid,"[(1164, 747), (1122, 790)]",[],"[0, 1]",[0.6333333333333333],vertical,"(390.0, 762.0)",0.5666666666666667,0.586,1,5133.247,3,0.0,same
0,641,valid,"[(1140, 801)]",[],[1],[0.85],vertical,"(890.0, 262.0)",1.2833333333333332,nan,0,5140.579,0,0.0,same
0,642,valid,"[(1143, 778)]",[],[1],[0.21666666666666667],horizontal,"(890.0, 762.0)",1.3333333333333333,0.181,0,5146.161,0,0.0,same
0,643,catch,"[(1140, 770)]",[],[1],[],vertical,"(390.0, 762.0)",1.7,nan,1,5150.887,1,0.0,same
0,644,catch,"[(1171, 739), (1120, 800)]",[],"[0, 1]",[],vertical,"(890.0, 762.0)",1.7,nan,1,5156.197,1,0.0,same
0,645,valid,"[(1168, 765)]",[],[1],[0.4666666666666667],horizontal,"(890.0, 762.0)",0.7833333333333333,0.424,1,5162.129,1,0.0,same
0,646,valid,"[(1165, 768)]",[],[1],[0.5666666666666667],horizontal,"(390.0, 262.0)",0.6166666666666667,0.529,1,5167.164,2,0.0,same
0,647,valid,"[(1173, 777)]",[],[1],[0.6],vertical,"(390.0, 262.0)",1.3666666666666667,0.554,1,5172.279,2,0.0,same
0,648,valid,"[(1170, 777)]",[],[1],[0.75],vertical,"(390.0, 262.0)",1.0666666666666667,0.706,1,5178.287,2,0.0,same
0,649,valid,"[(1168, 770)]",[],[1],[0.5833333333333334],horizontal,"(890.0, 262.0)",0.8166666666666667,0.55,1,5184.202,3,0.0,same
0,650,valid,"[(1140, 777)]",[],[1],[0.55],vertical,"(390.0, 762.0)",0.9,0.508,1,5190.196,3,0.0,same
0,651,valid,"[(1158, 766)]",[],[1],[0.5166666666666666],vertical,"(390.0, 762.0)",1.2166666666666666,0.481,1,5196.09,3,0.0,same
0,652,valid,"[(1160, 770)]",[],[1],[0.85],horizontal,"(890.0, 262.0)",1.5333333333333332,nan,0,5202.046,0,0.0,same
0,653,valid,"[(1132, 773)]",[],[1],[0.5333333333333333],horizontal,"(890.0, 262.0)",1.1166666666666667,0.493,1,5207.38,1,0.0,same
0,654,valid,"[(1172, 774)]",[],[1],[0.5],horizontal,"(890.0, 262.0)",1.5166666666666666,0.455,1,5212.429,1,0.0,same
0,655,valid,"[(1172, 760)]",[],[1],[0.55],horizontal,"(390.0, 262.0)",0.7833333333333333,0.509,1,5218.147,1,0.0,same
0,656,invalid_same_bar,"[(1168, 777)]",[],[1],[0.75],horizontal,"(390.0, 262.0)",1.1666666666666667,0.704,1,5223.158,2,0.0,same
0,657,catch,"[(1163, 787)]",[],[1],[],horizontal,"(390.0, 762.0)",1.7,nan,1,5229.244,2,0.0,same
0,658,catch,"[(1156, 768)]",[],[1],[],horizontal,"(390.0, 262.0)",1.7,nan,1,5234.703,2,0.0,same
0,659,valid,"[(1160, 765)]",[],[1],[0.5333333333333333],horizontal,"(890.0, 262.0)",0.5166666666666666,0.496,1,5240.347,3,0.0,same
0,660,invalid_same_bar,"[(1168, 783)]",[],[1],[0.6666666666666666],horizontal,"(890.0, 762.0)",1.2333333333333334,0.631,1,5245.597,3,0.0,same
0,661,valid,"[(1163, 749), (1135, 799)]",[],"[0, 1]",[0.7],horizontal,"(890.0, 762.0)",0.9166666666666666,0.657,1,5251.597,3,0.0,same
0,662,invalid_adjacent_other_bar,"[(1155, 770)]",[],[1],[0.5666666666666667],horizontal,"(390.0, 762.0)",1.0333333333333332,0.522,1,5258.723,3,0.0,other
0,663,valid,"[(1165, 765)]",[],[1],[0.6],vertical,"(890.0, 762.0)",0.5833333333333334,0.563,1,5264.646,3,0.0,same
0,664,invalid_same_bar,"[(1145, 776)]",[],[1],[0.6833333333333333],horizontal,"(890.0, 262.0)",0.9,0.641,1,5270.213,3,0.0,same
0,665,valid,"[(1160, 769)]",[],[1],[0.5333333333333333],vertical,"(890.0, 262.0)",1.3333333333333333,0.491,1,5275.763,3,0.0,same
0,666,invalid_same_bar,"[(1154, 766)]",[],[1],[0.6166666666666667],vertical,"(890.0, 762.0)",1.35,0.579,1,5282.15,3,0.0,same
0,667,invalid_same_bar,"[(1165, 773)]",[],[1],[0.5166666666666666],vertical,"(890.0, 262.0)",1.1,0.477,1,5288.481,3,0.0,same
0,668,valid,"[(1160, 773)]",[],[1],[0.85],horizontal,"(890.0, 762.0)",0.75,nan,0,5294.014,0,0.0,same
0,669,catch,"[(1131, 765)]",[],[1],[],vertical,"(890.0, 762.0)",1.7,nan,1,5298.595,1,0.0,same
0,670,valid,"[(1175, 766)]",[],[1],[0.5666666666666667],vertical,"(390.0, 262.0)",1.2333333333333334,0.524,1,5304.223,1,0.0,same
0,671,valid,"[(1169, 757)]",[],[1],[0.6166666666666667],vertical,"(890.0, 762.0)",1.3,0.572,1,5309.399,1,0.0,same
0,672,valid,"[(1152, 746), (1121, 782)]",[],"[0, 1]",[0.5],horizontal,"(390.0, 762.0)",1.3666666666666667,0.467,1,5314.641,2,0.0,same
0,673,valid,"[(1165, 779)]",[],[1],[0.7166666666666667],horizontal,"(390.0, 262.0)",0.48333333333333334,0.678,1,5321.601,2,0.0,same
0,674,catch,"[(1165, 773)]",[],[1],[],vertical,"(390.0, 262.0)",1.7,nan,1,5327.197,2,0.0,same
0,675,catch,"[(1152, 739), (1129, 800)]",[],"[0, 1]",[],vertical,"(390.0, 762.0)",1.7,nan,1,5332.747,3,0.0,same
0,676,invalid_adjacent_other_bar,"[(1140, 770)]",[],[1],[0.6666666666666666],horizontal,"(390.0, 262.0)",0.8166666666666667,0.626,1,5340.064,3,0.0,other
0,677,catch,"[(1160, 757)]",[],[1],[],horizontal,"(390.0, 762.0)",1.7,nan,1,5346.056,3,0.0,same
0,678,invalid_same_bar,"[(1160, 748), (1130, 798)]",[],"[0, 1]",[0.5833333333333334],horizontal,"(390.0, 262.0)",0.7666666666666666,0.551,1,5352.113,3,0.0,same
0,679,valid,"[(1125, 807)]",[],[1],[0.6],vertical,"(390.0, 262.0)",0.4,0.566,1,5360.064,3,0.0,same
0,680,valid,"[(1175, 778)]",[],[1],[0.65],horizontal,"(390.0, 262.0)",0.8666666666666667,0.612,1,5365.313,3,0.0,same
0,681,valid,"[(1140, 773)]",[],[1],[0.5333333333333333],horizontal,"(390.0, 262.0)",0.85,0.501,1,5371.78,3,0.0,same
0,682,catch,"[(1141, 748), (1137, 797)]",[],"[0, 1]",[],vertical,"(390.0, 262.0)",1.7,nan,1,5377.668,3,0.0,same
0,683,valid,"[(1155, 764)]",[],[1],[0.6333333333333333],vertical,"(390.0, 262.0)",1.45,0.591,1,5385.346,3,0.0,same
0,684,valid,"[(1166, 773)]",[],[1],[0.6666666666666666],vertical,"(390.0, 762.0)",0.7166666666666667,0.623,1,5391.431,3,0.0,same
0,685,valid,"[(1157, 766)]",[],[1],[0.5],vertical,"(890.0, 262.0)",1.4833333333333334,0.466,1,5397.45,3,0.0,same
0,686,valid,"[(1150, 767)]",[],[1],[0.7333333333333333],vertical,"(890.0, 262.0)",1.15,0.689,1,5403.498,3,0.0,same
0,687,valid,"[(1163, 771)]",[],[1],[0.43333333333333335],vertical,"(390.0, 262.0)",1.3666666666666667,0.395,1,5409.954,3,0.0,same
0,688,catch,"[(1171, 742), (1131, 800)]",[],"[0, 1]",[],vertical,"(890.0, 762.0)",1.7,nan,1,5416.428,3,0.0,same
0,689,valid,"[(1160, 761)]",[],[1],[0.5833333333333334],horizontal,"(890.0, 762.0)",0.4666666666666667,0.554,1,5423.885,3,0.0,same
0,690,invalid_adjacent_other_bar,"[(1162, 777)]",[],[1],[0.65],horizontal,"(890.0, 762.0)",1.3666666666666667,0.611,1,5429.69,3,0.0,other
0,691,valid,"[(1162, 759)]",[],[1],[0.5166666666666666],vertical,"(890.0, 262.0)",1.4666666666666666,0.482,1,5435.947,3,0.0,same
0,692,valid,"[(1176, 769)]",[],[1],[0.6166666666666667],vertical,"(890.0, 262.0)",1.1333333333333333,0.579,1,5441.839,3,0.0,same
0,693,valid,"[(1160, 767)]",[],[1],[0.5],horizontal,"(390.0, 262.0)",1.05,0.466,1,5448.053,3,0.0,same
0,694,valid,"[(1160, 763)]",[],[1],[0.5666666666666667],horizontal,"(390.0, 762.0)",1.0166666666666666,0.528,1,5454.18,3,0.0,same
0,695,valid,"[(1161, 756)]",[],[1],[0.7],vertical,"(390.0, 762.0)",0.9333333333333333,0.655,1,5459.813,3,0.0,same
0,696,valid,"[(1163, 759)]",[],[1],[0.6],horizontal,"(890.0, 762.0)",0.9,0.561,1,5465.457,3,0.0,same
0,697,valid,"[(1146, 761)]",[],[1],[0.6],vertical,"(390.0, 262.0)",0.6333333333333333,0.559,1,5471.163,3,0.0,same
0,698,valid,"[(1152, 756)]",[],[1],[0.6166666666666667],horizontal,"(890.0, 762.0)",1.3166666666666667,0.574,1,5476.746,3,0.0,same
0,699,valid,"[(1161, 777)]",[],[1],[0.55],horizontal,"(390.0, 262.0)",1.2333333333333334,0.51,1,5482.813,3,0.0,same
0,700,catch,"[(1165, 771)]",[],[1],[],vertical,"(890.0, 262.0)",,"('fix', 0.05),nan",0,5489.872,0,0.02,same
0,701,valid,"[(1115, 800)]",[],[1],[0.3833333333333333],horizontal,"(390.0, 262.0)",1.4833333333333334,0.346,1,5491.662,1,0.02,same
0,702,catch,"[(1168, 765)]",[],[1],[],vertical,"(890.0, 262.0)",1.7,nan,1,5496.829,1,0.02,same
0,703,invalid_adjacent_other_bar,"[(1160, 778)]",[],[1],[0.5333333333333333],horizontal,"(890.0, 762.0)",0.5,0.492,1,5502.045,1,0.02,other
0,704,valid,"[(1162, 794)]",[],[1],[0.5833333333333334],horizontal,"(890.0, 762.0)",1.3,0.539,1,5506.639,2,0.02,same
0,705,valid,"[(1160, 760)]",[],[1],[0.7166666666666667],horizontal,"(390.0, 262.0)",1.25,0.669,1,5512.604,2,0.02,same
0,706,catch,"[(1160, 760)]",[],[1],[],horizontal,"(390.0, 262.0)",1.7,nan,1,5518.091,2,0.02,same
0,707,valid,"[(1165, 787)]",[],[1],[0.48333333333333334],vertical,"(890.0, 262.0)",1.2666666666666666,0.442,1,5523.957,3,0.02,same
0,708,invalid_same_bar,"[(1161, 762)]",[],[1],[0.65],vertical,"(890.0, 762.0)",1.05,0.604,1,5530.156,3,0.02,same
0,709,valid,"[(1161, 768)]",[],[1],[0.55],vertical,"(890.0, 762.0)",0.5333333333333333,0.51,1,5536.264,3,0.02,same
0,710,valid,"[(1150, 770)]",[],[1],[0.5333333333333333],horizontal,"(890.0, 262.0)",0.6333333333333333,0.487,1,5541.835,3,0.02,same
0,711,catch,"[(1136, 769)]",[],[1],[],vertical,"(390.0, 762.0)",1.7,nan,1,5547.659,3,0.02,same
0,712,catch,"[(1168, 762)]",[],[1],[],vertical,"(890.0, 762.0)",1.7,nan,1,5554.002,3,0.02,same
0,713,catch,"[(1162, 768)]",[],[1],[],vertical,"(890.0, 262.0)",1.7,nan,1,5560.162,3,0.02,same
0,714,valid,"[(1160, 766)]",[],[1],[0.55],vertical,"(390.0, 262.0)",0.9666666666666667,0.505,1,5566.395,3,0.02,same
0,715,valid,"[(1174, 754)]",[],[1],[0.6],vertical,"(390.0, 262.0)",0.55,0.555,1,5572.347,3,0.02,same
0,716,valid,"[(1165, 773)]",[],[1],[0.6666666666666666],vertical,"(890.0, 262.0)",0.55,0.628,1,5577.672,3,0.02,same
0,717,valid,"[(1162, 772)]",[],[1],[0.5666666666666667],horizontal,"(390.0, 262.0)",1.35,0.525,1,5583.366,3,0.02,same
0,718,valid,"[(1162, 782)]",[],[1],[0.6333333333333333],vertical,"(890.0, 762.0)",0.85,0.586,1,5589.497,3,0.02,same
0,719,invalid_same_bar,"[(1170, 776)]",[],[1],[0.5166666666666666],horizontal,"(890.0, 262.0)",1.1666666666666667,0.474,1,5595.56,3,0.02,same
0,720,invalid_adjacent_other_bar,"[(1176, 782)]",[],[1],[0.5666666666666667],horizontal,"(390.0, 762.0)",0.9833333333333333,0.519,1,5601.58,3,0.02,other
0,721,invalid_adjacent_other_bar,"[(1162, 792)]",[],[1],[0.6833333333333333],horizontal,"(890.0, 262.0)",0.6333333333333333,0.638,1,5607.163,3,0.02,other
0,722,valid,"[(1161, 771)]",[],[1],[0.6666666666666666],vertical,"(890.0, 262.0)",0.8666666666666667,0.628,1,5612.798,3,0.02,same
0,723,valid,"[(1165, 782)]",[],[1],[],vertical,"(890.0, 262.0)",,"('fix', 0.133)",0,5619.095,0,0.02,same
0,724,valid,"[(1130, 782)]",[],[1],[0.6],horizontal,"(890.0, 262.0)",1.2333333333333334,0.557,1,5620.682,1,0.02,same
0,725,valid,"[(1160, 753), (1126, 783)]",[],"[0, 1]",[0.5333333333333333],horizontal,"(890.0, 262.0)",1.4666666666666666,0.494,1,5626.288,1,0.02,same
0,726,catch,"[(1160, 770)]",[],[1],[],vertical,"(890.0, 762.0)",1.7,nan,1,5633.314,1,0.02,same
0,727,valid,"[(1137, 749), (1120, 791)]",[],"[0, 1]",[0.6666666666666666],horizontal,"(890.0, 262.0)",0.85,0.628,1,5638.313,2,0.02,same
0,728,valid,"[(1150, 769)]",[],[1],[0.5666666666666667],vertical,"(390.0, 262.0)",0.7833333333333333,0.535,1,5644.731,2,0.02,same
0,729,valid,"[(1146, 754)]",[],[1],[0.7333333333333333],vertical,"(890.0, 262.0)",0.9166666666666666,0.696,1,5649.781,2,0.02,same
0,730,invalid_same_bar,"[(1173, 762)]",[],[1],[0.43333333333333335],horizontal,"(890.0, 762.0)",1.4,0.394,1,5655.663,3,0.02,same
0,731,valid,"[(1165, 750), (1145, 800)]",[],"[0, 1]",[0.48333333333333334],vertical,"(390.0, 262.0)",1.4166666666666667,0.444,1,5661.823,3,0.02,same
0,732,catch,"[(1163, 768)]",[],[1],[],vertical,"(390.0, 762.0)",1.7,nan,1,5669.384,3,0.02,same
0,733,valid,"[(1160, 750), (1140, 802)]",[],"[0, 1]",[0.5333333333333333],horizontal,"(890.0, 762.0)",0.8666666666666667,0.507,1,5675.681,3,0.02,same
0,734,valid,"[(1175, 753), (1140, 805)]",[],"[0, 1]",[0.6],vertical,"(890.0, 762.0)",1.0,0.558,1,5682.57,3,0.02,same
0,735,valid,"[(1163, 771)]",[],[1],[0.55],horizontal,"(890.0, 262.0)",0.5166666666666666,0.508,1,5689.704,3,0.02,same
0,736,valid,"[(1161, 775)]",[],[1],[0.6333333333333333],horizontal,"(890.0, 262.0)",1.0,0.596,1,5695.144,3,0.02,same
0,737,valid,"[(1179, 765)]",[],[1],[0.65],vertical,"(390.0, 762.0)",1.5333333333333332,0.606,1,5701.262,3,0.02,same
0,738,valid,"[(1169, 769)]",[],[1],[0.7333333333333333],vertical,"(890.0, 762.0)",1.3166666666666667,0.691,1,5707.302,3,0.02,same
0,739,catch,"[(1175, 773)]",[],[1],[],vertical,"(390.0, 762.0)",1.7,nan,1,5713.769,3,0.02,same
0,740,valid,"[(1178, 778)]",[],[1],[0.7833333333333333],vertical,"(890.0, 262.0)",0.6666666666666666,0.74,1,5719.685,3,0.02,same
0,741,valid,"[(1175, 769)]",[],[1],[0.55],horizontal,"(890.0, 262.0)",0.36666666666666664,0.513,1,5725.332,3,0.02,same
0,742,catch,"[(1160, 757)]",[],[1],[],horizontal,"(390.0, 762.0)",1.7,nan,1,5730.756,3,0.02,same
0,743,valid,"[(1175, 764)]",[],[1],[0.4166666666666667],horizontal,"(390.0, 762.0)",1.2333333333333334,0.378,1,5737.119,3,0.02,same
0,744,catch,"[(1171, 756)]",[],[1],[],horizontal,"(390.0, 762.0)",1.7,nan,1,5742.748,3,0.02,same
0,745,valid,"[(1137, 777)]",[],[1],[0.7],vertical,"(890.0, 762.0)",1.45,0.656,1,5748.997,3,0.02,same
0,746,catch,"[(1159, 756)]",[],[1],[],vertical,"(890.0, 762.0)",1.7,nan,1,5755.281,3,0.02,same
0,747,catch,"[(1146, 759)]",[],[1],[],horizontal,"(890.0, 762.0)",1.7,nan,1,5761.34,3,0.02,same
0,748,catch,"[(1171, 786)]",[],[1],[],horizontal,"(890.0, 262.0)",1.7,"('cti', 1.707),nan",0,5767.808,0,0.04,same
0,749,valid,"[(1093, 781)]",[],[1],[0.85],vertical,"(390.0, 262.0)",0.6833333333333333,nan,0,5772.697,0,0.04,same
0,750,invalid_adjacent_other_bar,"[(1105, 816)]",[],[1],[0.85],horizontal,"(890.0, 762.0)",0.6666666666666666,nan,0,5930.593,0,0.02,other
0,751,catch,"[(1105, 812)]",[],[1],[],vertical,"(390.0, 262.0)",1.7,nan,1,5938.054,1,0.02,same
0,752,valid,"[(1119, 816)]",[],[1],[0.85],vertical,"(890.0, 262.0)",0.45,nan,0,5943.827,0,0.02,same
0,753,valid,"[(1135, 787)]",[],[1],[0.5666666666666667],horizontal,"(390.0, 262.0)",0.5166666666666666,0.524,1,5948.093,1,0.02,same
0,754,catch,"[(1142, 769)]",[],[1],[],horizontal,"(390.0, 762.0)",1.7,nan,1,5952.657,1,0.02,same
0,755,valid,"[(1132, 791)]",[],[1],[0.75],horizontal,"(890.0, 762.0)",0.7666666666666666,0.7,1,5958.67,1,0.02,same
0,756,catch,"[(1162, 773)]",[],[1],[],horizontal,"(890.0, 262.0)",1.7,nan,1,5963.491,2,0.02,same
0,757,catch,"[(1164, 755)]",[],[1],[],horizontal,"(390.0, 262.0)",1.7,nan,1,5968.949,2,0.02,same
0,758,catch,"[(1180, 773)]",[],[1],[],vertical,"(390.0, 262.0)",1.7,nan,1,5974.59,2,0.02,same
0,759,valid,"[(1156, 783)]",[],[1],[0.6333333333333333],vertical,"(890.0, 762.0)",0.8166666666666667,0.589,1,5980.696,3,0.02,same
0,760,valid,"[(1158, 787)]",[],[1],[0.5166666666666666],horizontal,"(890.0, 762.0)",0.4166666666666667,0.475,1,5986.804,3,0.02,same
0,761,valid,"[(1140, 783)]",[],[1],[0.5666666666666667],vertical,"(890.0, 762.0)",0.95,0.522,1,5991.845,3,0.02,same
0,762,valid,"[(1155, 758)]",[],[1],[0.5333333333333333],horizontal,"(390.0, 262.0)",0.7333333333333333,0.49,1,5997.781,3,0.02,same
0,763,valid,"[(1130, 785)]",[],[1],[0.55],horizontal,"(890.0, 762.0)",0.9833333333333333,0.505,1,6003.481,3,0.02,same
0,764,catch,"[(1141, 779)]",[],[1],[],horizontal,"(390.0, 762.0)",1.7,nan,1,6009.715,3,0.02,same
0,765,valid,"[(1140, 763)]",[],[1],[0.65],vertical,"(890.0, 762.0)",1.4833333333333334,0.607,1,6016.282,3,0.02,same
0,766,valid,"[(1158, 770)]",[],[1],[0.55],horizontal,"(390.0, 262.0)",1.0333333333333332,0.508,1,6022.465,3,0.02,same
0,767,catch,"[(1180, 782)]",[],[1],[],horizontal,"(890.0, 762.0)",,"('fix', 0.536),nan",0,6028.52,0,0.04,same
0,768,catch,"[(1125, 803)]",[],[1],[],vertical,"(890.0, 262.0)",1.7,nan,1,6030.932,1,0.04,same
0,769,valid,"[(1159, 771)]",[],[1],[0.5333333333333333],horizontal,"(890.0, 762.0)",1.3,0.493,1,6035.781,1,0.04,same
0,770,valid,"[(1170, 773)]",[],[1],[],vertical,"(890.0, 762.0)",,"('fix', 0.379)",0,6041.112,0,0.04,same
0,771,valid,"[(1113, 796)]",[],[1],[0.7166666666666667],vertical,"(890.0, 262.0)",0.9166666666666666,0.666,1,6042.915,1,0.04,same
0,772,valid,"[(1161, 758)]",[],[1],[0.85],horizontal,"(390.0, 762.0)",0.36666666666666664,nan,0,6047.955,0,0.04,same
0,773,valid,"[(1140, 767)]",[],[1],[0.13333333333333333],horizontal,"(890.0, 262.0)",1.2833333333333332,0.102,0,6052.015,0,0.04,same
0,774,valid,"[(1136, 778)]",[],[1],[0.5666666666666667],vertical,"(890.0, 762.0)",1.2,0.526,1,6056.921,1,0.04,same
0,775,catch,"[(1184, 778)]",[],[1],[],horizontal,"(890.0, 262.0)",1.7,nan,1,6062.197,1,0.04,same
0,776,valid,"[(1152, 744), (1135, 817)]",[],"[0, 1]",[0.6166666666666667],horizontal,"(390.0, 262.0)",0.7333333333333333,0.579,1,6067.582,1,0.04,same
0,777,valid,"[(1159, 755)]",[],[1],[0.5666666666666667],horizontal,"(390.0, 762.0)",0.35,0.527,1,6073.181,2,0.04,same
0,778,valid,"[(1135, 778)]",[],[1],[0.6333333333333333],vertical,"(390.0, 762.0)",1.45,0.599,1,6077.847,2,0.04,same
0,779,invalid_same_bar,"[(1153, 769)]",[],[1],[0.65],horizontal,"(390.0, 762.0)",0.9166666666666666,0.605,1,6083.855,2,0.04,same
0,780,invalid_same_bar,"[(1183, 773)]",[],[1],[],vertical,"(390.0, 762.0)",,"('fix', 0.069)",0,6089.248,0,0.04,same
0,781,valid,"[(1138, 802)]",[],[1],[0.5666666666666667],horizontal,"(890.0, 762.0)",0.4,0.523,1,6090.713,1,0.04,same
0,782,invalid_same_bar,"[(1161, 744), (1103, 799)]",[],"[0, 1]",[0.6166666666666667],vertical,"(390.0, 262.0)",0.6666666666666666,0.591,1,6095.07,1,0.04,same
0,783,catch,"[(1160, 763)]",[],[1],[],horizontal,"(890.0, 762.0)",1.7,nan,1,6101.109,1,0.04,same
0,784,valid,"[(1145, 785)]",[],[1],[0.7],horizontal,"(890.0, 262.0)",0.5166666666666666,0.667,1,6106.712,2,0.04,same
0,785,valid,"[(1157, 773)]",[],[1],[0.85],vertical,"(390.0, 762.0)",0.5166666666666666,nan,0,6112.146,0,0.04,same
0,786,catch,"[(1139, 769)]",[],[1],[],vertical,"(890.0, 762.0)",1.7,nan,1,6116.916,1,0.04,same
0,787,valid,"[(1136, 782)]","[(1141, 808)]",[1],[0.26666666666666666],horizontal,"(890.0, 262.0)",,"('bar', 0.28)",0,6122.56,0,0.04,same
0,788,catch,"[(1115, 782)]",[],[1],[],horizontal,"(890.0, 762.0)",1.7,nan,1,6125.065,1,0.04,same
0,789,valid,"[(1172, 775)]",[],[1],[0.75],horizontal,"(390.0, 762.0)",1.1666666666666667,0.709,1,6130.488,1,0.04,same
0,790,catch,"[(1135, 782)]",[],[1],[],horizontal,"(390.0, 262.0)",1.7,nan,1,6136.096,1,0.04,same
0,791,valid,"[(1135, 783)]",[],[1],[0.4666666666666667],horizontal,"(390.0, 762.0)",1.4833333333333334,0.432,1,6141.615,2,0.04,same
0,792,valid,"[(1141, 787)]",[],[1],[0.6166666666666667],vertical,"(890.0, 762.0)",0.65,0.576,1,6147.83,2,0.04,same
0,793,valid,"[(1131, 778)]",[],[1],[0.6333333333333333],vertical,"(390.0, 262.0)",0.6166666666666667,0.591,1,6153.382,2,0.04,same
0,794,catch,"[(1155, 779)]",[],[1],[],vertical,"(390.0, 262.0)",1.7,nan,1,6158.647,3,0.04,same
0,795,valid,"[(1136, 777)]",[],[1],[0.75],vertical,"(390.0, 262.0)",0.5666666666666667,0.705,1,6164.884,3,0.04,same
0,796,catch,"[(1150, 754)]",[],[1],[],horizontal,"(890.0, 262.0)",1.7,nan,1,6170.335,3,0.04,same
0,797,valid,"[(1157, 781)]",[],[1],[0.5666666666666667],vertical,"(890.0, 762.0)",0.65,0.528,1,6176.635,3,0.04,same
0,798,invalid_same_bar,"[(1160, 759)]",[],[1],[0.6],horizontal,"(890.0, 762.0)",0.7666666666666666,0.567,1,6182.265,3,0.02,same
0,799,valid,"[(1135, 778)]",[],[1],[0.55],horizontal,"(890.0, 762.0)",0.4666666666666667,0.518,1,6188.172,3,0.02,same
0,800,catch,"[(1166, 782)]",[],[1],[],vertical,"(890.0, 762.0)",1.7,nan,1,6193.433,3,0.02,same
0,801,catch,"[(1168, 762)]",[],[1],[],vertical,"(390.0, 262.0)",1.7,nan,1,6199.549,3,0.02,same
0,802,valid,"[(1146, 760)]",[],[1],[0.65],vertical,"(890.0, 262.0)",0.6833333333333333,0.611,1,6205.835,3,0.02,same
0,803,valid,"[(1153, 760)]",[],[1],[0.5166666666666666],vertical,"(390.0, 762.0)",1.5166666666666666,0.475,1,6211.397,3,0.02,same
0,804,catch,"[(1165, 776)]",[],[1],[],vertical,"(390.0, 262.0)",1.7,nan,1,6218.129,3,0.02,same
0,805,valid,"[(1150, 781)]",[],[1],[0.4666666666666667],horizontal,"(390.0, 762.0)",0.7166666666666667,0.433,1,6224.365,3,0.02,same
0,806,valid,"[(1160, 755)]",[],[1],[0.6],horizontal,"(390.0, 262.0)",1.4166666666666667,0.562,1,6229.975,3,0.02,same
0,807,valid,"[(1161, 787)]",[],[1],[0.5833333333333334],vertical,"(890.0, 262.0)",1.0666666666666667,0.54,1,6236.181,3,0.02,same
0,808,valid,"[(1165, 769)]",[],[1],[0.6833333333333333],vertical,"(890.0, 262.0)",1.35,0.644,1,6241.865,3,0.02,same
0,809,catch,"[(1138, 794)]",[],[1],[],vertical,"(390.0, 762.0)",1.7,nan,1,6248.308,3,0.02,same
0,810,invalid_adjacent_other_bar,"[(1165, 771)]",[],[1],[0.85],vertical,"(390.0, 762.0)",1.25,nan,0,6254.362,0,0.02,other
0,811,valid,"[(1128, 787)]",[],[1],[0.6166666666666667],vertical,"(890.0, 762.0)",1.2166666666666666,0.584,1,6259.084,1,0.02,same
0,812,valid,"[(1135, 755)]",[],[1],[0.65],vertical,"(390.0, 262.0)",0.4,0.608,1,6264.881,1,0.02,same
0,813,valid,"[(1164, 758)]",[],[1],[0.7166666666666667],horizontal,"(390.0, 762.0)",0.85,0.677,1,6269.964,1,0.02,same
0,814,invalid_adjacent_other_bar,"[(1158, 776)]",[],[1],[0.85],horizontal,"(390.0, 262.0)",1.1666666666666667,nan,0,6275.222,0,0.02,other
0,815,catch,"[(1135, 773)]",[],[1],[],horizontal,"(390.0, 262.0)",1.7,nan,1,6280.009,1,0.02,same
0,816,catch,"[(1155, 765)]",[],[1],[],vertical,"(390.0, 262.0)",1.7,nan,1,6285.099,1,0.02,same
0,817,catch,"[(1160, 750), (1126, 797)]",[],"[0, 1]",[],vertical,"(890.0, 262.0)",1.7,nan,1,6290.097,1,0.0,same
0,818,valid,"[(1170, 769)]",[],[1],[0.65],horizontal,"(390.0, 262.0)",1.3666666666666667,0.609,1,6297.603,2,0.0,same
0,819,valid,"[(1160, 764)]",[],[1],[0.48333333333333334],horizontal,"(890.0, 762.0)",1.4333333333333333,0.439,1,6303.331,2,0.0,same
0,820,catch,"[(1154, 781)]",[],[1],[],vertical,"(390.0, 762.0)",1.7,nan,1,6309.226,2,0.0,same
0,821,valid,"[(1175, 760)]",[],[1],[0.5666666666666667],horizontal,"(890.0, 262.0)",0.7833333333333333,0.531,1,6315.182,3,0.0,same
0,822,valid,"[(1160, 765)]",[],[1],[0.6166666666666667],horizontal,"(890.0, 262.0)",1.2166666666666666,0.574,1,6320.531,3,0.0,same
0,823,invalid_adjacent_other_bar,"[(1163, 767)]",[],[1],[0.5333333333333333],horizontal,"(890.0, 262.0)",1.2666666666666666,0.491,1,6326.699,3,0.0,other
0,824,catch,"[(1150, 763)]",[],[1],[],vertical,"(390.0, 762.0)",1.7,nan,1,6332.682,3,0.0,same
0,825,catch,"[(1160, 761)]",[],[1],[],horizontal,"(890.0, 262.0)",1.7,nan,1,6338.87,3,0.0,same
0,826,catch,"[(1158, 765)]",[],[1],[],vertical,"(390.0, 762.0)",1.7,nan,1,6345.064,3,0.0,same
0,827,catch,"[(1163, 768)]",[],[1],[],vertical,"(890.0, 762.0)",1.7,nan,1,6351.041,3,0.0,same
0,828,catch,"[(1156, 763)]",[],[1],[],vertical,"(390.0, 262.0)",1.7,nan,1,6357.531,3,0.0,same
0,829,valid,"[(1157, 773)]",[],[1],[0.55],horizontal,"(890.0, 262.0)",0.4666666666666667,0.509,1,6363.348,3,0.0,same
0,830,valid,"[(1160, 786)]",[],[1],[0.65],vertical,"(390.0, 762.0)",0.7333333333333333,0.603,1,6368.915,3,0.0,same
0,831,catch,"[(1144, 756)]",[],[1],[],vertical,"(890.0, 262.0)",1.7,nan,1,6374.848,3,0.0,same
0,832,valid,"[(1160, 762)]",[],[1],[0.5666666666666667],horizontal,"(390.0, 762.0)",1.4833333333333334,0.526,1,6381.066,3,0.0,same
0,833,valid,"[(1160, 775)]",[],[1],[0.6],horizontal,"(390.0, 262.0)",1.1,0.552,1,6387.231,3,0.0,same
0,834,catch,"[(1145, 764)]",[],[1],[],horizontal,"(890.0, 262.0)",,"('fix', 0.133),nan",0,6393.316,0,0.02,same
0,835,valid,"[(1128, 792)]",[],[1],[0.6833333333333333],horizontal,"(890.0, 762.0)",1.2833333333333332,0.637,1,6394.816,1,0.02,same
0,836,valid,"[(1119, 783)]",[],[1],[0.5833333333333334],horizontal,"(890.0, 262.0)",0.4666666666666667,0.538,1,6400.247,1,0.02,same
0,837,catch,"[(1160, 773)]",[],[1],[],vertical,"(890.0, 762.0)",1.7,nan,1,6409.449,1,0.02,same
0,838,valid,"[(1142, 802)]",[],[1],[0.85],horizontal,"(890.0, 262.0)",0.65,nan,0,6414.693,0,0.02,same
0,839,valid,"[(1141, 769)]",[],[1],[0.55],vertical,"(390.0, 762.0)",0.3833333333333333,0.509,1,6419.281,1,0.02,same
0,840,catch,"[(1158, 769)]",[],[1],[],vertical,"(890.0, 762.0)",1.7,nan,1,6423.982,1,0.02,same
0,841,catch,"[(1176, 778)]",[],[1],[],horizontal,"(390.0, 762.0)",1.7,nan,1,6429.447,1,0.02,same
0,842,catch,"[(1173, 772)]",[],[1],[],horizontal,"(890.0, 262.0)",1.7,nan,1,6434.986,2,0.02,same
0,843,catch,"[(1160, 764)]",[],[1],[],vertical,"(890.0, 262.0)",1.7,nan,1,6440.648,2,0.02,same
0,844,catch,"[(1171, 781)]",[],[1],[],vertical,"(890.0, 262.0)",1.7,nan,1,6446.528,2,0.02,same
0,845,valid,"[(1157, 765)]",[],[1],[0.85],horizontal,"(390.0, 762.0)",1.05,nan,0,6452.198,0,0.02,same
0,846,valid,"[(1133, 807)]",[],[1],[0.5666666666666667],vertical,"(890.0, 262.0)",1.5,0.524,1,6456.915,1,0.02,same
0,847,catch,"[(1175, 758)]",[],[1],[],vertical,"(390.0, 262.0)",1.7,nan,1,6466.842,1,0.02,same
0,848,valid,"[(1157, 748), (1114, 783)]",[],"[0, 1]",[0.55],vertical,"(390.0, 762.0)",0.6833333333333333,0.507,1,6472.082,1,0.02,same
0,849,valid,"[(1148, 769)]",[],[1],[0.5666666666666667],vertical,"(890.0, 762.0)",1.0,0.529,1,6478.199,2,0.02,same
0,850,invalid_adjacent_other_bar,"[(1136, 776)]",[],[1],[0.5333333333333333],horizontal,"(390.0, 762.0)",0.8666666666666667,0.496,1,6483.497,2,0.02,other
