block,practice,trial,change_interval_s,change_interval_frames,taps_start_time_during_fix,taps_end_time_during_fix,taps_start_loc_during_fix,taps_end_loc_during_fix,taps_on_lever_during_fix,taps_on_lever_frame_during_fix,taps_on_lever_s_during_fix,fix_xy,bar_orientation,target_xy,cti,rt,acc,time
1,True,1,1.181,70,[],[],"[(1102, 803)]",[],[1],[],[],"[640.0, 512.0]",horizontal,"(890.0, 762.0)",[],[0],0,0.37
1,True,2,0.736,44,[],[],"[(1128, 827)]",[],[1],[26],[0.43333333333333335],"[640.0, 512.0]",horizontal,"(890.0, 762.0)",[0.6833333333333333],[0.392],1,15.761
1,True,3,1.156,69,[],[],"[(1171, 810)]",[],[1],[29],[0.48333333333333334],"[640.0, 512.0]",vertical,"(390.0, 262.0)",[0.9666666666666667],[0.441],1,19.624
1,True,4,0.75,45,[],[],"[(1131, 823)]",[],[1],[28],[0.4666666666666667],"[640.0, 512.0]",horizontal,"(390.0, 262.0)",[1.05],[0.424],1,37.992
1,False,1,0.968,58,[],[],"[(1196, 906)]",[],[1],[31],[0.5166666666666666],"[640.0, 512.0]",vertical,"(890.0, 262.0)",[0.75],[0.47],1,292.953
1,False,2,0.563,33,[],[],"[(1110, 854)]",[],[1],[35],[0.5833333333333334],"[640.0, 512.0]",horizontal,"(390.0, 262.0)",[0.8333333333333334],[0.549],1,555.724
1,False,3,0.665,39,[],[],"[(1104, 893)]",[],[1],[30],[0.5],"[640.0, 512.0]",vertical,"(390.0, 262.0)",[0.6166666666666667],[0.464],1,559.64
1,False,4,0.919,55,[],[],"[(1105, 887)]",[],[1],[36],[0.6],"[640.0, 512.0]",vertical,"(890.0, 262.0)",[1.1166666666666667],[0.553],1,564.333
1,False,5,1.061,63,[],[],"[(1091, 879)]",[],[1],[32],[0.5333333333333333],"[640.0, 512.0]",horizontal,"(890.0, 762.0)",[1.05],[0.492],1,568.915
1,False,6,0.79,47,[],[],"[(1120, 887)]",[],[1],[35],[0.5833333333333334],"[640.0, 512.0]",horizontal,"(890.0, 762.0)",[1.6833333333333333],[0.538],1,573.513
1,False,7,0.96,57,[],[],"[(1115, 881)]",[],[1],[37],[0.6166666666666667],"[640.0, 512.0]",vertical,"(390.0, 762.0)",[1.5],[0.572],1,579.399
1,False,8,1.027,61,[],[],"[(1119, 878)]",[],[1],[32],[0.5333333333333333],"[640.0, 512.0]",vertical,"(390.0, 762.0)",[1.4166666666666667],[0.493],1,584.372
1,False,9,0.978,58,[],[],"[(1108, 870)]",[],[1],[34],[0.5666666666666667],"[640.0, 512.0]",horizontal,"(390.0, 262.0)",[1.6333333333333333],[0.524],1,589.122
1,False,10,1.119,67,[],[],"[(1118, 864)]",[],[1],[38],[0.6333333333333333],"[640.0, 512.0]",horizontal,"(890.0, 262.0)",[1.3],[0.589],1,594.027
1,False,11,0.781,46,[],[],"[(1143, 883)]",[],[1],[29],[0.48333333333333334],"[640.0, 512.0]",vertical,"(890.0, 262.0)",[1.2],[0.44],1,598.911
1,False,12,0.677,40,[],[],"[(1137, 866)]",[],[1],[34],[0.5666666666666667],"[640.0, 512.0]",vertical,"(390.0, 762.0)",[0.9666666666666667],[0.53],1,603.311
1,False,13,0.913,54,[],[],"[(1121, 850)]",[],[1],[32],[0.5333333333333333],"[640.0, 512.0]",vertical,"(890.0, 262.0)",[1.25],[0.489],1,607.415
1,False,14,0.826,49,[],[],"[(1129, 844)]",[],[1],[36],[0.6],"[640.0, 512.0]",vertical,"(890.0, 762.0)",[1.4833333333333334],[0.564],1,612.049
1,False,15,0.905,54,[],[],"[(1123, 860)]",[],[1],[35],[0.5833333333333334],"[640.0, 512.0]",horizontal,"(890.0, 762.0)",[0.8666666666666667],[0.537],1,616.712
1,False,16,1.035,62,[],[],"[(1140, 863)]",[],[1],[37],[0.6166666666666667],"[640.0, 512.0]",horizontal,"(390.0, 762.0)",[1.2666666666666666],[0.574],1,620.898
1,False,17,1.033,61,[],[],"[(1123, 862)]",[],[1],[30],[0.5],"[640.0, 512.0]",horizontal,"(390.0, 262.0)",[1.1],[0.461],1,625.847
1,False,18,1.18,70,[],[],"[(1087, 875)]",[],[1],[33],[0.55],"[640.0, 512.0]",vertical,"(890.0, 262.0)",[1.3333333333333333],[0.506],1,630.328
1,False,19,1.093,65,[],[],"[(1119, 859)]",[],[1],[40],[0.6666666666666666],"[640.0, 512.0]",horizontal,"(390.0, 262.0)",[1.15],[0.626],1,635.284
1,False,20,1.079,64,[],[],"[(1154, 868)]",[],[1],[32],[0.5333333333333333],"[640.0, 512.0]",horizontal,"(890.0, 762.0)",[1.1166666666666667],[0.487],1,640.04
1,False,21,0.918,55,[],[],"[(1172, 854)]",[],[1],[39],[0.65],"[640.0, 512.0]",vertical,"(890.0, 262.0)",[1.45],[0.602],1,644.63
1,False,22,0.926,55,[],[],"[(1150, 852)]",[],[1],[39],[0.65],"[640.0, 512.0]",vertical,"(390.0, 262.0)",[1.4666666666666666],[0.605],1,649.63
1,False,23,0.78,46,[],[],"[(1166, 860)]",[],[1],[33],[0.55],"[640.0, 512.0]",vertical,"(890.0, 762.0)",[0.7166666666666667],[0.509],1,654.54
1,False,24,0.679,40,[],[],"[(1174, 855)]",[],[1],[33],[0.55],"[640.0, 512.0]",horizontal,"(390.0, 262.0)",[0.7333333333333333],[0.507],1,658.411
1,False,25,0.563,33,[],[],"[(1166, 862)]",[],[1],[33],[0.55],"[640.0, 512.0]",vertical,"(890.0, 262.0)",[1.3],[0.51],1,662.236
1,False,26,0.945,56,[],[],"[(1159, 850)]",[],[1],[33],[0.55],"[640.0, 512.0]",horizontal,"(890.0, 262.0)",[1.6166666666666667],[0.508],1,666.435
1,False,27,1.001,60,[],[],"[(1157, 855)]",[],[1],[33],[0.55],"[640.0, 512.0]",vertical,"(390.0, 262.0)",[1.1833333333333333],[0.512],1,671.469
1,False,28,0.713,42,[],[],"[(1153, 857)]",[],[1],[33],[0.55],"[640.0, 512.0]",horizontal,"(890.0, 762.0)",[0.8833333333333333],[0.515],1,676.0
1,False,29,0.554,33,[],[],"[(1123, 874)]",[],[1],[36],[0.6],"[640.0, 512.0]",vertical,"(890.0, 262.0)",[0.8833333333333333],[0.574],1,679.959
1,False,30,0.737,44,[],[],"[(1152, 857)]",[],[1],[35],[0.5833333333333334],"[640.0, 512.0]",horizontal,"(890.0, 762.0)",[1.2666666666666666],[0.538],1,683.994
1,False,31,0.778,46,[],[],"[(1143, 847)]",[],[1],[32],[0.5333333333333333],"[640.0, 512.0]",horizontal,"(890.0, 762.0)",[0.6666666666666666],[0.496],1,688.476
1,False,32,1.143,68,[],[],"[(1156, 855)]",[],[1],[34],[0.5666666666666667],"[640.0, 512.0]",horizontal,"(390.0, 762.0)",[0.95],[0.53],1,692.449
1,False,33,0.668,40,[],[],"[(1113, 857)]",[],[1],[8],[0.13333333333333333],"[640.0, 512.0]",horizontal,"(390.0, 262.0)",[0.9666666666666667],[0.101],1,696.972
1,False,34,0.534,32,[],[],"[(1131, 855)]",[],[1],[39],[0.65],"[640.0, 512.0]",vertical,"(390.0, 762.0)",[1.3],[0.615],1,700.72
1,False,35,0.793,47,[],[],"[(1101, 870)]",[],[1],[],[],"[640.0, 512.0]",horizontal,"(390.0, 262.0)",[],[0],0,705.078
1,False,36,0.739,44,[],[],"[(1148, 855)]",[],[1],[31],[0.5166666666666666],"[640.0, 512.0]",horizontal,"(390.0, 262.0)",[1.1166666666666667],[0.477],1,709.035
1,False,37,0.502,30,[],[],"[(1130, 868)]",[],[1],[37],[0.6166666666666667],"[640.0, 512.0]",vertical,"(890.0, 262.0)",[1.4833333333333334],[0.576],1,713.269
1,False,38,1.032,61,[],[],"[(1177, 869)]",[],[1],[33],[0.55],"[640.0, 512.0]",horizontal,"(390.0, 762.0)",[0.7166666666666667],[0.512],1,717.724
1,False,39,1.196,71,[],[],"[(1148, 859)]",[],[1],[39],[0.65],"[640.0, 512.0]",vertical,"(390.0, 262.0)",[1.1333333333333333],[0.608],1,722.028
1,False,40,0.584,35,[],[],"[(1087, 873)]",[],[1],[36],[0.6],"[640.0, 512.0]",horizontal,"(390.0, 762.0)",[0.6166666666666667],[0.564],1,726.76
1,False,41,0.641,38,[],[],"[(1138, 855)]",[],[1],[39],[0.65],"[640.0, 512.0]",horizontal,"(890.0, 262.0)",[1.5166666666666666],[0.601],1,730.423
1,False,42,1.091,65,[],[],"[(1123, 875)]",[],[1],[35],[0.5833333333333334],"[640.0, 512.0]",vertical,"(890.0, 762.0)",[1.0833333333333333],[0.541],1,735.133
1,False,43,1.176,70,[],[],"[(1124, 874)]",[],[1],[33],[0.55],"[640.0, 512.0]",vertical,"(890.0, 262.0)",[1.3],[0.503],1,739.797
1,False,44,0.828,49,[],[],"[(1130, 854)]",[],[1],[34],[0.5666666666666667],"[640.0, 512.0]",horizontal,"(390.0, 762.0)",[1.0166666666666666],[0.519],1,744.617
1,False,45,0.916,54,[],[],"[(1113, 851)]",[],[1],[33],[0.55],"[640.0, 512.0]",vertical,"(890.0, 762.0)",[1.6666666666666667],[0.504],1,748.845
1,False,46,0.561,33,[],[],"[(1140, 853)]",[],[1],[31],[0.5166666666666666],"[640.0, 512.0]",horizontal,"(390.0, 262.0)",[0.7333333333333333],[0.478],1,753.861
1,False,47,0.585,35,[],[],"[(1102, 854)]",[],[1],[38],[0.6333333333333333],"[640.0, 512.0]",horizontal,"(890.0, 262.0)",[1.6],[0.589],1,757.584
1,False,48,0.54,32,[],[],"[(1136, 879)]",[],[1],[32],[0.5333333333333333],"[640.0, 512.0]",vertical,"(390.0, 762.0)",[0.8166666666666667],[0.496],1,762.206
1,False,49,0.841,50,[],[],"[(1148, 872)]",[],[1],[32],[0.5333333333333333],"[640.0, 512.0]",vertical,"(390.0, 262.0)",[1.2833333333333332],[0.492],1,767.447
1,False,50,0.58,34,[],[],"[(1087, 874)]",[],[1],[39],[0.65],"[640.0, 512.0]",vertical,"(890.0, 762.0)",[1.25],[0.612],1,773.349
1,False,51,1.084,65,[],[],"[(1117, 877)]",[],[1],[],[],"[640.0, 512.0]",horizontal,"(390.0, 262.0)",[],[0],0,777.833
1,False,52,1.053,63,[],[],"[(1114, 852)]",[],[1],[33],[0.55],"[640.0, 512.0]",vertical,"(890.0, 262.0)",[1.5333333333333332],[0.513],1,781.533
1,False,53,0.949,56,[],[],"[(1123, 869)]",[],[1],[32],[0.5333333333333333],"[640.0, 512.0]",vertical,"(390.0, 762.0)",[0.6166666666666667],[0.492],1,787.311
1,False,54,0.65,39,[],[],"[(1117, 856)]",[],[1],[29],[0.48333333333333334],"[640.0, 512.0]",horizontal,"(390.0, 262.0)",[1.0666666666666667],[0.443],1,791.356
1,False,55,0.931,55,[],[],"[(1114, 851)]",[],[1],[29],[0.48333333333333334],"[640.0, 512.0]",horizontal,"(390.0, 262.0)",[1.4],[0.444],1,795.595
1,False,56,0.974,58,[],[],"[(1148, 850)]",[],[1],[34],[0.5666666666666667],"[640.0, 512.0]",horizontal,"(890.0, 262.0)",[1.0],[0.524],1,800.327
1,False,57,0.767,46,[],[],"[(1127, 850)]",[],[1],[32],[0.5333333333333333],"[640.0, 512.0]",vertical,"(390.0, 262.0)",[0.95],[0.491],1,804.894
1,False,58,1.109,66,[],[],"[(1149, 871)]",[],[1],[40],[0.6666666666666666],"[640.0, 512.0]",vertical,"(890.0, 762.0)",[0.7833333333333333],[0.625],1,809.149
1,False,59,0.6,36,[],[],"[(1113, 856)]",[],[1],[36],[0.6],"[640.0, 512.0]",vertical,"(890.0, 762.0)",[1.0],[0.554],1,813.632
1,False,60,1.044,62,[],[],"[(1100, 860)]",[],[1],[39],[0.65],"[640.0, 512.0]",horizontal,"(890.0, 762.0)",[1.3],[0.607],1,817.74
2,False,61,0.639,38,[],[],"[(1115, 856)]",[],[1],[34],[0.5666666666666667],"[640.0, 512.0]",vertical,"(390.0, 762.0)",[1.3333333333333333],[0.521],1,822.546
2,False,62,0.867,52,[],[],"[(1105, 858)]",[],[1],[32],[0.5333333333333333],"[640.0, 512.0]",vertical,"(890.0, 262.0)",[0.7833333333333333],[0.49],1,827.096
2,False,63,0.959,57,[],[],"[(1111, 850)]",[],[1],[36],[0.6],"[640.0, 512.0]",vertical,"(890.0, 262.0)",[0.55],[0.554],1,831.286
2,False,64,0.669,40,[],[],"[(1111, 850)]",[],[1],[34],[0.5666666666666667],"[640.0, 512.0]",vertical,"(390.0, 762.0)",[1.0833333333333333],[0.526],1,835.38
2,False,65,0.924,55,[],[],"[(1111, 850)]",[],[1],[39],[0.65],"[640.0, 512.0]",vertical,"(390.0, 762.0)",[1.35],[0.606],1,839.76
2,False,66,1.103,66,[],[],"[(1111, 851)]",[],[1],[38],[0.6333333333333333],"[640.0, 512.0]",horizontal,"(890.0, 262.0)",[0.5666666666666667],[0.585],1,844.538
2,False,67,1.095,65,[],[],"[(1096, 876)]",[],[1],[51],[0.85],"[640.0, 512.0]",horizontal,"(390.0, 262.0)",[1.4],[0.802],0,848.808
2,False,68,0.866,51,[],[],"[(1160, 873)]",[],[1],[37],[0.6166666666666667],"[640.0, 512.0]",vertical,"(390.0, 262.0)",[1.2],[0.574],1,854.116
2,False,69,0.778,46,[],[],"[(1123, 859)]",[],[1],[38],[0.6333333333333333],"[640.0, 512.0]",vertical,"(390.0, 762.0)",[1.0666666666666667],[0.601],1,858.761
2,False,70,1.148,68,[],[],"[(1184, 870)]",[],[1],[32],[0.5333333333333333],"[640.0, 512.0]",vertical,"(890.0, 762.0)",[0.9],[0.5],1,863.252
2,False,71,0.808,48,[],[],"[(1118, 852)]",[],[1],[35],[0.5833333333333334],"[640.0, 512.0]",vertical,"(390.0, 262.0)",[1.1],[0.542],1,894.377
2,False,72,1.037,62,[],[],"[(1098, 865)]",[],[1],[40],[0.6666666666666666],"[640.0, 512.0]",horizontal,"(390.0, 762.0)",[0.8666666666666667],[0.622],1,898.822
2,False,73,0.796,47,[],[],"[(1109, 865)]",[],[1],[40],[0.6666666666666666],"[640.0, 512.0]",vertical,"(390.0, 262.0)",[1.5666666666666667],[0.628],1,903.301
2,False,74,1.168,70,[],[],"[(1121, 874)]",[],[1],[33],[0.55],"[640.0, 512.0]",vertical,"(890.0, 262.0)",[0.6666666666666666],[0.512],1,908.251
2,False,75,1.035,62,[],[],"[(1113, 871)]",[],[1],[30],[0.5],"[640.0, 512.0]",horizontal,"(890.0, 262.0)",[1.35],[0.466],1,912.51
2,False,76,0.601,36,[],[],"[(1132, 876)]",[],[1],[37],[0.6166666666666667],"[640.0, 512.0]",vertical,"(890.0, 762.0)",[1.15],[0.572],1,917.277
2,False,77,0.621,37,[],[],"[(1080, 855)]",[],[1],[32],[0.5333333333333333],"[640.0, 512.0]",vertical,"(390.0, 262.0)",[0.8666666666666667],[0.494],1,921.596
2,False,78,0.853,51,[],[],"[(1112, 847)]",[],[1],[37],[0.6166666666666667],"[640.0, 512.0]",vertical,"(390.0, 262.0)",[0.8],[0.576],1,925.518
2,False,79,0.837,50,[],[],"[(1122, 864)]",[],[1],[39],[0.65],"[640.0, 512.0]",vertical,"(390.0, 262.0)",[1.1833333333333333],[0.606],1,929.8
2,False,80,1.196,71,[],[],"[(1087, 876)]",[],[1],[33],[0.55],"[640.0, 512.0]",horizontal,"(390.0, 762.0)",[0.6166666666666667],[0.516],1,934.432
2,False,81,0.862,51,[],[],"[(1123, 868)]",[],[1],[33],[0.55],"[640.0, 512.0]",horizontal,"(890.0, 762.0)",[1.6],[0.513],1,938.84
2,False,82,0.753,45,[],[],"[(1038, 893)]",[],[1],[39],[0.65],"[640.0, 512.0]",vertical,"(890.0, 262.0)",[0.8166666666666667],[0.606],1,943.727
2,False,83,0.654,39,[],[],"[(1080, 876)]",[],[1],[34],[0.5666666666666667],"[640.0, 512.0]",vertical,"(890.0, 762.0)",[1.0],[0.527],1,947.956
2,False,84,0.849,50,[],[],"[(1112, 863)]",[],[1],[37],[0.6166666666666667],"[640.0, 512.0]",horizontal,"(390.0, 262.0)",[0.8],[0.575],1,952.062
2,False,85,0.559,33,[],[],"[(1130, 877)]",[],[1],[34],[0.5666666666666667],"[640.0, 512.0]",horizontal,"(890.0, 262.0)",[1.4],[0.53],1,956.249
2,False,86,1.054,63,[],[],"[(1100, 859)]",[],[1],[30],[0.5],"[640.0, 512.0]",horizontal,"(890.0, 262.0)",[1.3666666666666667],[0.463],1,960.795
2,False,87,0.862,51,[],[],"[(1111, 868)]",[],[1],[34],[0.5666666666666667],"[640.0, 512.0]",vertical,"(890.0, 762.0)",[1.1333333333333333],[0.528],1,965.73
2,False,88,0.702,42,[],[],"[(1103, 886)]",[],[1],[34],[0.5666666666666667],"[640.0, 512.0]",horizontal,"(890.0, 762.0)",[1.35],[0.523],1,971.516
2,False,89,0.761,45,[],[],"[(1118, 863)]",[],[1],[36],[0.6],"[640.0, 512.0]",horizontal,"(890.0, 762.0)",[1.3],[0.566],1,976.183
2,False,90,0.505,30,[],[],"[(1111, 864)]",[],[1],[29],[0.48333333333333334],"[640.0, 512.0]",vertical,"(390.0, 262.0)",[1.5833333333333333],[0.446],1,980.774
2,False,91,0.899,53,[],[],"[(1093, 880)]",[],[1],[38],[0.6333333333333333],"[640.0, 512.0]",vertical,"(890.0, 262.0)",[1.3333333333333333],[0.59],1,985.195
2,False,92,0.76,45,[],[],"[(1130, 860)]",[],[1],[44],[0.7333333333333333],"[640.0, 512.0]",vertical,"(390.0, 762.0)",[0.8],[0.696],1,989.913
2,False,93,1.008,60,[],[],"[(1112, 865)]",[],[1],[32],[0.5333333333333333],"[640.0, 512.0]",horizontal,"(390.0, 262.0)",[1.2166666666666666],[0.494],1,994.185
2,False,94,0.908,54,[],[],"[(1117, 859)]",[],[1],[33],[0.55],"[640.0, 512.0]",horizontal,"(390.0, 262.0)",[1.0833333333333333],[0.516],1,998.878
2,False,95,1.154,69,[],[],"[(1111, 884)]",[],[1],[31],[0.5166666666666666],"[640.0, 512.0]",vertical,"(890.0, 262.0)",[1.3166666666666667],[0.476],1,1005.944
2,False,96,0.798,47,[],[],"[(1128, 870)]",[],[1],[43],[0.7166666666666667],"[640.0, 512.0]",vertical,"(890.0, 762.0)",[1.35],[0.682],1,1010.944
2,False,97,0.685,41,[],[],"[(1131, 851)]",[],[1],[35],[0.5833333333333334],"[640.0, 512.0]",vertical,"(890.0, 262.0)",[0.6833333333333333],[0.541],1,1015.728
2,False,98,0.958,57,[],[],"[(1103, 869)]",[],[1],[37],[0.6166666666666667],"[640.0, 512.0]",vertical,"(390.0, 262.0)",[0.55],[0.58],1,1019.733
2,False,99,0.611,36,[],[],"[(1129, 868)]",[],[1],[42],[0.7],"[640.0, 512.0]",vertical,"(890.0, 762.0)",[1.55],[0.655],1,1023.934
2,False,100,0.773,46,[],[],"[(1090, 864)]",[],[1],[34],[0.5666666666666667],"[640.0, 512.0]",horizontal,"(890.0, 762.0)",[1.3833333333333333],[0.527],1,1028.734
2,False,101,0.766,45,[],[],"[(1103, 859)]",[],[1],[30],[0.5],"[640.0, 512.0]",vertical,"(390.0, 262.0)",[1.15],[0.464],1,1033.474
2,False,102,0.914,54,[],[],"[(1121, 855)]",[],[1],[35],[0.5833333333333334],"[640.0, 512.0]",vertical,"(390.0, 762.0)",[1.5333333333333332],[0.551],1,1037.96
2,False,103,0.987,59,[],[],"[(1117, 879)]",[],[1],[35],[0.5833333333333334],"[640.0, 512.0]",vertical,"(890.0, 262.0)",[0.8],[0.541],1,1042.828
2,False,104,1.133,67,[],[],"[(1108, 867)]",[],[1],[39],[0.65],"[640.0, 512.0]",vertical,"(890.0, 262.0)",[1.3333333333333333],[0.61],1,1052.083
2,False,105,0.639,38,[],[],"[(1111, 867)]",[],[1],[35],[0.5833333333333334],"[640.0, 512.0]",vertical,"(390.0, 262.0)",[0.8833333333333333],[0.548],1,1057.172
2,False,106,1.153,69,[],[],"[(1132, 860)]",[],[1],[33],[0.55],"[640.0, 512.0]",vertical,"(390.0, 762.0)",[0.95],[0.509],1,1061.335
2,False,107,0.737,44,[],[],"[(1098, 860)]",[],[1],[35],[0.5833333333333334],"[640.0, 512.0]",horizontal,"(390.0, 762.0)",[0.7666666666666666],[0.542],1,1065.967
2,False,108,0.772,46,[],[],"[(1093, 863)]",[],[1],[35],[0.5833333333333334],"[640.0, 512.0]",horizontal,"(890.0, 762.0)",[1.0],[0.546],1,1069.971
2,False,109,0.55,33,[],[],"[(1087, 872)]",[],[1],[37],[0.6166666666666667],"[640.0, 512.0]",vertical,"(890.0, 762.0)",[1.2],[0.575],1,1074.291
2,False,110,0.891,53,[],[],"[(1088, 868)]",[],[1],[47],[0.7833333333333333],"[640.0, 512.0]",vertical,"(890.0, 262.0)",[0.5],[0.741],1,1078.617
2,False,111,0.953,57,[],[],"[(1109, 860)]",[],[1],[33],[0.55],"[640.0, 512.0]",vertical,"(890.0, 262.0)",[0.55],[0.509],1,1082.78
2,False,112,1.128,67,[],[],"[(1150, 881)]",[],[1],[32],[0.5333333333333333],"[640.0, 512.0]",vertical,"(890.0, 262.0)",[0.9],[0.494],1,1086.87
2,False,113,0.811,48,[],[],"[(1162, 872)]",[],[1],[31],[0.5166666666666666],"[640.0, 512.0]",horizontal,"(890.0, 262.0)",[1.2166666666666666],[0.474],1,1091.327
2,False,114,1.017,61,[],[],"[(1131, 860)]",[],[1],[32],[0.5333333333333333],"[640.0, 512.0]",horizontal,"(390.0, 262.0)",[1.3166666666666667],[0.5],1,1095.834
2,False,115,0.564,33,[],[],"[(1123, 873)]",[],[1],[33],[0.55],"[640.0, 512.0]",horizontal,"(390.0, 762.0)",[1.5666666666666667],[0.507],1,1100.596
2,False,116,0.706,42,[],[],"[(1136, 921)]",[],[1],[44],[0.7333333333333333],"[640.0, 512.0]",vertical,"(390.0, 262.0)",[0.7333333333333333],[0.689],1,1105.236
2,False,117,1.101,66,[],[],"[(1116, 870)]",[],[1],[41],[0.6833333333333333],"[640.0, 512.0]",vertical,"(390.0, 762.0)",[0.8333333333333334],[0.642],1,1162.48
2,False,118,0.772,46,[],[],"[(1096, 862)]",[],[1],[],[],"[640.0, 512.0]",vertical,"(390.0, 262.0)",[],[0],0,1166.984
2,False,119,1.093,65,[],[],"[(1160, 870)]",[],[1],[34],[0.5666666666666667],"[640.0, 512.0]",vertical,"(890.0, 762.0)",[0.6333333333333333],[0.523],1,1170.945
2,False,120,0.565,33,[],[],"[(1140, 870)]",[],[1],[34],[0.5666666666666667],"[640.0, 512.0]",vertical,"(390.0, 262.0)",[1.3],[0.524],1,1200.834
3,False,121,0.884,53,[],[],"[(1121, 859)]",[],[1],[35],[0.5833333333333334],"[640.0, 512.0]",horizontal,"(890.0, 762.0)",[0.7333333333333333],[0.537],1,1205.262
3,False,122,0.824,49,[],[],"[(1117, 860)]",[],[1],[35],[0.5833333333333334],"[640.0, 512.0]",horizontal,"(890.0, 762.0)",[1.1166666666666667],[0.538],1,1209.323
3,False,123,0.843,50,[],[],"[(1074, 880)]",[],[1],[37],[0.6166666666666667],"[640.0, 512.0]",horizontal,"(890.0, 262.0)",[0.5],[0.579],1,1213.7
3,False,124,0.723,43,[],[],"[(1107, 862)]",[],[1],[34],[0.5666666666666667],"[640.0, 512.0]",vertical,"(890.0, 262.0)",[0.6666666666666666],[0.542],1,1219.881
3,False,125,0.645,38,[],[],"[(1080, 884)]",[],[1],[34],[0.5666666666666667],"[640.0, 512.0]",horizontal,"(890.0, 762.0)",[0.5333333333333333],[0.524],1,1223.735
3,False,126,0.65,39,[],[],"[(1080, 855)]",[],[1],[32],[0.5333333333333333],"[640.0, 512.0]",vertical,"(390.0, 262.0)",[1.1833333333333333],[0.49],1,1227.513
3,False,127,0.799,47,[],[],"[(1089, 868)]",[],[1],[39],[0.65],"[640.0, 512.0]",vertical,"(390.0, 262.0)",[1.1166666666666667],[0.603],1,1231.743
3,False,128,0.59,35,[],[],"[(1098, 863)]",[],[1],[33],[0.55],"[640.0, 512.0]",vertical,"(890.0, 262.0)",[0.7166666666666667],[0.505],1,1236.301
3,False,129,1.145,68,[],[],"[(1123, 864)]",[],[1],[34],[0.5666666666666667],"[640.0, 512.0]",horizontal,"(390.0, 762.0)",[0.6166666666666667],[0.525],1,1240.125
3,False,130,0.759,45,[],[],"[(1173, 908)]",[],[1],[33],[0.55],"[640.0, 512.0]",vertical,"(390.0, 262.0)",[1.1166666666666667],[0.505],1,1244.267
3,False,131,0.535,32,[],[],"[(1148, 855)]",[],[1],[34],[0.5666666666666667],"[640.0, 512.0]",vertical,"(890.0, 262.0)",[1.6666666666666667],[0.527],1,1253.05
3,False,132,0.966,57,[],[],"[(1123, 854)]",[],[1],[34],[0.5666666666666667],"[640.0, 512.0]",horizontal,"(890.0, 262.0)",[1.0166666666666666],[0.523],1,1257.808
3,False,133,0.537,32,[],[],"[(1148, 868)]",[],[1],[37],[0.6166666666666667],"[640.0, 512.0]",horizontal,"(890.0, 262.0)",[0.6],[0.567],1,1263.046
3,False,134,0.692,41,[],[],"[(1134, 862)]",[],[1],[36],[0.6],"[640.0, 512.0]",horizontal,"(890.0, 762.0)",[1.1166666666666667],[0.552],1,1266.615
3,False,135,0.608,36,[],[],"[(1148, 850)]",[],[1],[38],[0.6333333333333333],"[640.0, 512.0]",horizontal,"(890.0, 762.0)",[1.6333333333333333],[0.591],1,1270.996
3,False,136,0.869,52,[],[],"[(1100, 873)]",[],[1],[40],[0.6666666666666666],"[640.0, 512.0]",horizontal,"(390.0, 262.0)",[0.65],[0.617],1,1275.731
3,False,137,0.595,35,[],[],"[(1117, 855)]",[],[1],[29],[0.48333333333333334],"[640.0, 512.0]",horizontal,"(390.0, 262.0)",[1.6333333333333333],[0.442],1,1280.067
3,False,138,0.88,52,[],[],"[(1113, 845)]",[],[1],[33],[0.55],"[640.0, 512.0]",horizontal,"(890.0, 762.0)",[0.8333333333333334],[0.511],1,1301.468
3,False,139,1.021,61,[],[],"[(1104, 833)]",[],[1],[37],[0.6166666666666667],"[640.0, 512.0]",vertical,"(890.0, 262.0)",[1.6833333333333333],[0.579],1,1305.551
3,False,140,0.721,43,[],[],"[(1098, 855)]",[],[1],[35],[0.5833333333333334],"[640.0, 512.0]",vertical,"(390.0, 762.0)",[0.9833333333333333],[0.542],1,1310.904
3,False,141,0.501,30,[],[],"[(1115, 865)]",[],[1],[35],[0.5833333333333334],"[640.0, 512.0]",vertical,"(890.0, 762.0)",[0.8833333333333333],[0.541],1,1315.146
3,False,142,0.642,38,[],[],"[(1126, 854)]",[],[1],[36],[0.6],"[640.0, 512.0]",vertical,"(390.0, 762.0)",[0.9666666666666667],[0.557],1,1319.05
3,False,143,0.793,47,[],[],"[(1120, 860)]",[],[1],[36],[0.6],"[640.0, 512.0]",vertical,"(890.0, 262.0)",[1.2666666666666666],[0.555],1,1323.241
3,False,144,0.725,43,[],[],"[(1117, 860)]",[],[1],[34],[0.5666666666666667],"[640.0, 512.0]",horizontal,"(390.0, 262.0)",[1.2666666666666666],[0.52],1,1327.89
3,False,145,0.862,51,[],[],"[(1115, 862)]",[],[1],[51],[0.85],"[640.0, 512.0]",horizontal,"(390.0, 262.0)",[0.8333333333333334],[0.795],0,1332.296
3,False,146,0.908,54,[],[],"[(1227, 923)]",[],[1],[31],[0.5166666666666666],"[640.0, 512.0]",horizontal,"(890.0, 262.0)",[0.6333333333333333],[0.475],1,1336.779
3,False,147,0.891,53,[],[],"[(1117, 867)]",[],[1],[38],[0.6333333333333333],"[640.0, 512.0]",horizontal,"(890.0, 762.0)",[0.6666666666666666],[0.593],1,1387.997
3,False,148,0.961,57,[],[],"[(1138, 860)]",[],[1],[34],[0.5666666666666667],"[640.0, 512.0]",horizontal,"(890.0, 262.0)",[0.7333333333333333],[0.519],1,1392.183
3,False,149,0.514,30,[],[],"[(1093, 865)]",[],[1],[34],[0.5666666666666667],"[640.0, 512.0]",horizontal,"(890.0, 262.0)",[1.6833333333333333],[0.526],1,1396.234
3,False,150,0.545,32,[],[],"[(1093, 860)]",[],[1],[34],[0.5666666666666667],"[640.0, 512.0]",horizontal,"(390.0, 762.0)",[1.6166666666666667],[0.519],1,1400.844
3,False,151,1.022,61,[],[],"[(1099, 868)]",[],[1],[32],[0.5333333333333333],"[640.0, 512.0]",vertical,"(890.0, 262.0)",[1.15],[0.491],1,1405.394
3,False,152,0.856,51,[],[],"[(1117, 855)]",[],[1],[35],[0.5833333333333334],"[640.0, 512.0]",horizontal,"(890.0, 762.0)",[1.1166666666666667],[0.534],1,1409.916
3,False,153,0.708,42,[],[],"[(1063, 867)]",[],[1],[34],[0.5666666666666667],"[640.0, 512.0]",horizontal,"(890.0, 762.0)",[0.7333333333333333],[0.53],1,1414.449
3,False,154,1.169,70,[],[],"[(1080, 870)]",[],[1],[36],[0.6],"[640.0, 512.0]",horizontal,"(890.0, 762.0)",[0.8666666666666667],[0.561],1,1418.529
3,False,155,0.841,50,[],[],"[(1082, 853)]",[],[1],[43],[0.7166666666666667],"[640.0, 512.0]",horizontal,"(890.0, 762.0)",[1.3333333333333333],[0.675],1,1423.133
3,False,156,0.624,37,[],[],"[(1115, 857)]",[],[1],[35],[0.5833333333333334],"[640.0, 512.0]",vertical,"(390.0, 262.0)",[0.8333333333333334],[0.538],1,1428.18
3,False,157,0.988,59,[],[],"[(1106, 846)]",[],[1],[34],[0.5666666666666667],"[640.0, 512.0]",horizontal,"(390.0, 262.0)",[1.4333333333333333],[0.527],1,1433.337
3,False,158,0.81,48,[],[],"[(1099, 867)]",[],[1],[33],[0.55],"[640.0, 512.0]",vertical,"(390.0, 262.0)",[1.4],[0.509],1,1438.181
3,False,159,0.863,51,[],[],"[(1138, 873)]",[],[1],[34],[0.5666666666666667],"[640.0, 512.0]",horizontal,"(390.0, 262.0)",[1.0166666666666666],[0.522],1,1442.866
3,False,160,1.07,64,[],[],"[(1123, 884)]",[],[1],[35],[0.5833333333333334],"[640.0, 512.0]",vertical,"(890.0, 762.0)",[1.3],[0.538],1,1447.315
3,False,161,1.108,66,[],[],"[(1117, 857)]",[],[1],[39],[0.65],"[640.0, 512.0]",horizontal,"(390.0, 762.0)",[1.5333333333333332],[0.605],1,1452.141
3,False,162,0.605,36,[],[],"[(1118, 865)]",[],[1],[33],[0.55],"[640.0, 512.0]",vertical,"(890.0, 262.0)",[0.5666666666666667],[0.506],1,1457.444
3,False,163,0.666,39,[],[],"[(1087, 871)]",[],[1],[34],[0.5666666666666667],"[640.0, 512.0]",horizontal,"(390.0, 762.0)",[0.7333333333333333],[0.528],1,1495.959
3,False,164,1.197,71,[],[],"[(1079, 863)]",[],[1],[41],[0.6833333333333333],"[640.0, 512.0]",horizontal,"(390.0, 762.0)",[1.1833333333333333],[0.638],1,1499.86
3,False,165,0.894,53,[],[],"[(1093, 859)]",[],[1],[30],[0.5],"[640.0, 512.0]",horizontal,"(390.0, 262.0)",[0.8666666666666667],[0.464],1,1504.851
3,False,166,0.669,40,[],[],"[(1118, 872)]",[],[1],[35],[0.5833333333333334],"[640.0, 512.0]",vertical,"(890.0, 762.0)",[1.2833333333333332],[0.541],1,1509.189
3,False,167,0.953,57,[],[],"[(1089, 866)]",[],[1],[36],[0.6],"[640.0, 512.0]",vertical,"(390.0, 762.0)",[0.7],[0.555],1,1513.785
3,False,168,0.976,58,[],[],"[(1089, 884)]",[],[1],[33],[0.55],"[640.0, 512.0]",vertical,"(890.0, 262.0)",[0.9666666666666667],[0.506],1,1517.897
3,False,169,0.67,40,[],[],"[(1094, 862)]",[],[1],[38],[0.6333333333333333],"[640.0, 512.0]",horizontal,"(890.0, 762.0)",[0.6666666666666666],[0.591],1,1522.35
3,False,170,1.08,64,[],[],"[(1117, 852)]",[],[1],[33],[0.55],"[640.0, 512.0]",vertical,"(390.0, 262.0)",[1.1],[0.507],1,1526.341
3,False,171,0.553,33,[],[],"[(1112, 864)]",[],[1],[41],[0.6833333333333333],"[640.0, 512.0]",vertical,"(390.0, 262.0)",[0.6833333333333333],[0.635],1,1530.984
3,False,172,1.154,69,[],[],"[(1139, 841)]",[],[1],[34],[0.5666666666666667],"[640.0, 512.0]",vertical,"(890.0, 262.0)",[1.5],[0.522],1,1534.99
3,False,173,0.925,55,[],[],"[(1093, 865)]",[],[1],[35],[0.5833333333333334],"[640.0, 512.0]",horizontal,"(890.0, 262.0)",[1.2666666666666666],[0.543],1,1540.222
3,False,174,0.541,32,[],[],"[(1087, 868)]",[],[1],[36],[0.6],"[640.0, 512.0]",horizontal,"(390.0, 762.0)",[1.5166666666666666],[0.555],1,1544.847
3,False,175,0.9,54,[],[],"[(1107, 860)]",[],[1],[35],[0.5833333333333334],"[640.0, 512.0]",horizontal,"(890.0, 762.0)",[1.3166666666666667],[0.543],1,1549.622
3,False,176,0.602,36,[],[],"[(1130, 850)]",[],[1],[34],[0.5666666666666667],"[640.0, 512.0]",horizontal,"(390.0, 262.0)",[1.2333333333333334],[0.53],1,1554.486
3,False,177,0.904,54,[],[],"[(1157, 870)]",[],[1],[33],[0.55],"[640.0, 512.0]",horizontal,"(390.0, 262.0)",[1.2833333333333332],[0.512],1,1558.81
3,False,178,1.016,60,[],[],"[(1087, 884)]",[],[1],[35],[0.5833333333333334],"[640.0, 512.0]",vertical,"(890.0, 262.0)",[0.9166666666666666],[0.538],1,1563.522
3,False,179,0.961,57,[],[],"[(1076, 879)]",[],[1],[33],[0.55],"[640.0, 512.0]",horizontal,"(390.0, 762.0)",[0.7166666666666667],[0.507],1,1568.022
3,False,180,0.835,50,[],[],"[(1087, 870)]",[],[1],[39],[0.65],"[640.0, 512.0]",vertical,"(390.0, 262.0)",[1.0666666666666667],[0.602],1,1573.87
4,False,181,0.558,33,[],[],"[(1099, 855)]",[],[1],[34],[0.5666666666666667],"[640.0, 512.0]",horizontal,"(390.0, 762.0)",[1.6833333333333333],[0.532],1,1578.384
4,False,182,1.089,65,[],[],"[(1080, 860)]",[],[1],[35],[0.5833333333333334],"[640.0, 512.0]",horizontal,"(390.0, 762.0)",[0.5166666666666666],[0.54],1,1583.226
4,False,183,0.867,52,[],[],"[(1080, 850)]",[],[1],[36],[0.6],"[640.0, 512.0]",horizontal,"(890.0, 262.0)",[1.1166666666666667],[0.551],1,1589.73
4,False,184,1.122,67,[],[],"[(1093, 870)]",[],[1],[35],[0.5833333333333334],"[640.0, 512.0]",vertical,"(390.0, 762.0)",[0.8833333333333333],[0.543],1,1594.339
4,False,185,0.636,38,[],[],"[(1120, 862)]",[],[1],[32],[0.5333333333333333],"[640.0, 512.0]",horizontal,"(890.0, 262.0)",[0.6666666666666666],[0.49],1,1599.235
4,False,186,0.984,59,[],[],"[(1123, 860)]",[],[1],[41],[0.6833333333333333],"[640.0, 512.0]",horizontal,"(890.0, 762.0)",[1.6833333333333333],[0.64],1,1603.161
4,False,187,1.03,61,[],[],"[(1147, 861)]",[],[1],[35],[0.5833333333333334],"[640.0, 512.0]",horizontal,"(890.0, 762.0)",[0.75],[0.543],1,1608.534
4,False,188,0.524,31,[],[],"[(1123, 866)]",[],[1],[],[],"[640.0, 512.0]",horizontal,"(390.0, 262.0)",[],[0],0,1612.905
4,False,189,0.973,58,[],[],"[(1112, 905)]",[],[1],[37],[0.6166666666666667],"[640.0, 512.0]",horizontal,"(890.0, 762.0)",[1.2333333333333334],[0.573],1,1615.901
4,False,190,1.125,67,[],[],"[(1106, 857)]",[],[1],[32],[0.5333333333333333],"[640.0, 512.0]",horizontal,"(890.0, 262.0)",[1.05],[0.494],1,1866.652
4,False,191,0.922,55,[],[],"[(1116, 872)]",[],[1],[35],[0.5833333333333334],"[640.0, 512.0]",horizontal,"(890.0, 262.0)",[0.9],[0.541],1,1871.312
4,False,192,0.899,53,[],[],"[(1121, 870)]",[],[1],[30],[0.5],"[640.0, 512.0]",vertical,"(390.0, 262.0)",[0.8],[0.462],1,1875.599
4,False,193,1.135,68,[],[],"[(1111, 873)]",[],[1],[32],[0.5333333333333333],"[640.0, 512.0]",vertical,"(890.0, 262.0)",[1.6],[0.492],1,1879.852
4,False,194,0.995,59,[],[],"[(1117, 857)]",[],[1],[37],[0.6166666666666667],"[640.0, 512.0]",vertical,"(390.0, 262.0)",[1.3666666666666667],[0.574],1,1885.231
4,False,195,0.909,54,[],[],"[(1063, 881)]",[],[1],[34],[0.5666666666666667],"[640.0, 512.0]",horizontal,"(390.0, 762.0)",[0.9666666666666667],[0.53],1,1890.229
4,False,196,0.598,35,[],[],"[(1115, 864)]",[],[1],[33],[0.55],"[640.0, 512.0]",horizontal,"(390.0, 762.0)",[1.3666666666666667],[0.51],1,1894.635
4,False,197,1.109,66,[],[],"[(1080, 884)]",[],[1],[33],[0.55],"[640.0, 512.0]",horizontal,"(390.0, 262.0)",[1.4333333333333333],[0.509],1,1899.049
4,False,198,1.021,61,[],[],"[(1099, 869)]",[],[1],[31],[0.5166666666666666],"[640.0, 512.0]",horizontal,"(890.0, 262.0)",[0.9666666666666667],[0.479],1,1904.048
4,False,199,0.579,34,[],[],"[(1081, 874)]",[],[1],[50],[0.8333333333333334],"[640.0, 512.0]",horizontal,"(390.0, 262.0)",[0.8666666666666667],[0.79],1,1908.485
4,False,200,0.548,32,[],[],"[(1129, 867)]",[],[1],[38],[0.6333333333333333],"[640.0, 512.0]",vertical,"(890.0, 762.0)",[0.6666666666666666],[0.598],1,1912.763
4,False,201,0.614,36,[],[],"[(1113, 869)]",[],[1],[34],[0.5666666666666667],"[640.0, 512.0]",vertical,"(890.0, 762.0)",[0.95],[0.529],1,1916.633
4,False,202,0.818,49,[],[],"[(1117, 864)]",[],[1],[34],[0.5666666666666667],"[640.0, 512.0]",horizontal,"(390.0, 262.0)",[1.25],[0.534],1,1920.802
4,False,203,0.946,56,[],[],"[(1074, 846)]",[],[1],[41],[0.6833333333333333],"[640.0, 512.0]",horizontal,"(390.0, 762.0)",[1.6166666666666667],[0.644],1,1925.461
4,False,204,0.678,40,[],[],"[(1117, 864)]",[],[1],[42],[0.7],"[640.0, 512.0]",horizontal,"(890.0, 262.0)",[0.7],[0.657],1,1933.529
4,False,205,0.543,32,[],[],"[(1117, 884)]",[],[1],[35],[0.5833333333333334],"[640.0, 512.0]",horizontal,"(890.0, 262.0)",[0.75],[0.547],1,1939.452
4,False,206,0.933,55,[],[],"[(1153, 865)]",[],[1],[36],[0.6],"[640.0, 512.0]",horizontal,"(390.0, 762.0)",[1.4833333333333334],[0.559],1,1943.216
4,False,207,0.628,37,[],[],"[(1099, 884)]",[],[1],[32],[0.5333333333333333],"[640.0, 512.0]",horizontal,"(390.0, 262.0)",[1.3],[0.495],1,1948.096
4,False,208,0.815,48,[],[],"[(1113, 883)]",[],[1],[35],[0.5833333333333334],"[640.0, 512.0]",vertical,"(890.0, 762.0)",[1.4333333333333333],[0.541],1,1952.391
4,False,209,0.903,54,[],[],"[(1081, 856)]",[],[1],[32],[0.5333333333333333],"[640.0, 512.0]",vertical,"(390.0, 262.0)",[1.6],[0.496],1,1957.136
4,False,210,1.095,65,[],[],"[(1121, 870)]",[],[1],[36],[0.6],"[640.0, 512.0]",horizontal,"(890.0, 762.0)",[0.7666666666666666],[0.559],1,1962.344
4,False,211,0.668,40,[],[],"[(1112, 868)]",[],[1],[43],[0.7166666666666667],"[640.0, 512.0]",horizontal,"(890.0, 762.0)",[1.0666666666666667],[0.674],1,1966.794
4,False,212,0.823,49,[],[],"[(1117, 868)]",[],[1],[34],[0.5666666666666667],"[640.0, 512.0]",vertical,"(890.0, 262.0)",[1.6833333333333333],[0.526],1,1971.299
4,False,213,0.514,30,[],[],"[(1099, 863)]",[],[1],[33],[0.55],"[640.0, 512.0]",horizontal,"(390.0, 262.0)",[0.8333333333333334],[0.512],1,1976.496
4,False,214,0.958,57,[],[],"[(1091, 864)]",[],[1],[34],[0.5666666666666667],"[640.0, 512.0]",vertical,"(890.0, 762.0)",[0.75],[0.526],1,1980.37
4,False,215,1.185,71,[],[],"[(1074, 878)]",[],[1],[34],[0.5666666666666667],"[640.0, 512.0]",vertical,"(390.0, 262.0)",[1.0166666666666666],[0.527],1,1984.717
4,False,216,0.67,40,[],[],"[(1052, 853)]",[],[1],[40],[0.6666666666666666],"[640.0, 512.0]",horizontal,"(390.0, 762.0)",[1.4333333333333333],[0.623],1,1989.547
4,False,217,1.018,61,[],[],"[(1117, 873)]",[],[1],[28],[0.4666666666666667],"[640.0, 512.0]",horizontal,"(890.0, 262.0)",[1.4166666666666667],[0.427],1,1994.299
4,False,218,0.658,39,[],[],"[(1074, 863)]",[],[1],[38],[0.6333333333333333],"[640.0, 512.0]",vertical,"(390.0, 262.0)",[0.8333333333333334],[0.588],1,1999.113
4,False,219,0.599,35,[],[],"[(1123, 879)]",[],[1],[33],[0.55],"[640.0, 512.0]",horizontal,"(890.0, 762.0)",[0.8],[0.505],1,2003.18
4,False,220,0.83,49,[],[],"[(1093, 859)]",[],[1],[35],[0.5833333333333334],"[640.0, 512.0]",vertical,"(890.0, 262.0)",[1.5],[0.542],1,2007.009
4,False,221,0.646,38,[],[],"[(1117, 867)]",[],[1],[31],[0.5166666666666666],"[640.0, 512.0]",horizontal,"(390.0, 262.0)",[1.5166666666666666],[0.48],1,2011.835
4,False,222,1.196,71,[],[],"[(1099, 867)]",[],[1],[33],[0.55],"[640.0, 512.0]",vertical,"(890.0, 262.0)",[1.0833333333333333],[0.509],1,2016.406
4,False,223,0.7,42,[],[],"[(1118, 871)]",[],[1],[35],[0.5833333333333334],"[640.0, 512.0]",horizontal,"(390.0, 262.0)",[0.8],[0.541],1,2021.204
4,False,224,1.001,60,[],[],"[(1117, 863)]",[],[1],[33],[0.55],"[640.0, 512.0]",vertical,"(390.0, 262.0)",[0.6833333333333333],[0.511],1,2025.195
4,False,225,0.704,42,[],[],"[(1110, 871)]",[],[1],[36],[0.6],"[640.0, 512.0]",vertical,"(390.0, 762.0)",[0.5],[0.559],1,2029.47
4,False,226,1.127,67,[],[],"[(1080, 855)]",[],[1],[45],[0.75],"[640.0, 512.0]",horizontal,"(390.0, 762.0)",[1.1166666666666667],[0.707],1,2033.351
4,False,227,1.007,60,[],[],"[(1075, 847)]",[],[1],[51],[0.85],"[640.0, 512.0]",vertical,"(390.0, 762.0)",[0.55],[0.799],0,2038.22
4,False,228,0.702,42,[],[],"[(1149, 854)]",[],[1],[31],[0.5166666666666666],"[640.0, 512.0]",horizontal,"(890.0, 262.0)",[1.45],[0.478],1,2042.6
4,False,229,0.788,47,[],[],"[(1038, 846)]",[],[1],[33],[0.55],"[640.0, 512.0]",horizontal,"(890.0, 262.0)",[1.3666666666666667],[0.507],1,2075.905
4,False,230,0.506,30,[],[],"[(1099, 889)]",[],[1],[36],[0.6],"[640.0, 512.0]",vertical,"(890.0, 762.0)",[1.15],[0.553],1,2080.661
4,False,231,1.055,63,[],[],"[(1099, 879)]",[],[1],[34],[0.5666666666666667],"[640.0, 512.0]",horizontal,"(890.0, 762.0)",[0.85],[0.523],1,2464.452
4,False,232,0.626,37,[],[],"[(1099, 870)]",[],[1],[39],[0.65],"[640.0, 512.0]",vertical,"(890.0, 762.0)",[1.3833333333333333],[0.607],1,2468.854
4,False,233,0.687,41,[],[],"[(922, 412), (556, 215), (1068, 356), (501, 341), (634, 154), (343, 259), (634, 255), (251, 793), (494, 615), (245, 264), (253, 269), (477, 293), (1137, 895)]",[],"[0, 0, 0, 0, 0, 0, 0, 0, 0, 0, 0, 0, 1]",[35],[0.5833333333333334],"[640.0, 512.0]",vertical,"(890.0, 762.0)",[1.1833333333333333],[0.541],1,2473.32
4,False,234,1.129,67,[],[],"[(1097, 870)]",[],[1],[],[],"[640.0, 512.0]",vertical,"(390.0, 262.0)",[],[0],0,2550.401
4,False,235,1.06,63,[],[],"[(1083, 834)]",[],[1],[33],[0.55],"[640.0, 512.0]",horizontal,"(890.0, 762.0)",[1.4166666666666667],[0.505],1,2554.948
4,False,236,0.93,55,[],[],"[(672, 725), (1119, 913)]",[],"[0, 1]",[34],[0.5666666666666667],"[640.0, 512.0]",vertical,"(390.0, 762.0)",[1.5333333333333332],[0.525],1,2559.905
4,False,237,0.7,42,[],[],"[(1095, 859)]",[],[1],[51],[0.85],"[640.0, 512.0]",vertical,"(390.0, 762.0)",[1.4166666666666667],[0.809],0,2577.001
4,False,238,0.686,41,[],[],"[(1123, 872)]",[],[1],[51],[0.85],"[640.0, 512.0]",horizontal,"(390.0, 762.0)",[1.1166666666666667],[0.8],0,2581.866
4,False,239,0.718,43,[],[],"[(1116, 889)]",[],[1],[38],[0.6333333333333333],"[640.0, 512.0]",horizontal,"(390.0, 762.0)",[0.9666666666666667],[0.598],1,2586.6
4,False,240,0.806,48,[],[],"[(1087, 859)]",[],[1],[37],[0.6166666666666667],"[640.0, 512.0]",horizontal,"(890.0, 762.0)",[0.8833333333333333],[0.572],1,2603.703
5,False,241,0.776,46,[],[],"[(1142, 889)]",[],[1],[25],[0.4166666666666667],"[640.0, 512.0]",horizontal,"(390.0, 262.0)",[1.3666666666666667],[0.385],1,2608.02
5,False,242,0.675,40,[],[],"[(1065, 871)]",[],[1],[51],[0.85],"[640.0, 512.0]",horizontal,"(390.0, 262.0)",[1.5],[0.807],0,2616.118
5,False,243,1.177,70,[],[],"[(1059, 877)]",[],[1],[51],[0.85],"[640.0, 512.0]",vertical,"(890.0, 262.0)",[1.5],[0.807],0,2745.249
5,False,244,1.036,62,[],[],"[(1076, 847)]",[],[1],[31],[0.5166666666666666],"[640.0, 512.0]",vertical,"(890.0, 262.0)",[1.0],[0.477],1,2751.349
5,False,245,0.73,43,[],[],"[(1082, 864)]",[],[1],[51],[0.85],"[640.0, 512.0]",horizontal,"(890.0, 262.0)",[0.6],[0.8],0,2755.96
5,False,246,0.588,35,[],[],"[(1120, 860)]",[],[1],[51],[0.85],"[640.0, 512.0]",horizontal,"(390.0, 762.0)",[1.1833333333333333],[0.807],0,2760.188
5,False,247,0.587,35,[],[],"[(1121, 851)]",[],[1],[50],[0.8333333333333334],"[640.0, 512.0]",horizontal,"(890.0, 262.0)",[1.2333333333333334],[0.79],1,2765.827
5,False,248,0.619,37,[],[],"[(1097, 866)]",[],[1],[32],[0.5333333333333333],"[640.0, 512.0]",horizontal,"(890.0, 262.0)",[0.9333333333333333],[0.49],1,2771.0
5,False,249,1.147,68,[],[],"[(1117, 880)]",[],[1],[35],[0.5833333333333334],"[640.0, 512.0]",vertical,"(890.0, 762.0)",[0.8],[0.546],1,2775.459
5,False,250,1.134,68,[],[],"[(1117, 868)]",[],[1],[33],[0.55],"[640.0, 512.0]",vertical,"(390.0, 762.0)",[0.85],[0.511],1,2779.881
5,False,251,0.706,42,[],[],"[(1093, 889)]",[],[1],[38],[0.6333333333333333],"[640.0, 512.0]",horizontal,"(890.0, 262.0)",[1.2666666666666666],[0.592],1,2784.504
5,False,252,0.905,54,[],[],"[(1123, 873)]",[],[1],[33],[0.55],"[640.0, 512.0]",vertical,"(890.0, 762.0)",[0.6666666666666666],[0.518],1,2789.066
5,False,253,1.195,71,[],[],"[(1128, 866)]",[],[1],[33],[0.55],"[640.0, 512.0]",vertical,"(390.0, 762.0)",[0.7333333333333333],[0.509],1,2793.17
5,False,254,1.087,65,[],[],"[(1120, 874)]",[],[1],[33],[0.55],"[640.0, 512.0]",vertical,"(390.0, 262.0)",[1.6833333333333333],[0.511],1,2797.601
5,False,255,1.194,71,[],[],"[(1105, 882)]",[],[1],[37],[0.6166666666666667],"[640.0, 512.0]",vertical,"(390.0, 762.0)",[1.45],[0.571],1,2802.76
5,False,256,0.924,55,[],[],"[(1128, 865)]",[],[1],[40],[0.6666666666666666],"[640.0, 512.0]",horizontal,"(890.0, 262.0)",[0.55],[0.62],1,2807.956
5,False,257,0.602,36,[],[],"[(1099, 871)]",[],[1],[34],[0.5666666666666667],"[640.0, 512.0]",horizontal,"(890.0, 762.0)",[0.5333333333333333],[0.526],1,2811.934
5,False,258,0.856,51,[],[],"[(1093, 884)]",[],[1],[34],[0.5666666666666667],"[640.0, 512.0]",horizontal,"(890.0, 262.0)",[1.15],[0.523],1,2815.679
5,False,259,0.682,40,[],[],"[(1093, 870)]",[],[1],[11],[0.18333333333333332],"[640.0, 512.0]",horizontal,"(890.0, 262.0)",[1.1],[0.151],1,2820.297
5,False,260,0.579,34,[],[],"[(1129, 877)]",[],[1],[31],[0.5166666666666666],"[640.0, 512.0]",vertical,"(890.0, 262.0)",[1.6666666666666667],[0.475],1,2824.307
5,False,261,0.645,38,[],[],"[(1123, 860)]",[],[1],[34],[0.5666666666666667],"[640.0, 512.0]",vertical,"(390.0, 762.0)",[0.7666666666666666],[0.525],1,2828.938
5,False,262,0.977,58,[],[],"[(1142, 874)]",[],[1],[34],[0.5666666666666667],"[640.0, 512.0]",vertical,"(890.0, 762.0)",[0.9166666666666666],[0.524],1,2832.823
5,False,263,1.146,68,[],[],"[(1090, 863)]",[],[1],[11],[0.18333333333333332],"[640.0, 512.0]",horizontal,"(890.0, 262.0)",[0.9166666666666666],[0.148],1,2837.221
5,False,264,0.827,49,[],[],"[(1123, 855)]",[],[1],[38],[0.6333333333333333],"[640.0, 512.0]",horizontal,"(390.0, 762.0)",[0.85],[0.585],1,2841.338
5,False,265,1.121,67,[],[],"[(1125, 870)]",[],[1],[38],[0.6333333333333333],"[640.0, 512.0]",vertical,"(890.0, 762.0)",[0.7166666666666667],[0.592],1,2845.701
5,False,266,0.628,37,[],[],"[(1129, 870)]",[],[1],[33],[0.55],"[640.0, 512.0]",vertical,"(890.0, 262.0)",[1.15],[0.51],1,2850.253
5,False,267,0.588,35,[],[],"[(1087, 865)]",[],[1],[36],[0.6],"[640.0, 512.0]",vertical,"(890.0, 262.0)",[0.9],[0.556],1,2854.568
5,False,268,1.166,69,[],[],"[(1123, 864)]",[],[1],[31],[0.5166666666666666],"[640.0, 512.0]",vertical,"(890.0, 762.0)",[1.6666666666666667],[0.476],1,2858.626
5,False,269,0.747,44,[],[],"[(1099, 874)]",[],[1],[36],[0.6],"[640.0, 512.0]",vertical,"(890.0, 762.0)",[1.5333333333333332],[0.557],1,2863.94
5,False,270,0.989,59,[],[],"[(1140, 884)]",[],[1],[41],[0.6833333333333333],"[640.0, 512.0]",horizontal,"(390.0, 762.0)",[1.3],[0.642],1,2868.798
5,False,271,0.531,31,[],[],"[(1099, 854)]",[],[1],[39],[0.65],"[640.0, 512.0]",vertical,"(390.0, 762.0)",[0.9166666666666666],[0.61],1,2904.988
5,False,272,0.738,44,[],[],"[(1103, 858)]",[],[1],[33],[0.55],"[640.0, 512.0]",vertical,"(390.0, 762.0)",[1.5],[0.516],1,2909.001
5,False,273,0.743,44,[],[],"[(1119, 849)]",[],[1],[34],[0.5666666666666667],"[640.0, 512.0]",horizontal,"(390.0, 262.0)",[1.6833333333333333],[0.531],1,2913.685
5,False,274,0.827,49,[],[],"[(1128, 868)]",[],[1],[34],[0.5666666666666667],"[640.0, 512.0]",vertical,"(390.0, 762.0)",[0.6666666666666666],[0.521],1,2918.6
5,False,275,1.109,66,[],[],"[(1103, 859)]",[],[1],[32],[0.5333333333333333],"[640.0, 512.0]",horizontal,"(390.0, 262.0)",[1.2],[0.497],1,2922.553
5,False,276,0.903,54,[],[],"[(1122, 872)]",[],[1],[33],[0.55],"[640.0, 512.0]",horizontal,"(890.0, 262.0)",[1.1333333333333333],[0.507],1,2927.234
5,False,277,0.752,45,[],[],"[(1122, 855)]",[],[1],[33],[0.55],"[640.0, 512.0]",horizontal,"(890.0, 762.0)",[0.6],[0.511],1,2931.733
5,False,278,1.126,67,[],[],"[(1126, 874)]",[],[1],[37],[0.6166666666666667],"[640.0, 512.0]",horizontal,"(390.0, 762.0)",[0.5166666666666666],[0.572],1,2935.47
5,False,279,1.066,63,[],[],"[(1092, 865)]",[],[1],[34],[0.5666666666666667],"[640.0, 512.0]",vertical,"(890.0, 262.0)",[1.2166666666666666],[0.531],1,2939.717
5,False,280,0.738,44,[],[],"[(1123, 865)]",[],[1],[39],[0.65],"[640.0, 512.0]",horizontal,"(890.0, 762.0)",[1.05],[0.612],1,2944.447
5,False,281,0.669,40,[],[],"[(1117, 879)]",[],[1],[41],[0.6833333333333333],"[640.0, 512.0]",horizontal,"(390.0, 762.0)",[1.3],[0.638],1,2948.919
5,False,282,0.519,31,[],[],"[(1120, 870)]",[],[1],[32],[0.5333333333333333],"[640.0, 512.0]",horizontal,"(390.0, 262.0)",[0.75],[0.494],1,2953.506
5,False,283,0.9,54,[],[],"[(1100, 860)]",[],[1],[34],[0.5666666666666667],"[640.0, 512.0]",horizontal,"(890.0, 262.0)",[1.25],[0.526],1,2957.148
5,False,284,0.825,49,[],[],"[(1123, 858)]",[],[1],[35],[0.5833333333333334],"[640.0, 512.0]",vertical,"(890.0, 762.0)",[0.9],[0.544],1,2961.839
5,False,285,0.696,41,[],[],"[(1100, 880)]",[],[1],[33],[0.55],"[640.0, 512.0]",vertical,"(890.0, 762.0)",[1.5333333333333332],[0.514],1,2968.484
5,False,286,0.551,33,[],[],"[(1113, 852)]",[],[1],[36],[0.6],"[640.0, 512.0]",horizontal,"(390.0, 762.0)",[1.4333333333333333],[0.559],1,2973.299
5,False,287,0.639,38,[],[],"[(1095, 860)]",[],[1],[35],[0.5833333333333334],"[640.0, 512.0]",horizontal,"(890.0, 262.0)",[1.25],[0.55],1,2977.742
5,False,288,0.805,48,[],[],"[(1134, 854)]",[],[1],[33],[0.55],"[640.0, 512.0]",vertical,"(890.0, 262.0)",[1.6833333333333333],[0.51],1,2982.14
5,False,289,0.641,38,[],[],"[(1100, 883)]",[],[1],[32],[0.5333333333333333],"[640.0, 512.0]",vertical,"(890.0, 262.0)",[0.8333333333333334],[0.487],1,2987.133
5,False,290,0.825,49,[],[],"[(1113, 865)]",[],[1],[29],[0.48333333333333334],"[640.0, 512.0]",vertical,"(390.0, 262.0)",[1.2166666666666666],[0.446],1,2991.171
5,False,291,0.767,46,[],[],"[(1120, 855)]",[],[1],[32],[0.5333333333333333],"[640.0, 512.0]",horizontal,"(890.0, 762.0)",[1.6833333333333333],[0.496],1,2995.527
5,False,292,0.823,49,[],[],"[(1022, 841), (1123, 894)]",[],"[0, 1]",[46],[0.7666666666666666],"[640.0, 512.0]",vertical,"(390.0, 762.0)",[1.5],[0.718],1,3000.513
5,False,293,0.709,42,[],[],"[(1146, 864)]",[],[1],[34],[0.5666666666666667],"[640.0, 512.0]",vertical,"(890.0, 762.0)",[1.55],[0.531],1,3011.038
5,False,294,1.098,65,[],[],"[(1121, 836)]",[],[1],[36],[0.6],"[640.0, 512.0]",horizontal,"(390.0, 262.0)",[1.3833333333333333],[0.562],1,3015.719
5,False,295,0.529,31,[],[],"[(1137, 865)]",[],[1],[37],[0.6166666666666667],"[640.0, 512.0]",vertical,"(390.0, 262.0)",[1.0666666666666667],[0.575],1,3030.444
5,False,296,0.588,35,[],[],"[(1133, 854)]",[],[1],[26],[0.43333333333333335],"[640.0, 512.0]",horizontal,"(890.0, 262.0)",[1.2833333333333332],[0.4],1,3034.642
5,False,297,0.571,34,[],[],"[(1143, 861)]",[],[1],[38],[0.6333333333333333],"[640.0, 512.0]",vertical,"(390.0, 262.0)",[0.8166666666666667],[0.591],1,3038.836
5,False,298,0.997,59,[],[],"[(1123, 865)]",[],[1],[32],[0.5333333333333333],"[640.0, 512.0]",horizontal,"(390.0, 262.0)",[0.55],[0.495],1,3042.718
5,False,299,0.723,43,[],[],"[(1164, 851)]",[],[1],[35],[0.5833333333333334],"[640.0, 512.0]",horizontal,"(390.0, 262.0)",[0.7666666666666666],[0.546],1,3046.655
5,False,300,0.742,44,[],[],"[(1107, 863)]",[],[1],[32],[0.5333333333333333],"[640.0, 512.0]",horizontal,"(390.0, 262.0)",[1.4333333333333333],[0.493],1,3050.57
6,False,301,0.951,57,[],[],"[(1074, 873)]",[],[1],[37],[0.6166666666666667],"[640.0, 512.0]",horizontal,"(390.0, 762.0)",[0.95],[0.581],1,3055.193
6,False,302,0.883,52,[],[],"[(1126, 859)]",[],[1],[32],[0.5333333333333333],"[640.0, 512.0]",vertical,"(390.0, 262.0)",[0.6166666666666667],[0.492],1,3059.536
6,False,303,0.983,58,[],[],"[(1059, 865)]",[],[1],[35],[0.5833333333333334],"[640.0, 512.0]",vertical,"(390.0, 762.0)",[1.35],[0.542],1,3063.558
6,False,304,0.885,53,[],[],"[(1074, 881)]",[],[1],[33],[0.55],"[640.0, 512.0]",horizontal,"(890.0, 262.0)",[1.5333333333333332],[0.509],1,3068.586
6,False,305,0.88,52,[],[],"[(1134, 848)]",[],[1],[35],[0.5833333333333334],"[640.0, 512.0]",vertical,"(390.0, 262.0)",[0.7166666666666667],[0.535],1,3073.472
6,False,306,0.811,48,[],[],"[(1186, 841)]",[],[1],[31],[0.5166666666666666],"[640.0, 512.0]",horizontal,"(890.0, 262.0)",[0.6833333333333333],[0.482],1,3077.642
6,False,307,0.819,49,[],[],"[(1129, 863)]",[],[1],[35],[0.5833333333333334],"[640.0, 512.0]",horizontal,"(390.0, 262.0)",[0.7333333333333333],[0.541],1,3081.719
6,False,308,0.787,47,[],[],"[(1142, 850)]",[],[1],[31],[0.5166666666666666],"[640.0, 512.0]",horizontal,"(390.0, 262.0)",[0.5833333333333334],[0.472],1,3085.789
6,False,309,0.832,49,[],[],"[(1148, 855)]",[],[1],[34],[0.5666666666666667],"[640.0, 512.0]",horizontal,"(390.0, 262.0)",[0.5333333333333333],[0.528],1,3089.672
6,False,310,0.53,31,[],[],"[(1167, 869)]",[],[1],[31],[0.5166666666666666],"[640.0, 512.0]",vertical,"(890.0, 762.0)",[0.9833333333333333],[0.475],1,3093.481
6,False,311,1.062,63,[],[],"[(1148, 867)]",[],[1],[34],[0.5666666666666667],"[640.0, 512.0]",vertical,"(890.0, 762.0)",[1.7],[0.527],1,3097.472
6,False,312,0.574,34,[],[],"[(1130, 846)]",[],[1],[36],[0.6],"[640.0, 512.0]",vertical,"(390.0, 762.0)",[0.95],[0.552],1,3102.827
6,False,313,0.823,49,[],[],"[(1153, 846)]",[],[1],[41],[0.6833333333333333],"[640.0, 512.0]",vertical,"(890.0, 762.0)",[1.5],[0.642],1,3107.034
6,False,314,1.199,71,[],[],"[(1130, 849)]",[],[1],[39],[0.65],"[640.0, 512.0]",horizontal,"(890.0, 762.0)",[1.2166666666666666],[0.61],1,3111.969
6,False,315,0.811,48,[],[],"[(1129, 849)]",[],[1],[34],[0.5666666666666667],"[640.0, 512.0]",horizontal,"(390.0, 762.0)",[0.9666666666666667],[0.521],1,3116.884
6,False,316,1.142,68,[],[],"[(1100, 859)]",[],[1],[43],[0.7166666666666667],"[640.0, 512.0]",vertical,"(390.0, 262.0)",[1.05],[0.672],1,3121.06
6,False,317,0.775,46,[],[],"[(1115, 846)]",[],[1],[31],[0.5166666666666666],"[640.0, 512.0]",vertical,"(390.0, 262.0)",[0.5],[0.477],1,3125.836
6,False,318,1.016,60,[],[],"[(1105, 868)]",[],[1],[24],[0.4],"[640.0, 512.0]",horizontal,"(390.0, 262.0)",[1.2666666666666666],[0.361],1,3131.575
6,False,319,0.951,57,[],[],"[(1124, 847)]",[],[1],[33],[0.55],"[640.0, 512.0]",horizontal,"(890.0, 262.0)",[1.65],[0.513],1,3136.134
6,False,320,0.73,43,[],[],"[(1145, 850)]",[],[1],[11],[0.18333333333333332],"[640.0, 512.0]",vertical,"(890.0, 262.0)",[0.9],[0.152],1,3141.138
6,False,321,1.175,70,[],[],"[(1123, 850)]",[],[1],[39],[0.65],"[640.0, 512.0]",vertical,"(890.0, 262.0)",[0.9333333333333333],[0.605],1,3145.026
6,False,322,1.082,64,[],[],"[(1099, 842)]",[],[1],[14],[0.23333333333333334],"[640.0, 512.0]",horizontal,"(890.0, 262.0)",[1.0833333333333333],[0.201],1,3150.338
6,False,323,1.015,60,[],[],"[(1134, 844)]",[],[1],[34],[0.5666666666666667],"[640.0, 512.0]",horizontal,"(390.0, 762.0)",[1.3166666666666667],[0.519],1,3154.656
6,False,324,0.65,39,[],[],"[(1109, 851)]",[],[1],[51],[0.85],"[640.0, 512.0]",horizontal,"(890.0, 762.0)",[1.6666666666666667],[0.796],0,3159.408
6,False,325,0.923,55,[],[],"[(1101, 832)]",[],[1],[36],[0.6],"[640.0, 512.0]",horizontal,"(890.0, 762.0)",[1.2666666666666666],[0.558],1,3165.259
6,False,326,0.716,42,[],[],"[(1117, 864)]",[],[1],[35],[0.5833333333333334],"[640.0, 512.0]",vertical,"(890.0, 762.0)",[1.15],[0.536],1,3170.053
6,False,327,1.197,71,[],[],"[(1152, 863)]",[],[1],[32],[0.5333333333333333],"[640.0, 512.0]",horizontal,"(390.0, 262.0)",[1.1333333333333333],[0.494],1,3174.424
6,False,328,1.047,62,[],[],"[(1117, 861)]",[],[1],[32],[0.5333333333333333],"[640.0, 512.0]",vertical,"(390.0, 262.0)",[0.6333333333333333],[0.487],1,3179.208
6,False,329,0.737,44,[],[],"[(1148, 866)]",[],[1],[34],[0.5666666666666667],"[640.0, 512.0]",horizontal,"(890.0, 762.0)",[1.6166666666666667],[0.519],1,3183.2
6,False,330,0.727,43,[],[],"[(1154, 841)]",[],[1],[32],[0.5333333333333333],"[640.0, 512.0]",vertical,"(390.0, 762.0)",[1.0333333333333332],[0.492],1,3187.954
6,False,331,1.024,61,[],[],"[(1114, 855)]",[],[1],[34],[0.5666666666666667],"[640.0, 512.0]",vertical,"(890.0, 762.0)",[1.6666666666666667],[0.523],1,3229.732
6,False,332,1.066,63,[],[],"[(1113, 846)]",[],[1],[18],[0.3],"[640.0, 512.0]",vertical,"(390.0, 262.0)",[0.8],[0.268],1,3234.972
6,False,333,0.527,31,[],[],"[(1136, 870)]",[],[1],[35],[0.5833333333333334],"[640.0, 512.0]",vertical,"(890.0, 262.0)",[1.55],[0.545],1,3239.039
6,False,334,0.979,58,[],[],"[(1105, 854)]",[],[1],[31],[0.5166666666666666],"[640.0, 512.0]",horizontal,"(390.0, 262.0)",[0.8833333333333333],[0.483],1,3440.658
6,False,335,1.073,64,[],[],"[(1113, 877)]",[],[1],[35],[0.5833333333333334],"[640.0, 512.0]",vertical,"(890.0, 762.0)",[0.65],[0.539],1,3445.099
6,False,336,0.627,37,[],[],"[(1150, 846)]",[],[1],[],[],"[640.0, 512.0]",vertical,"(390.0, 262.0)",[],[0],0,3449.374
6,False,337,0.714,42,[],[],"[(1098, 882)]",[],[1],[33],[0.55],"[640.0, 512.0]",horizontal,"(390.0, 762.0)",[0.5333333333333333],[0.513],1,3452.941
6,False,338,0.68,40,[],[],"[(1113, 877)]",[],[1],[38],[0.6333333333333333],"[640.0, 512.0]",horizontal,"(890.0, 762.0)",[0.6666666666666666],[0.589],1,3456.946
6,False,339,0.702,42,[],[],"[(1125, 895)]",[],[1],[32],[0.5333333333333333],"[640.0, 512.0]",vertical,"(890.0, 762.0)",[0.7333333333333333],[0.498],1,3460.907
6,False,340,0.777,46,[],[],"[(1124, 841)]",[],[1],[38],[0.6333333333333333],"[640.0, 512.0]",vertical,"(390.0, 762.0)",[0.75],[0.589],1,3485.207
6,False,341,0.789,47,[],[],"[(1114, 859)]",[],[1],[36],[0.6],"[640.0, 512.0]",horizontal,"(890.0, 762.0)",[1.3833333333333333],[0.558],1,3489.344
6,False,342,0.663,39,[],[],"[(1093, 864)]",[],[1],[37],[0.6166666666666667],"[640.0, 512.0]",vertical,"(890.0, 762.0)",[1.3833333333333333],[0.572],1,3493.984
6,False,343,0.981,58,[],[],"[(1105, 894)]",[],[1],[31],[0.5166666666666666],"[640.0, 512.0]",vertical,"(890.0, 262.0)",[1.6],[0.486],1,3498.418
6,False,344,0.917,55,[],[],"[(1123, 884)]",[],[1],[32],[0.5333333333333333],"[640.0, 512.0]",horizontal,"(890.0, 262.0)",[0.6],[0.5],1,3504.298
6,False,345,1.113,66,[],[],"[(1123, 862)]",[],[1],[36],[0.6],"[640.0, 512.0]",vertical,"(390.0, 762.0)",[0.5666666666666667],[0.559],1,3508.15
6,False,346,0.962,57,[],[],"[(1118, 869)]",[],[1],[40],[0.6666666666666666],"[640.0, 512.0]",horizontal,"(890.0, 262.0)",[1.1166666666666667],[0.628],1,3512.242
6,False,347,0.885,53,[],[],"[(1124, 869)]",[],[1],[34],[0.5666666666666667],"[640.0, 512.0]",horizontal,"(390.0, 262.0)",[0.9666666666666667],[0.527],1,3516.929
6,False,348,0.986,59,[],[],"[(1124, 868)]",[],[1],[34],[0.5666666666666667],"[640.0, 512.0]",vertical,"(390.0, 762.0)",[1.2333333333333334],[0.526],1,3521.436
6,False,349,0.673,40,[],[],"[(1126, 877)]",[],[1],[37],[0.6166666666666667],"[640.0, 512.0]",vertical,"(390.0, 762.0)",[0.7833333333333333],[0.578],1,3526.136
6,False,350,0.772,46,[],[],"[(1123, 874)]",[],[1],[29],[0.48333333333333334],"[640.0, 512.0]",vertical,"(390.0, 262.0)",[0.65],[0.442],1,3530.269
6,False,351,0.929,55,[],[],"[(1116, 899)]",[],[1],[36],[0.6],"[640.0, 512.0]",horizontal,"(890.0, 762.0)",[1.35],[0.559],1,3534.04
6,False,352,1.02,61,[],[],"[(1087, 831)]",[],[1],[35],[0.5833333333333334],"[640.0, 512.0]",horizontal,"(390.0, 762.0)",[0.65],[0.548],1,3538.943
6,False,353,1.188,71,[],[],"[(1150, 860)]",[],[1],[34],[0.5666666666666667],"[640.0, 512.0]",horizontal,"(390.0, 762.0)",[0.9166666666666666],[0.529],1,3544.02
6,False,354,0.867,52,[],[],"[(1121, 855)]",[],[1],[35],[0.5833333333333334],"[640.0, 512.0]",vertical,"(890.0, 762.0)",[1.3333333333333333],[0.542],1,3548.557
6,False,355,0.883,52,[],[],"[(1148, 873)]",[],[1],[35],[0.5833333333333334],"[640.0, 512.0]",horizontal,"(890.0, 762.0)",[1.0666666666666667],[0.535],1,3553.209
6,False,356,0.618,37,[],[],"[(1154, 871)]",[],[1],[35],[0.5833333333333334],"[640.0, 512.0]",horizontal,"(890.0, 762.0)",[1.6166666666666667],[0.539],1,3557.676
6,False,357,1.118,67,[],[],"[(1123, 870)]",[],[1],[28],[0.4666666666666667],"[640.0, 512.0]",horizontal,"(390.0, 262.0)",[0.8166666666666667],[0.43],1,3562.473
6,False,358,0.972,58,[],[],"[(1112, 853)]",[],[1],[35],[0.5833333333333334],"[640.0, 512.0]",horizontal,"(890.0, 262.0)",[1.5333333333333332],[0.54],1,3566.891
6,False,359,1.136,68,[],[],"[(1123, 852)]",[],[1],[34],[0.5666666666666667],"[640.0, 512.0]",vertical,"(390.0, 762.0)",[1.5333333333333332],[0.532],1,3571.869
6,False,360,0.652,39,[],[],"[(1123, 846)]",[],[1],[28],[0.4666666666666667],"[640.0, 512.0]",horizontal,"(390.0, 262.0)",[1.5166666666666666],[0.425],1,3577.884
7,False,361,0.56,33,[],[],"[(1146, 851)]",[],[1],[31],[0.5166666666666666],"[640.0, 512.0]",horizontal,"(390.0, 262.0)",[1.2666666666666666],[0.475],1,3582.406
7,False,362,1.032,61,[],[],"[(1133, 854)]",[],[1],[34],[0.5666666666666667],"[640.0, 512.0]",vertical,"(390.0, 762.0)",[1.5333333333333332],[0.53],1,3586.777
7,False,363,0.537,32,[],[],"[(1117, 836)]",[],[1],[34],[0.5666666666666667],"[640.0, 512.0]",vertical,"(390.0, 762.0)",[1.3333333333333333],[0.525],1,3591.754
7,False,364,0.922,55,[],[],"[(1117, 849)]",[],[1],[35],[0.5833333333333334],"[640.0, 512.0]",vertical,"(890.0, 762.0)",[0.9166666666666666],[0.544],1,3596.065
7,False,365,0.577,34,[],[],"[(1160, 866)]",[],[1],[35],[0.5833333333333334],"[640.0, 512.0]",vertical,"(390.0, 762.0)",[1.6333333333333333],[0.542],1,3600.685
7,False,366,1.122,67,[],[],"[(1124, 854)]",[],[1],[33],[0.55],"[640.0, 512.0]",vertical,"(890.0, 762.0)",[0.8],[0.513],1,3605.567
7,False,367,0.972,58,[],[],"[(1153, 843)]",[],[1],[51],[0.85],"[640.0, 512.0]",horizontal,"(390.0, 262.0)",[1.6],[0.803],0,3610.149
7,False,368,0.901,54,[],[],"[(1128, 846)]",[],[1],[36],[0.6],"[640.0, 512.0]",horizontal,"(390.0, 262.0)",[0.8833333333333333],[0.56],1,3615.361
7,False,369,0.776,46,[],[],"[(1174, 863)]",[],[1],[36],[0.6],"[640.0, 512.0]",horizontal,"(890.0, 762.0)",[1.5166666666666666],[0.561],1,3620.073
7,False,370,0.816,48,[],[],"[(1117, 850)]",[],[1],[41],[0.6833333333333333],"[640.0, 512.0]",horizontal,"(890.0, 762.0)",[1.0833333333333333],[0.637],1,3624.959
7,False,371,0.553,33,[],[],"[(1145, 847)]",[],[1],[35],[0.5833333333333334],"[640.0, 512.0]",vertical,"(890.0, 262.0)",[1.1666666666666667],[0.541],1,3629.377
7,False,372,1.053,63,[],[],"[(1134, 836)]",[],[1],[40],[0.6666666666666666],"[640.0, 512.0]",horizontal,"(890.0, 262.0)",[1.3833333333333333],[0.628],1,3633.549
7,False,373,1.025,61,[],[],"[(1153, 846)]",[],[1],[35],[0.5833333333333334],"[640.0, 512.0]",horizontal,"(390.0, 762.0)",[1.45],[0.543],1,3638.525
7,False,374,1.174,70,[],[],"[(1159, 859)]",[],[1],[30],[0.5],"[640.0, 512.0]",horizontal,"(390.0, 262.0)",[1.5],[0.465],1,3643.623
7,False,375,0.887,53,[],[],"[(1190, 831)]",[],[1],[40],[0.6666666666666666],"[640.0, 512.0]",horizontal,"(390.0, 762.0)",[1.3],[0.622],1,3648.707
7,False,376,1.117,67,[],[],"[(1153, 850)]",[],[1],[33],[0.55],"[640.0, 512.0]",vertical,"(890.0, 262.0)",[0.8166666666666667],[0.508],1,3653.473
7,False,377,0.82,49,[],[],"[(1109, 852)]",[],[1],[37],[0.6166666666666667],"[640.0, 512.0]",vertical,"(890.0, 262.0)",[1.4666666666666666],[0.578],1,3657.981
7,False,378,1.135,68,[],[],"[(1136, 847)]",[],[1],[26],[0.43333333333333335],"[640.0, 512.0]",horizontal,"(390.0, 262.0)",[1.3333333333333333],[0.395],1,3663.097
7,False,379,0.931,55,[],[],"[(1123, 852)]",[],[1],[37],[0.6166666666666667],"[640.0, 512.0]",vertical,"(390.0, 762.0)",[0.9333333333333333],[0.574],1,3667.938
7,False,380,0.802,48,[],[],"[(1117, 859)]",[],[1],[45],[0.75],"[640.0, 512.0]",vertical,"(390.0, 762.0)",[1.0333333333333332],[0.703],1,3672.324
7,False,381,0.718,43,[],[],"[(1113, 840)]",[],[1],[32],[0.5333333333333333],"[640.0, 512.0]",vertical,"(390.0, 262.0)",[0.7666666666666666],[0.492],1,3676.829
7,False,382,0.942,56,[],[],"[(1136, 867)]",[],[1],[32],[0.5333333333333333],"[640.0, 512.0]",vertical,"(890.0, 262.0)",[1.6333333333333333],[0.492],1,3680.734
7,False,383,0.536,32,[],[],"[(1139, 844)]",[],[1],[],[],"[640.0, 512.0]",vertical,"(390.0, 262.0)",[],[0],0,3685.741
7,False,384,1.026,61,[],[],"[(1116, 847)]",[],[1],[35],[0.5833333333333334],"[640.0, 512.0]",horizontal,"(890.0, 762.0)",[1.4],[0.541],1,3689.312
7,False,385,1.088,65,[],[],"[(1139, 844)]",[],[1],[31],[0.5166666666666666],"[640.0, 512.0]",horizontal,"(390.0, 262.0)",[1.4333333333333333],[0.475],1,3696.527
7,False,386,0.509,30,[],[],"[(1148, 866)]",[],[1],[34],[0.5666666666666667],"[640.0, 512.0]",horizontal,"(890.0, 762.0)",[0.6333333333333333],[0.521],1,3701.601
7,False,387,1.154,69,[],[],"[(1118, 868)]",[],[1],[45],[0.75],"[640.0, 512.0]",horizontal,"(390.0, 262.0)",[1.35],[0.704],1,3705.211
7,False,388,1.125,67,[],[],"[(1099, 852)]",[],[1],[32],[0.5333333333333333],"[640.0, 512.0]",horizontal,"(890.0, 262.0)",[0.5833333333333334],[0.493],1,3710.374
7,False,389,1.061,63,[],[],"[(1123, 854)]",[],[1],[36],[0.6],"[640.0, 512.0]",vertical,"(390.0, 762.0)",[1.3666666666666667],[0.566],1,3714.707
7,False,390,1.169,70,[],[],"[(1104, 847)]",[],[1],[44],[0.7333333333333333],"[640.0, 512.0]",vertical,"(390.0, 262.0)",[0.7166666666666667],[0.693],1,3719.555
7,False,391,0.863,51,[],[],"[(1115, 847)]",[],[1],[37],[0.6166666666666667],"[640.0, 512.0]",horizontal,"(390.0, 762.0)",[1.0833333333333333],[0.575],1,3724.198
7,False,392,0.895,53,[],[],"[(1153, 874)]",[],[1],[34],[0.5666666666666667],"[640.0, 512.0]",vertical,"(390.0, 262.0)",[1.6],[0.522],1,3728.63
7,False,393,0.962,57,[],[],"[(1121, 847)]",[],[1],[45],[0.75],"[640.0, 512.0]",horizontal,"(390.0, 762.0)",[1.05],[0.703],1,3737.293
7,False,394,0.605,36,[],[],"[(1124, 860)]",[],[1],[32],[0.5333333333333333],"[640.0, 512.0]",vertical,"(890.0, 262.0)",[0.9666666666666667],[0.49],1,3741.875
7,False,395,1.173,70,[],[],"[(1169, 860)]",[],[1],[36],[0.6],"[640.0, 512.0]",horizontal,"(890.0, 762.0)",[1.1],[0.56],1,3745.985
7,False,396,1.181,70,[],[],"[(1153, 866)]",[],[1],[42],[0.7],"[640.0, 512.0]",vertical,"(890.0, 262.0)",[1.15],[0.657],1,3750.891
7,False,397,0.618,37,[],[],"[(1118, 846)]",[],[1],[34],[0.5666666666666667],"[640.0, 512.0]",vertical,"(390.0, 762.0)",[0.75],[0.524],1,3755.747
7,False,398,0.946,56,[],[],"[(1138, 856)]",[],[1],[34],[0.5666666666666667],"[640.0, 512.0]",horizontal,"(390.0, 262.0)",[0.5333333333333333],[0.524],1,3759.629
7,False,399,1.06,63,[],[],"[(1087, 845)]",[],[1],[35],[0.5833333333333334],"[640.0, 512.0]",horizontal,"(390.0, 762.0)",[0.8666666666666667],[0.543],1,3763.641
7,False,400,0.832,49,[],[],"[(1093, 852)]",[],[1],[33],[0.55],"[640.0, 512.0]",horizontal,"(890.0, 262.0)",[0.6],[0.507],1,3768.629
7,False,401,0.874,52,[],[],"[(1100, 877)]",[],[1],[28],[0.4666666666666667],"[640.0, 512.0]",horizontal,"(390.0, 262.0)",[1.35],[0.428],1,3772.457
7,False,402,1.178,70,[],[],"[(1152, 855)]",[],[1],[32],[0.5333333333333333],"[640.0, 512.0]",horizontal,"(890.0, 262.0)",[1.2166666666666666],[0.494],1,3777.475
7,False,403,0.56,33,[],[],"[(1115, 838)]",[],[1],[35],[0.5833333333333334],"[640.0, 512.0]",horizontal,"(390.0, 262.0)",[1.0833333333333333],[0.542],1,3782.307
7,False,404,1.157,69,[],[],"[(1080, 831)]",[],[1],[37],[0.6166666666666667],"[640.0, 512.0]",vertical,"(390.0, 762.0)",[1.1333333333333333],[0.58],1,3786.568
7,False,405,0.892,53,[],[],"[(1154, 830)]",[],[1],[34],[0.5666666666666667],"[640.0, 512.0]",horizontal,"(390.0, 762.0)",[1.0],[0.527],1,3798.538
7,False,406,1.188,71,[],[],"[(1148, 850)]",[],[1],[34],[0.5666666666666667],"[640.0, 512.0]",horizontal,"(890.0, 262.0)",[1.5],[0.526],1,3803.04
7,False,407,1.149,68,[],[],"[(1142, 859)]",[],[1],[33],[0.55],"[640.0, 512.0]",horizontal,"(890.0, 762.0)",[1.2833333333333332],[0.509],1,3808.074
7,False,408,0.883,52,[],[],"[(1120, 870)]",[],[1],[39],[0.65],"[640.0, 512.0]",horizontal,"(890.0, 262.0)",[0.85],[0.606],1,3812.992
7,False,409,1.123,67,[],[],"[(1154, 847)]",[],[1],[37],[0.6166666666666667],"[640.0, 512.0]",vertical,"(890.0, 762.0)",[0.95],[0.575],1,3817.371
7,False,410,0.56,33,[],[],"[(1140, 869)]",[],[1],[34],[0.5666666666666667],"[640.0, 512.0]",horizontal,"(390.0, 262.0)",[0.9],[0.531],1,3821.944
7,False,411,1.039,62,[],[],"[(1136, 864)]",[],[1],[32],[0.5333333333333333],"[640.0, 512.0]",horizontal,"(890.0, 762.0)",[0.5666666666666667],[0.497],1,3825.921
7,False,412,1.075,64,[],[],"[(1123, 863)]",[],[1],[],[],"[640.0, 512.0]",vertical,"(390.0, 762.0)",[],[0],0,3829.908
7,False,413,0.584,35,[],[],"[(1106, 857)]",[],[1],[39],[0.65],"[640.0, 512.0]",horizontal,"(890.0, 262.0)",[0.75],[0.599],1,3834.154
7,False,414,1.044,62,[],[],"[(1130, 847)]",[],[1],[34],[0.5666666666666667],"[640.0, 512.0]",vertical,"(890.0, 762.0)",[1.5333333333333332],[0.524],1,3839.486
7,False,415,1.056,63,[],[],"[(1125, 874)]",[],[1],[38],[0.6333333333333333],"[640.0, 512.0]",vertical,"(890.0, 262.0)",[0.8333333333333334],[0.595],1,3844.524
7,False,416,0.6,36,[],[],"[(1154, 852)]",[],[1],[34],[0.5666666666666667],"[640.0, 512.0]",vertical,"(890.0, 762.0)",[0.8333333333333334],[0.53],1,3849.101
7,False,417,0.947,56,[],[],"[(1133, 846)]",[],[1],[34],[0.5666666666666667],"[640.0, 512.0]",vertical,"(390.0, 762.0)",[1.0333333333333332],[0.524],1,3853.078
7,False,418,0.557,33,[],[],"[(1123, 850)]",[],[1],[38],[0.6333333333333333],"[640.0, 512.0]",horizontal,"(890.0, 762.0)",[1.2833333333333332],[0.587],1,3857.639
7,False,419,0.671,40,[],[],"[(1121, 847)]",[],[1],[42],[0.7],"[640.0, 512.0]",vertical,"(390.0, 762.0)",[1.5166666666666666],[0.66],1,3862.071
7,False,420,0.723,43,[],[],"[(1121, 841)]",[],[1],[51],[0.85],"[640.0, 512.0]",vertical,"(390.0, 262.0)",[1.6833333333333333],[0.807],0,3867.675
8,False,421,1.043,62,[],[],"[(1118, 847)]",[],[1],[42],[0.7],"[640.0, 512.0]",vertical,"(390.0, 262.0)",[1.1833333333333333],[0.658],1,3872.784
8,False,422,1.003,60,[],[],"[(1143, 850)]",[],[1],[51],[0.85],"[640.0, 512.0]",vertical,"(890.0, 762.0)",[1.05],[0.81],0,3877.753
8,False,423,0.998,59,[],[],"[(1117, 836)]",[],[1],[34],[0.5666666666666667],"[640.0, 512.0]",vertical,"(890.0, 762.0)",[1.5833333333333333],[0.525],1,3882.586
8,False,424,0.548,32,[],[],"[(1160, 838)]",[],[1],[34],[0.5666666666666667],"[640.0, 512.0]",horizontal,"(390.0, 762.0)",[0.7666666666666666],[0.525],1,3887.844
8,False,425,0.894,53,[],[],"[(1155, 846)]",[],[1],[30],[0.5],"[640.0, 512.0]",vertical,"(890.0, 762.0)",[0.7166666666666667],[0.468],1,3891.609
8,False,426,0.638,38,[],[],"[(1153, 860)]",[],[1],[33],[0.55],"[640.0, 512.0]",horizontal,"(390.0, 762.0)",[1.6666666666666667],[0.51],1,3895.69
8,False,427,0.523,31,[],[],"[(1126, 881)]",[],[1],[45],[0.75],"[640.0, 512.0]",vertical,"(390.0, 762.0)",[1.6166666666666667],[0.706],1,3900.651
8,False,428,0.945,56,[],[],"[(1074, 856)]",[],[1],[33],[0.55],"[640.0, 512.0]",horizontal,"(890.0, 262.0)",[0.85],[0.508],1,3905.452
8,False,429,0.741,44,[],[],"[(1069, 857)]",[],[1],[32],[0.5333333333333333],"[640.0, 512.0]",horizontal,"(390.0, 262.0)",[1.6166666666666667],[0.494],1,3915.072
8,False,430,1.039,62,[],[],"[(1148, 865)]",[],[1],[42],[0.7],"[640.0, 512.0]",vertical,"(890.0, 762.0)",[1.4],[0.655],1,3920.123
8,False,431,0.74,44,[],[],"[(1118, 860)]",[],[1],[41],[0.6833333333333333],"[640.0, 512.0]",vertical,"(890.0, 262.0)",[0.5666666666666667],[0.648],1,3925.192
8,False,432,0.625,37,[],[],"[(1149, 856)]",[],[1],[31],[0.5166666666666666],"[640.0, 512.0]",vertical,"(390.0, 262.0)",[1.2166666666666666],[0.475],1,3929.238
8,False,433,1.08,64,[],[],"[(1153, 884)]",[],[1],[30],[0.5],"[640.0, 512.0]",horizontal,"(390.0, 262.0)",[0.6333333333333333],[0.459],1,3933.557
8,False,434,0.952,57,[],[],"[(1123, 855)]",[],[1],[34],[0.5666666666666667],"[640.0, 512.0]",vertical,"(390.0, 762.0)",[0.6],[0.526],1,3937.874
8,False,435,0.551,33,[],[],"[(1117, 860)]",[],[1],[37],[0.6166666666666667],"[640.0, 512.0]",vertical,"(390.0, 262.0)",[1.05],[0.573],1,3941.918
8,False,436,0.65,39,[],[],"[(1148, 851)]",[],[1],[34],[0.5666666666666667],"[640.0, 512.0]",vertical,"(890.0, 262.0)",[0.8],[0.524],1,3946.104
8,False,437,0.582,34,[],[],"[(1120, 871)]",[],[1],[34],[0.5666666666666667],"[640.0, 512.0]",vertical,"(890.0, 762.0)",[0.8],[0.522],1,3950.128
8,False,438,0.921,55,[],[],"[(1148, 869)]",[],[1],[34],[0.5666666666666667],"[640.0, 512.0]",horizontal,"(390.0, 762.0)",[1.0333333333333332],[0.524],1,3954.091
8,False,439,0.507,30,[],[],"[(1118, 869)]",[],[1],[33],[0.55],"[640.0, 512.0]",vertical,"(890.0, 262.0)",[1.4],[0.504],1,3958.523
8,False,440,0.646,38,[],[],"[(1118, 862)]",[],[1],[51],[0.85],"[640.0, 512.0]",horizontal,"(390.0, 762.0)",[1.5666666666666667],[0.805],0,3962.795
8,False,441,1.141,68,[],[],"[(1117, 860)]",[],[1],[34],[0.5666666666666667],"[640.0, 512.0]",vertical,"(890.0, 262.0)",[1.3833333333333333],[0.52],1,3967.786
8,False,442,0.731,43,[],[],"[(1123, 860)]",[],[1],[33],[0.55],"[640.0, 512.0]",vertical,"(890.0, 262.0)",[1.4833333333333334],[0.517],1,3981.92
8,False,443,0.593,35,[],[],"[(1117, 855)]",[],[1],[30],[0.5],"[640.0, 512.0]",vertical,"(890.0, 262.0)",[0.8],[0.46],1,3986.655
8,False,444,0.819,49,[],[],"[(1118, 832)]",[],[1],[33],[0.55],"[640.0, 512.0]",vertical,"(390.0, 262.0)",[0.75],[0.509],1,3990.379
8,False,445,0.792,47,[],[],"[(1124, 849)]",[],[1],[31],[0.5166666666666666],"[640.0, 512.0]",vertical,"(390.0, 262.0)",[1.4833333333333334],[0.473],1,3995.387
8,False,446,0.831,49,[],[],"[(1121, 866)]",[],[1],[33],[0.55],"[640.0, 512.0]",vertical,"(390.0, 262.0)",[1.1],[0.51],1,4000.003
8,False,447,1.128,67,[],[],"[(1124, 859)]",[],[1],[31],[0.5166666666666666],"[640.0, 512.0]",horizontal,"(890.0, 262.0)",[1.6166666666666667],[0.475],1,4004.506
8,False,448,1.005,60,[],[],"[(1125, 859)]",[],[1],[33],[0.55],"[640.0, 512.0]",horizontal,"(890.0, 262.0)",[1.2166666666666666],[0.512],1,4009.747
8,False,449,1.024,61,[],[],"[(1160, 871)]",[],[1],[34],[0.5666666666666667],"[640.0, 512.0]",horizontal,"(390.0, 762.0)",[1.5],[0.527],1,4014.389
8,False,450,0.849,50,[],[],"[(1116, 870)]",[],[1],[33],[0.55],"[640.0, 512.0]",vertical,"(390.0, 762.0)",[1.1666666666666667],[0.514],1,4019.339
8,False,451,0.678,40,[],[],"[(1142, 863)]",[],[1],[51],[0.85],"[640.0, 512.0]",horizontal,"(390.0, 262.0)",[1.45],[0.801],0,4023.752
8,False,452,0.893,53,[],[],"[(1172, 893)]",[],[1],[43],[0.7166666666666667],"[640.0, 512.0]",vertical,"(890.0, 262.0)",[1.7],[0.671],1,4028.771
8,False,453,1.086,65,[],[],"[(1123, 850)]",[],[1],[33],[0.55],"[640.0, 512.0]",vertical,"(390.0, 762.0)",[1.05],[0.514],1,4087.023
8,False,454,0.969,58,[],[],"[(1162, 856)]",[],[1],[34],[0.5666666666666667],"[640.0, 512.0]",vertical,"(890.0, 762.0)",[1.0666666666666667],[0.524],1,4091.588
8,False,455,0.651,39,[],[],"[(1144, 842)]",[],[1],[33],[0.55],"[640.0, 512.0]",horizontal,"(390.0, 762.0)",[0.55],[0.51],1,4096.144
8,False,456,0.791,47,[],[],"[(1149, 865)]",[],[1],[32],[0.5333333333333333],"[640.0, 512.0]",horizontal,"(390.0, 262.0)",[1.6333333333333333],[0.493],1,4099.814
8,False,457,1.141,68,[],[],"[(1142, 919)]",[],[1],[34],[0.5666666666666667],"[640.0, 512.0]",horizontal,"(390.0, 262.0)",[0.9666666666666667],[0.526],1,4104.737
8,False,458,0.764,45,[],[],"[(1098, 865)]",[],[1],[35],[0.5833333333333334],"[640.0, 512.0]",vertical,"(390.0, 262.0)",[0.9666666666666667],[0.54],1,4442.648
8,False,459,0.886,53,[],[],"[(1114, 864)]",[],[1],[35],[0.5833333333333334],"[640.0, 512.0]",vertical,"(890.0, 762.0)",[1.1666666666666667],[0.54],1,4447.046
8,False,460,0.78,46,[],[],"[(1123, 889)]",[],[1],[37],[0.6166666666666667],"[640.0, 512.0]",horizontal,"(890.0, 762.0)",[1.6666666666666667],[0.574],1,4451.519
8,False,461,1.192,71,[],[],"[(1119, 898)]",[],[1],[36],[0.6],"[640.0, 512.0]",horizontal,"(390.0, 262.0)",[0.9333333333333333],[0.555],1,4456.417
8,False,462,0.697,41,[],[],"[(1117, 876)]",[],[1],[34],[0.5666666666666667],"[640.0, 512.0]",vertical,"(390.0, 762.0)",[0.6833333333333333],[0.524],1,4461.137
8,False,463,0.761,45,[],[],"[(1139, 889)]",[],[1],[34],[0.5666666666666667],"[640.0, 512.0]",horizontal,"(390.0, 762.0)",[1.2666666666666666],[0.53],1,4465.107
8,False,464,0.841,50,[],[],"[(1081, 880)]",[],[1],[35],[0.5833333333333334],"[640.0, 512.0]",vertical,"(390.0, 762.0)",[0.6833333333333333],[0.541],1,4469.603
8,False,465,0.521,31,[],[],"[(1130, 873)]",[],[1],[34],[0.5666666666666667],"[640.0, 512.0]",horizontal,"(890.0, 262.0)",[1.5666666666666667],[0.522],1,4473.825
8,False,466,1.189,71,[],[],"[(1123, 888)]",[],[1],[36],[0.6],"[640.0, 512.0]",vertical,"(390.0, 762.0)",[0.5833333333333334],[0.557],1,4478.434
8,False,467,0.579,34,[],[],"[(1116, 874)]",[],[1],[34],[0.5666666666666667],"[640.0, 512.0]",vertical,"(890.0, 762.0)",[1.2666666666666666],[0.528],1,4482.805
8,False,468,1.079,64,[],[],"[(1115, 861)]",[],[1],[38],[0.6333333333333333],"[640.0, 512.0]",horizontal,"(890.0, 762.0)",[0.65],[0.591],1,4487.156
8,False,469,0.815,48,[],[],"[(1134, 876)]",[],[1],[34],[0.5666666666666667],"[640.0, 512.0]",vertical,"(890.0, 762.0)",[0.95],[0.522],1,4491.428
8,False,470,0.963,57,[],[],"[(1112, 870)]",[],[1],[37],[0.6166666666666667],"[640.0, 512.0]",vertical,"(390.0, 262.0)",[1.45],[0.574],1,4495.782
8,False,471,0.992,59,[],[],"[(1113, 880)]",[],[1],[34],[0.5666666666666667],"[640.0, 512.0]",horizontal,"(890.0, 262.0)",[1.5],[0.525],1,4500.611
8,False,472,0.867,52,[],[],"[(1133, 862)]",[],[1],[37],[0.6166666666666667],"[640.0, 512.0]",vertical,"(890.0, 262.0)",[1.3166666666666667],[0.568],1,4505.529
8,False,473,0.98,58,[],[],"[(1130, 863)]",[],[1],[35],[0.5833333333333334],"[640.0, 512.0]",horizontal,"(390.0, 762.0)",[0.6],[0.54],1,4510.208
8,False,474,0.806,48,[],[],"[(1121, 864)]",[],[1],[33],[0.55],"[640.0, 512.0]",horizontal,"(390.0, 262.0)",[1.1],[0.51],1,4514.308
8,False,475,1.058,63,[],[],"[(1120, 888)]",[],[1],[51],[0.85],"[640.0, 512.0]",horizontal,"(890.0, 762.0)",[1.55],[0.807],0,4518.733
8,False,476,1.034,62,[],[],"[(1115, 879)]",[],[1],[33],[0.55],"[640.0, 512.0]",horizontal,"(890.0, 262.0)",[1.4666666666666666],[0.512],1,4524.146
8,False,477,1.062,63,[],[],"[(1108, 862)]",[],[1],[41],[0.6833333333333333],"[640.0, 512.0]",vertical,"(390.0, 262.0)",[1.5],[0.642],1,4536.103
8,False,478,1.01,60,[],[],"[(1105, 825)]",[],[1],[35],[0.5833333333333334],"[640.0, 512.0]",vertical,"(390.0, 762.0)",[0.75],[0.537],1,4541.566
8,False,479,1.106,66,[],[],"[(1153, 868)]",[],[1],[35],[0.5833333333333334],"[640.0, 512.0]",vertical,"(890.0, 762.0)",[0.95],[0.545],1,4547.356
8,False,480,1.16,69,[],[],"[(1136, 868)]",[],[1],[32],[0.5333333333333333],"[640.0, 512.0]",horizontal,"(390.0, 262.0)",[1.25],[0.494],1,4552.05
9,False,481,0.666,39,[],[],"[(1150, 873)]",[],[1],[33],[0.55],"[640.0, 512.0]",vertical,"(890.0, 262.0)",[1.3166666666666667],[0.512],1,4556.93
9,False,482,0.568,34,[],[],"[(1143, 866)]",[],[1],[35],[0.5833333333333334],"[640.0, 512.0]",horizontal,"(390.0, 762.0)",[0.5333333333333333],[0.537],1,4561.391
9,False,483,0.946,56,[],[],"[(1107, 847)]",[],[1],[38],[0.6333333333333333],"[640.0, 512.0]",horizontal,"(890.0, 762.0)",[0.7166666666666667],[0.594],1,4606.693
9,False,484,0.917,55,[],[],"[(1113, 854)]",[],[1],[32],[0.5333333333333333],"[640.0, 512.0]",vertical,"(890.0, 262.0)",[1.2333333333333334],[0.492],1,4610.992
9,False,485,0.671,40,[],[],"[(1119, 843)]",[],[1],[31],[0.5166666666666666],"[640.0, 512.0]",horizontal,"(390.0, 262.0)",[0.6166666666666667],[0.475],1,4615.671
9,False,486,0.917,55,[],[],"[(1118, 851)]",[],[1],[32],[0.5333333333333333],"[640.0, 512.0]",vertical,"(390.0, 262.0)",[0.55],[0.491],1,4620.37
9,False,487,0.933,55,[],[],"[(1093, 877)]",[],[1],[],[],"[640.0, 512.0]",vertical,"(390.0, 262.0)",[],[0],0,4624.305
9,False,488,0.563,33,[],[],"[(1093, 846)]",[],[1],[34],[0.5666666666666667],"[640.0, 512.0]",horizontal,"(890.0, 262.0)",[0.9833333333333333],[0.521],1,4628.369
9,False,489,1.106,66,[],[],"[(1160, 866)]",[],[1],[42],[0.7],"[640.0, 512.0]",vertical,"(390.0, 262.0)",[0.75],[0.654],1,4633.136
9,False,490,1.155,69,[],[],"[(1099, 868)]",[],[1],[33],[0.55],"[640.0, 512.0]",vertical,"(890.0, 262.0)",[0.85],[0.508],1,4637.606
9,False,491,0.586,35,[],[],"[(1114, 868)]",[],[1],[36],[0.6],"[640.0, 512.0]",vertical,"(890.0, 762.0)",[0.6833333333333333],[0.552],1,4643.156
9,False,492,0.825,49,[],[],"[(1123, 856)]",[],[1],[35],[0.5833333333333334],"[640.0, 512.0]",horizontal,"(890.0, 762.0)",[1.3166666666666667],[0.542],1,4647.026
9,False,493,1.003,60,[],[],"[(1113, 860)]",[],[1],[34],[0.5666666666666667],"[640.0, 512.0]",horizontal,"(890.0, 762.0)",[1.2166666666666666],[0.527],1,4651.71
9,False,494,0.538,32,[],[],"[(1111, 877)]",[],[1],[31],[0.5166666666666666],"[640.0, 512.0]",vertical,"(890.0, 762.0)",[0.6],[0.472],1,4656.396
9,False,495,0.517,31,[],[],"[(1110, 875)]",[],[1],[35],[0.5833333333333334],"[640.0, 512.0]",horizontal,"(390.0, 762.0)",[1.5833333333333333],[0.544],1,4659.977
9,False,496,0.815,48,[],[],"[(1130, 870)]",[],[1],[32],[0.5333333333333333],"[640.0, 512.0]",vertical,"(890.0, 262.0)",[0.9],[0.491],1,4664.793
9,False,497,0.54,32,[],[],"[(1143, 867)]",[],[1],[35],[0.5833333333333334],"[640.0, 512.0]",vertical,"(890.0, 762.0)",[1.35],[0.542],1,4668.976
9,False,498,0.98,58,[],[],"[(1132, 884)]",[],[1],[35],[0.5833333333333334],"[640.0, 512.0]",vertical,"(890.0, 762.0)",[0.65],[0.549],1,4673.441
9,False,499,0.782,46,[],[],"[(1120, 859)]",[],[1],[31],[0.5166666666666666],"[640.0, 512.0]",vertical,"(890.0, 262.0)",[0.7666666666666666],[0.475],1,4677.594
9,False,500,0.908,54,[],[],"[(1142, 867)]",[],[1],[35],[0.5833333333333334],"[640.0, 512.0]",vertical,"(890.0, 762.0)",[0.6833333333333333],[0.538],1,4681.687
9,False,501,1.004,60,[],[],"[(1148, 868)]",[],[1],[34],[0.5666666666666667],"[640.0, 512.0]",horizontal,"(890.0, 762.0)",[0.7],[0.52],1,4685.876
9,False,502,0.803,48,[],[],"[(1102, 874)]",[],[1],[34],[0.5666666666666667],"[640.0, 512.0]",vertical,"(390.0, 762.0)",[1.1333333333333333],[0.527],1,4690.022
9,False,503,0.816,48,[],[],"[(1136, 864)]",[],[1],[35],[0.5833333333333334],"[640.0, 512.0]",vertical,"(890.0, 762.0)",[1.6833333333333333],[0.547],1,4694.422
9,False,504,0.808,48,[],[],"[(1148, 867)]",[],[1],[32],[0.5333333333333333],"[640.0, 512.0]",vertical,"(890.0, 262.0)",[1.2333333333333334],[0.506],1,4699.398
9,False,505,0.606,36,[],[],"[(1117, 889)]",[],[1],[32],[0.5333333333333333],"[640.0, 512.0]",vertical,"(890.0, 762.0)",[0.5166666666666666],[0.489],1,4703.991
9,False,506,0.922,55,[],[],"[(1166, 877)]",[],[1],[37],[0.6166666666666667],"[640.0, 512.0]",horizontal,"(390.0, 762.0)",[1.2166666666666666],[0.575],1,4707.647
9,False,507,0.555,33,[],[],"[(1099, 873)]",[],[1],[31],[0.5166666666666666],"[640.0, 512.0]",vertical,"(390.0, 262.0)",[1.5666666666666667],[0.479],1,4712.478
9,False,508,0.55,33,[],[],"[(1123, 850)]",[],[1],[34],[0.5666666666666667],"[640.0, 512.0]",horizontal,"(390.0, 262.0)",[1.2333333333333334],[0.524],1,4717.088
9,False,509,1.15,69,[],[],"[(1148, 863)]",[],[1],[35],[0.5833333333333334],"[640.0, 512.0]",vertical,"(890.0, 762.0)",[1.2],[0.546],1,4721.685
9,False,510,1.029,61,[],[],"[(1151, 868)]",[],[1],[35],[0.5833333333333334],"[640.0, 512.0]",vertical,"(390.0, 762.0)",[1.1666666666666667],[0.537],1,4726.608
9,False,511,0.778,46,[],[],"[(1148, 884)]",[],[1],[33],[0.55],"[640.0, 512.0]",vertical,"(890.0, 762.0)",[0.5166666666666666],[0.512],1,4731.458
9,False,512,0.909,54,[],[],"[(1126, 868)]",[],[1],[39],[0.65],"[640.0, 512.0]",vertical,"(890.0, 262.0)",[0.5333333333333333],[0.61],1,4735.224
9,False,513,0.9,54,[],[],"[(1120, 879)]",[],[1],[33],[0.55],"[640.0, 512.0]",horizontal,"(390.0, 262.0)",[0.9],[0.508],1,4739.27
9,False,514,0.861,51,[],[],"[(1143, 855)]",[],[1],[35],[0.5833333333333334],"[640.0, 512.0]",vertical,"(390.0, 762.0)",[0.8166666666666667],[0.545],1,4744.489
9,False,515,0.959,57,[],[],"[(1118, 843)]",[],[1],[40],[0.6666666666666666],"[640.0, 512.0]",vertical,"(390.0, 762.0)",[1.1166666666666667],[0.623],1,4748.624
9,False,516,0.947,56,[],[],"[(1123, 869)]",[],[1],[32],[0.5333333333333333],"[640.0, 512.0]",vertical,"(890.0, 262.0)",[1.3666666666666667],[0.492],1,4753.293
9,False,517,0.532,31,[],[],"[(1108, 856)]",[],[1],[34],[0.5666666666666667],"[640.0, 512.0]",horizontal,"(390.0, 762.0)",[0.6666666666666666],[0.527],1,4758.176
9,False,518,1.101,66,[],[],"[(1093, 893)]",[],[1],[34],[0.5666666666666667],"[640.0, 512.0]",horizontal,"(390.0, 762.0)",[0.9],[0.525],1,4761.946
9,False,519,1.147,68,[],[],"[(1097, 870)]",[],[1],[42],[0.7],"[640.0, 512.0]",vertical,"(890.0, 262.0)",[1.05],[0.658],1,4766.412
9,False,520,0.693,41,[],[],"[(1136, 843)]",[],[1],[36],[0.6],"[640.0, 512.0]",horizontal,"(390.0, 762.0)",[1.0666666666666667],[0.557],1,4771.255
9,False,521,1.024,61,[],[],"[(1142, 847)]",[],[1],[34],[0.5666666666666667],"[640.0, 512.0]",horizontal,"(890.0, 262.0)",[1.0166666666666666],[0.522],1,4775.769
9,False,522,0.525,31,[],[],"[(1162, 872)]",[],[1],[36],[0.6],"[640.0, 512.0]",horizontal,"(390.0, 262.0)",[0.6333333333333333],[0.561],1,4780.261
9,False,523,0.912,54,[],[],"[(1161, 859)]",[],[1],[43],[0.7166666666666667],"[640.0, 512.0]",vertical,"(390.0, 262.0)",[0.8666666666666667],[0.679],1,4784.076
9,False,524,0.832,49,[],[],"[(1137, 855)]",[],[1],[33],[0.55],"[640.0, 512.0]",vertical,"(390.0, 762.0)",[0.75],[0.514],1,4788.431
9,False,525,0.831,49,[],[],"[(1123, 843)]",[],[1],"[51, 51]","[0.85, 0.85]","[640.0, 512.0]",horizontal,"(390.0, 262.0)",[0.7166666666666667],"[0.809, 0.809]",0,4792.498
9,False,526,0.824,49,[],[],"[(1130, 846)]",[],[1],[33],[0.55],"[640.0, 512.0]",vertical,"(890.0, 262.0)",[1.45],[0.518],1,4797.405
9,False,527,0.623,37,[],[],"[(1123, 879)]",[],[1],[31],[0.5166666666666666],"[640.0, 512.0]",vertical,"(890.0, 262.0)",[1.4833333333333334],[0.476],1,4810.328
9,False,528,0.53,31,[],[],"[(1117, 831)]",[],[1],[29],[0.48333333333333334],"[640.0, 512.0]",horizontal,"(890.0, 262.0)",[1.55],[0.448],1,4816.562
9,False,529,0.739,44,[],[],"[(1123, 862)]",[],[1],[34],[0.5666666666666667],"[640.0, 512.0]",vertical,"(390.0, 262.0)",[1.2666666666666666],[0.524],1,4820.955
9,False,530,0.769,46,[],[],"[(1124, 841)]",[],[1],[35],[0.5833333333333334],"[640.0, 512.0]",vertical,"(890.0, 762.0)",[0.8333333333333334],[0.551],1,4825.524
9,False,531,0.673,40,[],[],"[(1128, 856)]",[],[1],[33],[0.55],"[640.0, 512.0]",horizontal,"(390.0, 762.0)",[1.15],[0.512],1,4829.585
9,False,532,0.774,46,[],[],"[(1153, 849)]",[],[1],[36],[0.6],"[640.0, 512.0]",vertical,"(390.0, 762.0)",[0.6166666666666667],[0.557],1,4833.826
9,False,533,0.609,36,[],[],"[(1148, 860)]",[],[1],[35],[0.5833333333333334],"[640.0, 512.0]",vertical,"(890.0, 762.0)",[1.05],[0.545],1,4837.825
9,False,534,0.791,47,[],[],"[(1148, 860)]",[],[1],[34],[0.5666666666666667],"[640.0, 512.0]",vertical,"(390.0, 762.0)",[0.9166666666666666],[0.529],1,4842.153
9,False,535,1.199,71,[],[],"[(1129, 856)]",[],[1],[18],[0.3],"[640.0, 512.0]",horizontal,"(890.0, 262.0)",[0.85],[0.268],1,4846.422
9,False,536,1.069,64,[],[],"[(1136, 867)]",[],[1],[34],[0.5666666666666667],"[640.0, 512.0]",vertical,"(390.0, 762.0)",[0.7166666666666667],[0.524],1,4850.711
9,False,537,0.745,44,[],[],"[(1185, 850)]",[],[1],[32],[0.5333333333333333],"[640.0, 512.0]",horizontal,"(890.0, 262.0)",[1.0666666666666667],[0.496],1,4855.01
9,False,538,0.827,49,[],[],"[(1154, 872)]",[],[1],[38],[0.6333333333333333],"[640.0, 512.0]",vertical,"(890.0, 762.0)",[0.5833333333333334],[0.59],1,4859.458
9,False,539,0.63,37,[],[],"[(1158, 850)]",[],[1],[34],[0.5666666666666667],"[640.0, 512.0]",vertical,"(390.0, 762.0)",[0.5],[0.526],1,4863.474
9,False,540,0.524,31,[],[],"[(1117, 860)]",[],[1],[36],[0.6],"[640.0, 512.0]",horizontal,"(390.0, 262.0)",[1.65],[0.558],1,4867.005
10,False,541,0.713,42,[],[],"[(1163, 854)]",[],[1],[33],[0.55],"[640.0, 512.0]",vertical,"(390.0, 262.0)",[0.5333333333333333],[0.51],1,4871.703
10,False,542,0.733,43,[],[],"[(1167, 846)]",[],[1],[35],[0.5833333333333334],"[640.0, 512.0]",horizontal,"(390.0, 762.0)",[1.2333333333333334],[0.545],1,4875.46
10,False,543,0.653,39,[],[],"[(1125, 867)]",[],[1],[33],[0.55],"[640.0, 512.0]",vertical,"(890.0, 262.0)",[1.2833333333333332],[0.52],1,4879.894
10,False,544,1.052,63,[],[],"[(1117, 850)]",[],[1],[42],[0.7],"[640.0, 512.0]",horizontal,"(890.0, 762.0)",[1.3333333333333333],[0.655],1,4884.337
10,False,545,0.896,53,[],[],"[(1148, 852)]",[],[1],[34],[0.5666666666666667],"[640.0, 512.0]",horizontal,"(390.0, 262.0)",[1.2166666666666666],[0.521],1,4889.365
10,False,546,0.732,43,[],[],"[(1146, 870)]",[],[1],[33],[0.55],"[640.0, 512.0]",vertical,"(390.0, 762.0)",[1.1666666666666667],[0.518],1,4894.095
10,False,547,1.066,63,[],[],"[(1118, 851)]",[],[1],[32],[0.5333333333333333],"[640.0, 512.0]",vertical,"(390.0, 262.0)",[1.3666666666666667],[0.496],1,4898.389
10,False,548,0.643,38,[],[],"[(1099, 860)]",[],[1],[33],[0.55],"[640.0, 512.0]",vertical,"(390.0, 762.0)",[1.5333333333333332],[0.511],1,4903.37
10,False,549,0.726,43,[],[],"[(1140, 841)]",[],[1],[31],[0.5166666666666666],"[640.0, 512.0]",horizontal,"(890.0, 262.0)",[0.95],[0.476],1,4908.042
10,False,550,0.631,37,[],[],"[(1178, 851)]",[],[1],[37],[0.6166666666666667],"[640.0, 512.0]",horizontal,"(390.0, 762.0)",[1.2],[0.582],1,4912.178
10,False,551,0.605,36,[],[],"[(1114, 855)]",[],[1],[45],[0.75],"[640.0, 512.0]",vertical,"(390.0, 762.0)",[0.5],[0.705],1,4916.578
10,False,552,0.733,43,[],[],"[(1113, 851)]",[],[1],[37],[0.6166666666666667],"[640.0, 512.0]",vertical,"(890.0, 262.0)",[0.9],[0.573],1,4928.676
10,False,553,0.76,45,[],[],"[(1122, 854)]",[],[1],[34],[0.5666666666666667],"[640.0, 512.0]",horizontal,"(390.0, 762.0)",[0.6833333333333333],[0.524],1,4932.941
10,False,554,1.007,60,[],[],"[(1122, 868)]",[],[1],[35],[0.5833333333333334],"[640.0, 512.0]",horizontal,"(890.0, 262.0)",[1.6833333333333333],[0.543],1,4936.808
10,False,555,0.793,47,[],[],"[(1121, 861)]",[],[1],[37],[0.6166666666666667],"[640.0, 512.0]",horizontal,"(390.0, 762.0)",[1.65],[0.574],1,4941.92
10,False,556,0.691,41,[],[],"[(1137, 841)]",[],[1],[41],[0.6833333333333333],"[640.0, 512.0]",horizontal,"(890.0, 762.0)",[1.4333333333333333],[0.642],1,4997.89
10,False,557,0.829,49,[],[],"[(1123, 846)]",[],[1],[37],[0.6166666666666667],"[640.0, 512.0]",vertical,"(390.0, 762.0)",[1.0166666666666666],[0.575],1,5002.531
10,False,558,1.168,70,[],[],"[(1117, 860)]",[],[1],[35],[0.5833333333333334],"[640.0, 512.0]",horizontal,"(890.0, 762.0)",[1.6666666666666667],[0.542],1,5006.914
10,False,559,0.929,55,[],[],"[(1136, 918)]",[],[1],[34],[0.5666666666666667],"[640.0, 512.0]",vertical,"(390.0, 262.0)",[0.8],[0.52],1,5012.271
10,False,560,0.771,46,[],[],"[(1136, 878)]",[],[1],[35],[0.5833333333333334],"[640.0, 512.0]",horizontal,"(890.0, 762.0)",[1.1],[0.541],1,5241.108
10,False,561,0.954,57,[],[],"[(1137, 850)]",[],[1],[39],[0.65],"[640.0, 512.0]",vertical,"(890.0, 262.0)",[0.6666666666666666],[0.607],1,5245.495
10,False,562,1.165,69,[],[],"[(1148, 847)]",[],[1],[45],[0.75],"[640.0, 512.0]",vertical,"(390.0, 262.0)",[1.45],[0.709],1,5249.639
10,False,563,0.672,40,[],[],"[(1129, 870)]",[],[1],[34],[0.5666666666666667],"[640.0, 512.0]",horizontal,"(390.0, 762.0)",[1.1333333333333333],[0.522],1,5254.816
10,False,564,0.507,30,[],[],"[(1140, 850)]",[],[1],[34],[0.5666666666666667],"[640.0, 512.0]",horizontal,"(390.0, 262.0)",[0.7666666666666666],[0.522],1,5258.992
10,False,565,0.908,54,[],[],"[(1116, 865)]",[],[1],[32],[0.5333333333333333],"[640.0, 512.0]",horizontal,"(390.0, 262.0)",[0.8333333333333334],[0.488],1,5262.796
10,False,566,0.55,33,[],[],"[(1142, 850)]",[],[1],[51],[0.85],"[640.0, 512.0]",horizontal,"(390.0, 262.0)",[1.3833333333333333],[0.798],0,5266.981
10,False,567,1.162,69,[],[],"[(1136, 856)]",[],[1],[],[],"[640.0, 512.0]",horizontal,"(890.0, 762.0)",[],[0],0,5311.77
10,False,568,1.138,68,[],[],"[(1093, 821)]",[],[1],[],[],"[640.0, 512.0]",horizontal,"(890.0, 262.0)",[],[0],0,5325.508
10,False,569,1.116,66,[],[],"[(1099, 831)]",[],[1],[],[],"[640.0, 512.0]",vertical,"(390.0, 262.0)",[],[0],0,5329.465
10,False,570,0.776,46,[],[],"[(1111, 818)]",[],[1],[37],[0.6166666666666667],"[640.0, 512.0]",vertical,"(390.0, 762.0)",[1.6166666666666667],[0.57],1,5333.757
10,False,571,0.814,48,[],[],"[(1112, 855)]",[],[1],"[51, 51]","[0.85, 0.85]","[640.0, 512.0]",vertical,"(890.0, 262.0)",[0.9333333333333333],"[0.799, 0.799]",0,5339.028
10,False,572,0.756,45,[],[],"[(1117, 845)]",[],[1],[36],[0.6],"[640.0, 512.0]",horizontal,"(390.0, 762.0)",[1.15],[0.555],1,5343.432
10,False,573,0.576,34,[],[],"[(1160, 870)]",[],[1],[34],[0.5666666666666667],"[640.0, 512.0]",vertical,"(890.0, 262.0)",[0.8333333333333334],[0.517],1,5348.278
10,False,574,1.096,65,[],[],"[(1150, 850)]",[],[1],[42],[0.7],"[640.0, 512.0]",vertical,"(890.0, 762.0)",[1.1833333333333333],[0.656],1,5352.158
10,False,575,0.628,37,[],[],"[(1151, 855)]",[],[1],[31],[0.5166666666666666],"[640.0, 512.0]",vertical,"(390.0, 262.0)",[0.95],[0.479],1,5356.958
10,False,576,1.023,61,[],[],"[(1157, 855)]",[],[1],[31],[0.5166666666666666],"[640.0, 512.0]",horizontal,"(390.0, 262.0)",[1.5666666666666667],[0.476],1,5360.892
10,False,577,0.936,56,[],[],"[(1136, 850)]",[],[1],[33],[0.55],"[640.0, 512.0]",horizontal,"(890.0, 762.0)",[0.55],[0.504],1,5365.994
10,False,578,0.837,50,[],[],"[(1095, 865)]",[],[1],[34],[0.5666666666666667],"[640.0, 512.0]",vertical,"(390.0, 262.0)",[1.2666666666666666],[0.526],1,5370.011
10,False,579,0.976,58,[],[],"[(1091, 849)]",[],[1],[33],[0.55],"[640.0, 512.0]",vertical,"(890.0, 262.0)",[1.1],[0.51],1,5374.616
10,False,580,0.61,36,[],[],"[(1111, 857)]",[],[1],[36],[0.6],"[640.0, 512.0]",horizontal,"(890.0, 762.0)",[1.1833333333333333],[0.56],1,5379.043
10,False,581,0.69,41,[],[],"[(1123, 860)]",[],[1],[36],[0.6],"[640.0, 512.0]",horizontal,"(890.0, 762.0)",[0.65],[0.557],1,5383.248
10,False,582,1.043,62,[],[],"[(1110, 868)]",[],[1],[33],[0.55],"[640.0, 512.0]",horizontal,"(390.0, 262.0)",[1.2833333333333332],[0.512],1,5387.106
10,False,583,0.899,53,[],[],"[(1178, 858)]",[],[1],[30],[0.5],"[640.0, 512.0]",horizontal,"(890.0, 762.0)",[0.95],[0.458],1,5398.611
10,False,584,0.661,39,[],[],"[(1136, 845)]",[],[1],[33],[0.55],"[640.0, 512.0]",vertical,"(890.0, 762.0)",[0.55],[0.509],1,5402.758
10,False,585,0.915,54,[],[],"[(1136, 850)]",[],[1],[34],[0.5666666666666667],"[640.0, 512.0]",vertical,"(890.0, 762.0)",[1.5333333333333332],[0.525],1,5406.327
10,False,586,0.779,46,[],[],"[(1136, 852)]",[],[1],[35],[0.5833333333333334],"[640.0, 512.0]",horizontal,"(890.0, 762.0)",[1.2333333333333334],[0.547],1,5411.143
10,False,587,1.005,60,[],[],"[(1153, 836)]",[],[1],[31],[0.5166666666666666],"[640.0, 512.0]",horizontal,"(890.0, 762.0)",[1.2666666666666666],[0.476],1,5415.582
10,False,588,1.043,62,[],[],"[(1190, 852)]",[],[1],[42],[0.7],"[640.0, 512.0]",vertical,"(890.0, 262.0)",[0.6333333333333333],[0.673],1,5420.152
10,False,589,0.596,35,[],[],"[(1165, 860)]",[],[1],[32],[0.5333333333333333],"[640.0, 512.0]",vertical,"(390.0, 262.0)",[1.2833333333333332],[0.491],1,5424.413
10,False,590,0.676,40,[],[],"[(1153, 855)]",[],[1],[37],[0.6166666666666667],"[640.0, 512.0]",horizontal,"(890.0, 262.0)",[1.05],[0.576],1,5428.706
10,False,591,0.804,48,[],[],"[(1145, 846)]",[],[1],[43],[0.7166666666666667],"[640.0, 512.0]",vertical,"(890.0, 762.0)",[1.65],[0.672],1,5432.96
10,False,592,0.512,30,[],[],"[(1170, 850)]",[],[1],[33],[0.55],"[640.0, 512.0]",horizontal,"(390.0, 262.0)",[1.2666666666666666],[0.507],1,5441.411
10,False,593,0.691,41,[],[],"[(1178, 841)]",[],[1],[38],[0.6333333333333333],"[640.0, 512.0]",vertical,"(390.0, 762.0)",[0.6833333333333333],[0.594],1,5445.661
10,False,594,0.692,41,[],[],"[(1184, 870)]",[],[1],[34],[0.5666666666666667],"[640.0, 512.0]",vertical,"(390.0, 262.0)",[1.6666666666666667],[0.533],1,5449.514
10,False,595,0.811,48,[],[],"[(1143, 859)]",[],[1],[33],[0.55],"[640.0, 512.0]",vertical,"(390.0, 762.0)",[1.25],[0.508],1,5457.896
10,False,596,0.916,54,[],[],"[(1121, 838)]",[],[1],[33],[0.55],"[640.0, 512.0]",vertical,"(890.0, 262.0)",[0.6833333333333333],[0.507],1,5462.299
10,False,597,0.801,48,[],[],"[(1123, 860)]",[],[1],[36],[0.6],"[640.0, 512.0]",vertical,"(390.0, 262.0)",[0.8833333333333333],[0.559],1,5466.209
10,False,598,0.689,41,[],[],"[(1123, 875)]",[],[1],[32],[0.5333333333333333],"[640.0, 512.0]",horizontal,"(890.0, 762.0)",[0.9166666666666666],[0.493],1,5470.362
10,False,599,1.044,62,[],[],"[(1148, 865)]",[],[1],[33],[0.55],"[640.0, 512.0]",horizontal,"(390.0, 262.0)",[0.6833333333333333],[0.508],1,5474.34
10,False,600,0.638,38,[],[],"[(1185, 849)]",[],[1],[42],[0.7],"[640.0, 512.0]",vertical,"(890.0, 762.0)",[0.9],[0.656],1,5558.341
11,False,601,0.736,44,[],[],"[(1184, 844)]",[],[1],[33],[0.55],"[640.0, 512.0]",horizontal,"(390.0, 262.0)",[0.6833333333333333],[0.51],1,5562.486
11,False,602,0.876,52,[],[],"[(1180, 858)]",[],[1],[41],[0.6833333333333333],"[640.0, 512.0]",vertical,"(390.0, 262.0)",[1.2166666666666666],[0.636],1,5566.33
11,False,603,1.172,70,[],[],"[(1118, 850)]",[],[1],[33],[0.55],"[640.0, 512.0]",horizontal,"(390.0, 762.0)",[0.8666666666666667],[0.507],1,5570.891
11,False,604,0.884,53,[],[],"[(1111, 849)]",[],[1],[43],[0.7166666666666667],"[640.0, 512.0]",horizontal,"(390.0, 762.0)",[1.4166666666666667],[0.675],1,5575.41
11,False,605,0.63,37,[],[],"[(1152, 817)]",[],[1],[36],[0.6],"[640.0, 512.0]",vertical,"(390.0, 262.0)",[0.5],[0.561],1,5580.251
11,False,606,0.931,55,[],[],"[(1151, 860)]",[],[1],[37],[0.6166666666666667],"[640.0, 512.0]",vertical,"(390.0, 762.0)",[1.65],[0.576],1,5583.849
11,False,607,0.601,36,[],[],"[(1117, 836)]",[],[1],[32],[0.5333333333333333],"[640.0, 512.0]",vertical,"(890.0, 262.0)",[0.7833333333333333],[0.492],1,5589.005
11,False,608,0.655,39,[],[],"[(1150, 842)]",[],[1],[35],[0.5833333333333334],"[640.0, 512.0]",horizontal,"(390.0, 262.0)",[1.15],[0.538],1,5592.764
11,False,609,0.604,36,[],[],"[(1167, 860)]",[],[1],[37],[0.6166666666666667],"[640.0, 512.0]",vertical,"(390.0, 762.0)",[1.5666666666666667],[0.575],1,5597.08
11,False,610,0.736,44,[],[],"[(1140, 855)]",[],[1],[34],[0.5666666666666667],"[640.0, 512.0]",horizontal,"(390.0, 762.0)",[1.55],[0.527],1,5601.784
11,False,611,1.168,70,[],[],"[(1133, 825)]",[],[1],[32],[0.5333333333333333],"[640.0, 512.0]",vertical,"(890.0, 262.0)",[1.0833333333333333],[0.49],1,5606.513
11,False,612,0.99,59,[],[],"[(1154, 854)]",[],[1],[35],[0.5833333333333334],"[640.0, 512.0]",vertical,"(390.0, 762.0)",[1.35],[0.538],1,5616.742
11,False,613,1.17,70,[],[],"[(1140, 846)]",[],[1],[33],[0.55],"[640.0, 512.0]",horizontal,"(890.0, 762.0)",[0.6],[0.506],1,5622.53
11,False,614,0.804,48,[],[],"[(1203, 898)]",[],[1],[33],[0.55],"[640.0, 512.0]",vertical,"(390.0, 762.0)",[1.4166666666666667],[0.507],1,5626.747
11,False,615,0.763,45,[],[],"[(1153, 826)]",[],[1],[33],[0.55],"[640.0, 512.0]",vertical,"(890.0, 262.0)",[1.25],[0.509],1,5649.103
11,False,616,1.149,68,[],[],"[(1142, 834)]",[],[1],[51],[0.85],"[640.0, 512.0]",vertical,"(390.0, 262.0)",[1.4],[0.802],0,5653.539
11,False,617,0.867,52,[],[],"[(1203, 862)]",[],[1],[31],[0.5166666666666666],"[640.0, 512.0]",horizontal,"(390.0, 262.0)",[1.6],[0.486],1,5658.843
11,False,618,1.005,60,[],[],"[(1160, 840)]",[],[1],[34],[0.5666666666666667],"[640.0, 512.0]",vertical,"(890.0, 262.0)",[1.3],[0.524],1,5663.697
11,False,619,0.709,42,[],[],"[(1148, 839)]",[],[1],[34],[0.5666666666666667],"[640.0, 512.0]",horizontal,"(390.0, 762.0)",[0.5666666666666667],[0.523],1,5668.393
11,False,620,0.901,54,[],[],"[(1136, 864)]",[],[1],[33],[0.55],"[640.0, 512.0]",horizontal,"(390.0, 262.0)",[1.05],[0.51],1,5672.047
11,False,621,0.683,40,[],[],"[(1116, 859)]",[],[1],[27],[0.45],"[640.0, 512.0]",vertical,"(890.0, 262.0)",[1.6333333333333333],[0.423],1,5959.978
11,False,622,1.059,63,[],[],"[(1095, 864)]",[],[1],[29],[0.48333333333333334],"[640.0, 512.0]",vertical,"(890.0, 262.0)",[0.9],[0.449],1,5964.526
11,False,623,1.084,65,[],[],"[(1118, 849)]",[],[1],[35],[0.5833333333333334],"[640.0, 512.0]",vertical,"(390.0, 262.0)",[1.2],[0.539],1,5968.913
11,False,624,0.636,38,[],[],"[(1146, 861)]",[],[1],[36],[0.6],"[640.0, 512.0]",vertical,"(890.0, 762.0)",[0.9833333333333333],[0.56],1,5973.547
11,False,625,0.782,46,[],[],"[(1118, 868)]",[],[1],[34],[0.5666666666666667],"[640.0, 512.0]",vertical,"(390.0, 762.0)",[0.7],[0.527],1,5977.609
11,False,626,0.715,42,[],[],"[(1087, 873)]",[],[1],[36],[0.6],"[640.0, 512.0]",horizontal,"(390.0, 762.0)",[1.45],[0.559],1,5981.54
11,False,627,0.505,30,[],[],"[(1128, 879)]",[],[1],[31],[0.5166666666666666],"[640.0, 512.0]",horizontal,"(890.0, 262.0)",[1.5],[0.48],1,5986.12
11,False,628,0.83,49,[],[],"[(1111, 857)]",[],[1],[32],[0.5333333333333333],"[640.0, 512.0]",horizontal,"(890.0, 762.0)",[1.6666666666666667],[0.49],1,5990.605
11,False,629,1.079,64,[],[],"[(1112, 853)]",[],[1],[31],[0.5166666666666666],"[640.0, 512.0]",horizontal,"(890.0, 262.0)",[1.2666666666666666],[0.477],1,5995.609
11,False,630,0.647,38,[],[],"[(1154, 854)]",[],[1],[43],[0.7166666666666667],"[640.0, 512.0]",horizontal,"(890.0, 262.0)",[1.55],[0.676],1,6000.401
11,False,631,0.612,36,[],[],"[(1202, 875)]",[],[1],[32],[0.5333333333333333],"[640.0, 512.0]",horizontal,"(390.0, 762.0)",[1.05],[0.498],1,6005.165
11,False,632,0.707,42,[],[6041255],"[(1117, 850)]","[(1120, 860)]",[1],[3],[0.05],"[640.0, 512.0]",vertical,"(890.0, 762.0)",[],[0],0,6023.283
11,False,633,0.591,35,[],[],"[(1130, 838)]",[],[1],[31],[0.5166666666666666],"[640.0, 512.0]",vertical,"(390.0, 262.0)",[1.15],[0.477],1,6025.275
11,False,634,0.687,41,[],[],"[(1092, 886)]",[],[1],[30],[0.5],"[640.0, 512.0]",horizontal,"(390.0, 262.0)",[1.55],[0.458],1,6030.226
11,False,635,0.517,31,[],[],"[(1106, 875)]",[],[1],[38],[0.6333333333333333],"[640.0, 512.0]",horizontal,"(390.0, 762.0)",[1.0166666666666666],[0.583],1,6035.28
11,False,636,0.807,48,[],[],"[(1148, 860)]",[],[1],[32],[0.5333333333333333],"[640.0, 512.0]",horizontal,"(390.0, 262.0)",[0.85],[0.494],1,6039.398
11,False,637,1.115,66,[],[],"[(1133, 857)]",[],[1],[32],[0.5333333333333333],"[640.0, 512.0]",horizontal,"(890.0, 262.0)",[0.75],[0.497],1,6043.45
11,False,638,0.503,30,[],[],"[(1121, 869)]",[],[1],[32],[0.5333333333333333],"[640.0, 512.0]",horizontal,"(390.0, 262.0)",[1.1],[0.487],1,6047.72
11,False,639,0.577,34,[],[],"[(1142, 864)]",[],[1],[33],[0.55],"[640.0, 512.0]",vertical,"(890.0, 262.0)",[0.8833333333333333],[0.509],1,6051.57
11,False,640,0.962,57,[],[],"[(1166, 864)]",[],[1],[31],[0.5166666666666666],"[640.0, 512.0]",vertical,"(390.0, 262.0)",[1.35],[0.478],1,6055.438
11,False,641,0.913,54,[],[],"[(1115, 868)]",[],[1],[32],[0.5333333333333333],"[640.0, 512.0]",horizontal,"(890.0, 762.0)",[0.9166666666666666],[0.491],1,6060.253
11,False,642,0.8,48,[],[],"[(1136, 844)]",[],[1],[33],[0.55],"[640.0, 512.0]",vertical,"(890.0, 262.0)",[0.75],[0.511],1,6066.806
11,False,643,0.9,54,[],[],"[(1087, 872)]",[],[1],[],[],"[640.0, 512.0]",vertical,"(890.0, 262.0)",[],[0],0,6243.061
11,False,644,0.948,56,[],[],"[(1105, 873)]",[],[1],[36],[0.6],"[640.0, 512.0]",vertical,"(390.0, 262.0)",[0.75],[0.554],1,6247.911
11,False,645,0.979,58,[],[],"[(1111, 859)]",[],[1],[34],[0.5666666666666667],"[640.0, 512.0]",vertical,"(890.0, 762.0)",[0.75],[0.525],1,6325.409
11,False,646,1.14,68,[],[],"[(1117, 863)]",[],[1],[51],[0.85],"[640.0, 512.0]",vertical,"(890.0, 262.0)",[1.1666666666666667],[0.809],0,6330.265
11,False,647,1.164,69,[],[],"[(1091, 846)]",[],[1],[22],[0.36666666666666664],"[640.0, 512.0]",horizontal,"(890.0, 262.0)",[0.9],[0.327],1,6335.281
11,False,648,1.152,69,[],[],"[(1163, 868)]",[],[1],[35],[0.5833333333333334],"[640.0, 512.0]",vertical,"(890.0, 762.0)",[0.55],[0.54],1,6342.661
11,False,649,0.851,51,[],[],"[(1173, 860)]",[],[1],[32],[0.5333333333333333],"[640.0, 512.0]",horizontal,"(890.0, 262.0)",[1.4],[0.49],1,6346.801
11,False,650,1.0,60,[],[],"[(1170, 846)]",[],[1],[32],[0.5333333333333333],"[640.0, 512.0]",vertical,"(390.0, 262.0)",[0.6833333333333333],[0.491],1,6351.545
11,False,651,1.134,68,[],[],"[(1168, 841)]",[],[1],[33],[0.55],"[640.0, 512.0]",vertical,"(390.0, 762.0)",[1.1666666666666667],[0.51],1,6355.564
11,False,652,1.068,64,[],[],"[(1150, 839)]",[],[1],[31],[0.5166666666666666],"[640.0, 512.0]",horizontal,"(390.0, 762.0)",[0.55],[0.477],1,6360.135
11,False,653,0.735,44,[],[],"[(1111, 856)]",[],[1],[35],[0.5833333333333334],"[640.0, 512.0]",horizontal,"(390.0, 262.0)",[1.25],[0.539],1,6364.146
11,False,654,0.73,43,[],[],"[(1136, 859)]",[],[1],[31],[0.5166666666666666],"[640.0, 512.0]",vertical,"(390.0, 262.0)",[0.7166666666666667],[0.471],1,6392.342
11,False,655,1.12,67,[],[],"[(1075, 852)]",[],[1],[30],[0.5],"[640.0, 512.0]",vertical,"(390.0, 262.0)",[0.6666666666666666],[0.46],1,6396.21
11,False,656,0.913,54,[],[],"[(1142, 850)]",[],[1],[36],[0.6],"[640.0, 512.0]",vertical,"(890.0, 262.0)",[1.4666666666666666],[0.555],1,6400.253
11,False,657,0.749,44,[],[],"[(1113, 869)]",[],[1],[34],[0.5666666666666667],"[640.0, 512.0]",horizontal,"(890.0, 762.0)",[1.4833333333333334],[0.526],1,6404.983
11,False,658,0.609,36,[],[],"[(1123, 859)]",[],[1],[32],[0.5333333333333333],"[640.0, 512.0]",vertical,"(890.0, 262.0)",[1.6],[0.493],1,6409.977
11,False,659,0.693,41,[],[],"[(1162, 865)]",[],[1],[34],[0.5666666666666667],"[640.0, 512.0]",vertical,"(890.0, 762.0)",[1.2],[0.529],1,6414.594
11,False,660,1.081,64,[],[],"[(1135, 876)]",[],[1],[33],[0.55],"[640.0, 512.0]",horizontal,"(390.0, 262.0)",[1.3833333333333333],[0.51],1,6418.93
12,False,661,1.122,67,[],[],"[(1136, 846)]",[],[1],[38],[0.6333333333333333],"[640.0, 512.0]",horizontal,"(890.0, 262.0)",[0.65],[0.591],1,6589.844
12,False,662,0.796,47,[],[],"[(1093, 852)]",[],[1],[35],[0.5833333333333334],"[640.0, 512.0]",horizontal,"(890.0, 262.0)",[0.6666666666666666],[0.547],1,6594.012
12,False,663,0.81,48,[],[],"[(1138, 864)]",[],[1],[34],[0.5666666666666667],"[640.0, 512.0]",vertical,"(390.0, 762.0)",[1.3666666666666667],[0.523],1,6600.912
12,False,664,0.661,39,[],[],"[(1177, 842)]",[],[1],[34],[0.5666666666666667],"[640.0, 512.0]",horizontal,"(890.0, 262.0)",[0.85],[0.528],1,6605.579
12,False,665,0.848,50,[],[],"[(1161, 878)]",[],[1],[35],[0.5833333333333334],"[640.0, 512.0]",horizontal,"(890.0, 762.0)",[1.4333333333333333],[0.542],1,6609.548
