block,trial,trial_type,taps_start_loc_during_fix,taps_end_loc_during_fix,taps_on_lever_during_fix,taps_on_lever_s_during_fix,bar_orientation,target_xy,cti,rt,acc,time,pulses,fa_rate_recent100,actual_invalid_type
0,1,valid,"[(1148, 878)]",[],[1],[0.4],horizontal,"(890.0, 262.0)",1.1833333333333333,0.369,1,1.212,1,0.0,same
0,2,valid,"[(1025, 895)]",[],[1],[],vertical,"(890.0, 762.0)",,"('cti', 0.831)",0,8.425,0,0.0,same
0,3,valid,"[(1080, 857)]",[],[1],[],horizontal,"(390.0, 262.0)",,"('cti', 0.216)",0,69.355,0,0.0,same
0,4,valid,"[(1074, 842)]",[],[1],[],vertical,"(890.0, 262.0)",,"('cti', 0.557)",0,117.519,0,0.0,same
0,5,invalid_adjacent_other_bar,"[(1079, 814)]",[],[1],[0.85],horizontal,"(390.0, 262.0)",0.75,nan,0,122.377,0,0.0,other
0,6,catch,"[(1055, 831)]",[],[1],[],horizontal,"(390.0, 762.0)",1.7,nan,1,127.316,1,0.0,same
0,7,invalid_same_bar,"[(1096, 838)]",[],[1],[0.75],vertical,"(390.0, 262.0)",0.6,0.714,1,132.753,1,0.0,same
0,8,valid,"[(1090, 816)]",[],[1],[0.6166666666666667],vertical,"(390.0, 262.0)",0.5166666666666666,0.586,1,137.465,1,0.0,same
0,9,invalid_adjacent_other_bar,"[(1086, 819)]",[],[1],[0.85],vertical,"(390.0, 762.0)",0.8833333333333333,nan,0,142.594,0,0.0,other
0,10,valid,"[(1086, 856)]",[],[1],[0.85],vertical,"(390.0, 262.0)",0.7333333333333333,nan,0,147.605,0,0.0,same
0,11,valid,"[(1077, 854)]",[],[1],[0.7833333333333333],horizontal,"(390.0, 262.0)",1.2166666666666666,0.746,1,152.136,1,0.0,same
0,12,valid,"[(1115, 788)]",[],[1],[],horizontal,"(890.0, 262.0)",,"('cti', 0.586)",0,158.402,0,0.0,same
0,13,catch,"[(1080, 813)]",[],[1],[],vertical,"(890.0, 762.0)",,"('cti', 0.581),nan",0,162.459,0,0.07692307692307693,same
0,14,valid,"[(1149, 811)]",[],[1],[0.6666666666666666],horizontal,"(390.0, 262.0)",0.36666666666666664,0.618,1,165.821,1,0.07142857142857142,same
0,15,valid,"[(1122, 803)]",[],[1],[0.85],vertical,"(390.0, 762.0)",1.15,nan,0,170.356,0,0.06666666666666667,same
0,16,invalid_same_bar,"[(1040, 791)]",[],[1],[0.85],vertical,"(390.0, 262.0)",1.5,nan,0,175.541,0,0.0625,same
0,17,invalid_same_bar,"[(1055, 806)]",[],[1],[],vertical,"(890.0, 762.0)",,"('cti', 0.265)",0,181.423,0,0.058823529411764705,same
0,18,valid,"[(1070, 850)]",[],[1],[0.85],vertical,"(890.0, 262.0)",1.3833333333333333,nan,0,185.065,0,0.05555555555555555,same
0,19,valid,"[(1124, 793)]",[],[1],[0.65],vertical,"(390.0, 262.0)",1.45,0.615,1,205.78,1,0.05263157894736842,same
0,20,valid,"[(1135, 799)]",[],[1],[0.85],horizontal,"(890.0, 762.0)",1.2666666666666666,nan,0,211.603,0,0.05,same
0,21,valid,"[(1141, 831)]",[],[1],[0.85],horizontal,"(390.0, 762.0)",0.5166666666666666,nan,0,216.897,0,0.047619047619047616,same
0,22,valid,"[(1133, 830)]",[],[1],[0.85],horizontal,"(390.0, 762.0)",1.4,nan,0,221.231,0,0.045454545454545456,same
0,23,valid,"[(1099, 801)]",[],[1],[0.85],vertical,"(890.0, 262.0)",1.4,nan,0,226.496,0,0.043478260869565216,same
0,24,valid,"[(1115, 821)]",[],[1],[0.7833333333333333],horizontal,"(890.0, 762.0)",1.1166666666666667,0.74,1,231.945,1,0.041666666666666664,same
0,25,catch,"[(1125, 798)]",[],[1],[],horizontal,"(890.0, 262.0)",1.7,nan,1,237.119,1,0.04,same
0,26,valid,"[(1125, 810)]",[],[1],[0.75],vertical,"(890.0, 262.0)",0.4,0.709,1,242.571,1,0.038461538461538464,same
0,27,valid,"[(1135, 779)]",[],[1],[0.75],vertical,"(890.0, 262.0)",0.5833333333333334,0.714,1,247.576,2,0.037037037037037035,same
0,28,valid,"[(1130, 794)]",[],[1],[0.6166666666666667],vertical,"(390.0, 762.0)",1.05,0.585,1,253.299,2,0.03571428571428571,same
0,29,valid,"[(1130, 802)]",[],[1],[0.5833333333333334],horizontal,"(890.0, 762.0)",1.3333333333333333,0.551,1,258.786,2,0.034482758620689655,same
0,30,valid,"[(1136, 816)]",[],[1],[0.85],horizontal,"(390.0, 762.0)",0.5,nan,0,264.69,0,0.03333333333333333,same
0,31,valid,"[(1121, 818)]",[],[1],[0.65],vertical,"(890.0, 762.0)",0.5,0.617,1,269.393,1,0.03225806451612903,same
0,32,invalid_same_bar,"[(1162, 797)]",[],[1],[0.85],vertical,"(390.0, 262.0)",1.3,nan,0,274.211,0,0.03125,same
0,33,valid,"[(1108, 824)]",[],[1],[0.5333333333333333],vertical,"(390.0, 762.0)",1.5,0.495,1,279.161,1,0.030303030303030304,same
0,34,catch,"[(1150, 804)]",[],[1],[],horizontal,"(890.0, 262.0)",1.7,nan,1,285.239,1,0.029411764705882353,same
0,35,invalid_same_bar,"[(1146, 777)]",[],[1],[0.6666666666666666],vertical,"(390.0, 262.0)",1.3666666666666667,0.637,1,290.111,1,0.02857142857142857,same
0,36,valid,"[(1164, 793)]",[],[1],[0.7166666666666667],horizontal,"(390.0, 262.0)",1.5166666666666666,0.685,1,295.787,2,0.027777777777777776,same
0,37,catch,"[(1085, 792)]",[],[1],[],vertical,"(890.0, 762.0)",1.7,nan,1,301.893,2,0.02702702702702703,same
0,38,catch,"[(1155, 783)]",[],[1],[],vertical,"(890.0, 262.0)",1.7,nan,1,307.339,2,0.02631578947368421,same
0,39,valid,"[(1135, 779)]",[],[1],[0.7],vertical,"(890.0, 762.0)",0.7833333333333333,0.669,1,313.149,3,0.02564102564102564,same
0,40,valid,"[(1071, 775)]",[],[1],[0.85],vertical,"(390.0, 262.0)",0.65,nan,0,318.808,0,0.025,same
0,41,invalid_adjacent_other_bar,"[(1124, 787)]",[],[1],[0.5833333333333334],horizontal,"(890.0, 762.0)",0.9,0.552,1,323.502,1,0.024390243902439025,other
0,42,catch,"[(1158, 781)]",[],[1],[],horizontal,"(890.0, 762.0)",1.7,nan,1,328.658,1,0.023809523809523808,same
0,43,catch,"[(1119, 791)]",[],[1],[],vertical,"(890.0, 762.0)",1.7,nan,1,334.077,1,0.023255813953488372,same
0,44,valid,"[(1144, 803)]",[],[1],[0.5166666666666666],horizontal,"(890.0, 262.0)",0.7333333333333333,0.483,1,339.371,2,0.022727272727272728,same
0,45,valid,"[(1156, 806)]",[],[1],[0.65],vertical,"(390.0, 262.0)",1.2166666666666666,0.619,1,344.57,2,0.022222222222222223,same
0,46,valid,"[(1152, 784)]",[],[1],[0.48333333333333334],vertical,"(890.0, 262.0)",1.45,0.453,1,350.391,2,0.021739130434782608,same
0,47,invalid_adjacent_other_bar,"[(1159, 803)]",[],[1],[0.6],horizontal,"(390.0, 262.0)",0.9166666666666666,0.565,1,356.339,3,0.02127659574468085,other
0,48,valid,"[(1140, 773)]",[],[1],[0.3833333333333333],horizontal,"(390.0, 262.0)",1.0,0.348,1,362.183,3,0.020833333333333332,same
0,49,valid,"[(1135, 803)]",[],[1],[0.5],horizontal,"(890.0, 762.0)",0.9333333333333333,0.465,1,367.787,3,0.02040816326530612,same
0,50,valid,"[(1150, 774)]",[],[1],[0.8166666666666667],horizontal,"(890.0, 762.0)",0.6833333333333333,0.79,1,373.431,3,0.02,same
0,51,catch,"[(1165, 806)]",[],[1],[],vertical,"(890.0, 762.0)",1.7,nan,1,378.987,3,0.02,same
0,52,valid,"[(1131, 791)]",[],[1],[0.5],vertical,"(890.0, 262.0)",0.7833333333333333,0.463,1,385.426,3,0.02,same
0,53,valid,"[(1118, 796)]",[],[1],[0.85],vertical,"(890.0, 762.0)",0.7333333333333333,nan,0,391.142,0,0.02,same
0,54,valid,"[(1092, 814)]",[],[1],[0.5333333333333333],vertical,"(390.0, 262.0)",1.15,0.504,1,395.73,1,0.02,same
0,55,catch,"[(1160, 799)]",[],[1],[],vertical,"(890.0, 762.0)",1.7,nan,1,401.175,1,0.02,same
0,56,valid,"[(1124, 808)]",[],[1],[0.48333333333333334],vertical,"(390.0, 762.0)",0.7,0.454,1,406.756,1,0.02,same
0,57,catch,"[(1162, 799)]",[],[1],[],vertical,"(390.0, 262.0)",1.7,nan,1,411.26,2,0.02,same
0,58,valid,"[(1139, 798)]",[],[1],[0.26666666666666666],horizontal,"(890.0, 262.0)",1.4666666666666666,0.233,1,417.43,2,0.02,same
0,59,valid,"[(1141, 788)]",[],[1],[0.5833333333333334],horizontal,"(390.0, 262.0)",1.3333333333333333,0.548,1,423.586,2,0.02,same
0,60,valid,"[(1133, 786)]",[],[1],[0.5],horizontal,"(890.0, 262.0)",0.45,0.464,1,429.53,3,0.02,same
0,61,catch,"[(1165, 779)]",[],[1],[],vertical,"(390.0, 762.0)",1.7,nan,1,435.081,3,0.02,same
0,62,catch,"[(1118, 772)]",[],[1],[],vertical,"(890.0, 762.0)",1.7,nan,1,440.864,3,0.02,same
0,63,valid,"[(1135, 795)]",[],[1],[0.65],horizontal,"(390.0, 262.0)",1.1666666666666667,0.609,1,446.642,3,0.0,same
0,64,valid,"[(1161, 791)]",[],[1],[0.6166666666666667],horizontal,"(390.0, 762.0)",1.4166666666666667,0.57,1,453.063,3,0.0,same
0,65,invalid_same_bar,"[(1160, 757)]",[],[1],[0.6666666666666666],horizontal,"(890.0, 262.0)",0.9666666666666667,0.638,1,459.264,3,0.0,same
0,66,valid,"[(1166, 791)]",[],[1],[0.5166666666666666],vertical,"(890.0, 262.0)",0.4166666666666667,0.475,1,465.17,3,0.0,same
0,67,catch,"[(1169, 789)]",[],[1],[],horizontal,"(890.0, 762.0)",1.7,nan,1,470.52,3,0.0,same
0,68,valid,"[(1135, 791)]",[],[1],[0.5333333333333333],horizontal,"(890.0, 762.0)",1.4,0.498,1,476.844,3,0.0,same
0,69,valid,"[(1160, 796)]",[],[1],[0.5166666666666666],horizontal,"(890.0, 262.0)",0.7333333333333333,0.477,1,482.69,3,0.0,same
0,70,valid,"[(1095, 775)]",[],[1],[0.6666666666666666],vertical,"(890.0, 262.0)",0.8666666666666667,0.626,1,488.147,3,0.0,same
0,71,valid,"[(1143, 785)]",[],[1],[0.55],horizontal,"(890.0, 762.0)",0.6,0.508,1,494.315,3,0.0,same
0,72,valid,"[(1149, 803)]",[],[1],[0.7666666666666666],horizontal,"(890.0, 762.0)",1.4166666666666667,0.723,1,499.539,3,0.0,same
0,73,valid,"[(1167, 794)]",[],[1],[0.85],horizontal,"(890.0, 762.0)",0.6,nan,0,505.797,0,0.0,same
0,74,valid,"[(1148, 801)]",[],[1],[0.5166666666666666],horizontal,"(890.0, 762.0)",0.65,0.478,1,510.062,1,0.0,same
0,75,catch,"[(1165, 790)]",[],[1],[],vertical,"(890.0, 262.0)",1.7,nan,1,514.948,1,0.0,same
0,76,valid,"[(1148, 806)]",[],[1],[0.5],vertical,"(390.0, 262.0)",1.0833333333333333,0.454,1,520.566,1,0.0,same
0,77,catch,"[(1136, 799)]",[],[1],[],horizontal,"(890.0, 762.0)",1.7,nan,1,525.497,2,0.0,same
0,78,catch,"[(1165, 799)]",[],[1],[],horizontal,"(390.0, 762.0)",1.7,nan,1,531.397,2,0.0,same
0,79,valid,"[(1158, 797)]",[],[1],[0.6],horizontal,"(890.0, 762.0)",0.5,0.563,1,537.581,2,0.0,same
0,80,invalid_same_bar,"[(1160, 797)]",[],[1],[0.85],horizontal,"(890.0, 762.0)",0.6833333333333333,nan,0,542.401,0,0.0,same
0,81,valid,"[(1148, 805)]",[],[1],[0.5],horizontal,"(890.0, 262.0)",1.0666666666666667,0.458,1,546.734,1,0.0,same
0,82,valid,"[(1160, 812)]",[],[1],[0.55],vertical,"(390.0, 262.0)",0.5,0.513,1,551.945,1,0.0,same
0,83,valid,"[(1090, 782)]",[],[1],[0.55],vertical,"(390.0, 762.0)",1.0333333333333332,0.503,1,556.251,1,0.0,same
0,84,catch,"[(1090, 796)]",[],[1],[],vertical,"(390.0, 262.0)",1.7,nan,1,561.325,2,0.0,same
0,85,valid,"[(1160, 808)]",[],[1],[0.5166666666666666],horizontal,"(890.0, 262.0)",0.5333333333333333,0.478,1,566.997,2,0.0,same
0,86,valid,"[(1160, 777)]",[],[1],[0.5833333333333334],vertical,"(890.0, 762.0)",1.2333333333333334,0.536,1,572.054,2,0.0,same
0,87,catch,"[(1090, 809)]",[],[1],[],vertical,"(390.0, 262.0)",1.7,nan,1,577.897,3,0.0,same
0,88,catch,"[(1148, 825)]",[],[1],[],horizontal,"(390.0, 762.0)",,"('cti', 1.582),nan",0,584.064,0,0.02,same
0,89,catch,"[(1120, 822)]",[],[1],[],vertical,"(390.0, 762.0)",,"('cti', 1.643),nan",0,589.082,0,0.04,same
0,90,catch,"[(1123, 855)]",[],[1],[],vertical,"(890.0, 262.0)",1.7,nan,1,593.848,1,0.04,same
0,91,invalid_adjacent_other_bar,"[(1090, 836)]",[],[1],[0.6],horizontal,"(390.0, 762.0)",1.1166666666666667,0.555,1,1241.933,1,0.04,other
0,92,valid,"[(1154, 794)]",[],[1],[0.5833333333333334],vertical,"(890.0, 262.0)",0.9,0.542,1,1355.779,1,0.04,same
0,93,valid,"[(1160, 791)]",[],[1],[0.5666666666666667],vertical,"(390.0, 762.0)",1.2166666666666666,0.527,1,1360.933,2,0.04,same
0,94,invalid_same_bar,"[(1095, 778)]",[],[1],[0.65],vertical,"(890.0, 262.0)",0.6333333333333333,0.609,1,1366.779,2,0.04,same
0,95,valid,"[(1136, 806)]",[],[1],[0.8166666666666667],horizontal,"(390.0, 762.0)",1.0833333333333333,0.772,1,1371.774,2,0.04,same
0,96,catch,"[(1142, 808)]",[],[1],[],vertical,"(890.0, 762.0)",1.7,nan,1,1377.46,3,0.04,same
0,97,valid,"[(1143, 771)]",[],[1],[0.5166666666666666],horizontal,"(890.0, 262.0)",1.2,0.481,1,1383.316,3,0.04,same
0,98,invalid_adjacent_other_bar,"[(1130, 796)]",[],[1],[0.5],vertical,"(390.0, 262.0)",1.35,0.456,1,1389.616,3,0.04,other
0,99,valid,"[(1140, 773)]",[],[1],[0.55],vertical,"(390.0, 762.0)",0.36666666666666664,0.507,1,1395.713,3,0.04,same
0,100,valid,"[(1114, 806)]",[],[1],[0.5],horizontal,"(890.0, 262.0)",1.4166666666666667,0.457,1,1401.027,3,0.04,same
0,101,valid,"[(1157, 791)]",[],[1],[0.5666666666666667],vertical,"(890.0, 762.0)",1.3333333333333333,0.523,1,1407.166,3,0.04,same
0,102,valid,"[(1140, 801)]",[],[1],[0.85],horizontal,"(890.0, 762.0)",0.6166666666666667,nan,0,1413.597,0,0.04,same
0,103,valid,"[(1134, 802)]",[],[1],[0.7],vertical,"(890.0, 262.0)",0.6833333333333333,0.66,1,1418.477,1,0.04,same
0,104,catch,"[(1157, 779)]",[],[1],[],vertical,"(390.0, 762.0)",1.7,nan,1,1423.282,1,0.04,same
0,105,valid,"[(1133, 796)]",[],[1],[0.5666666666666667],vertical,"(890.0, 262.0)",0.6,0.529,1,1428.567,1,0.04,same
0,106,catch,"[(1140, 800)]",[],[1],[],horizontal,"(390.0, 762.0)",1.7,nan,1,1433.223,2,0.04,same
0,107,valid,"[(1164, 791)]",[],[1],[0.55],vertical,"(890.0, 262.0)",1.4,0.506,1,1439.25,2,0.04,same
0,108,valid,"[(1120, 799)]",[],[1],[0.5333333333333333],vertical,"(390.0, 762.0)",1.3666666666666667,0.492,1,1444.816,2,0.04,same
0,109,catch,"[(1089, 799)]",[],[1],[],horizontal,"(390.0, 762.0)",,"('cti', 1.374),nan",0,1450.9,0,0.06,same
0,110,valid,"[(1131, 791)]",[],[1],[0.5833333333333334],vertical,"(390.0, 762.0)",1.25,0.544,1,1455.768,1,0.06,same
0,111,valid,"[(1118, 808)]",[],[1],[0.55],vertical,"(890.0, 762.0)",0.6666666666666666,0.512,1,1461.035,1,0.06,same
0,112,valid,"[(1140, 836)]",[],[1],[0.48333333333333334],horizontal,"(890.0, 762.0)",0.45,0.45,1,1465.918,1,0.06,same
0,113,valid,"[(1145, 796)]",[],[1],[0.5166666666666666],horizontal,"(890.0, 762.0)",1.2,0.474,1,1470.417,2,0.06,same
0,114,catch,"[(1140, 796)]",[],[1],[],horizontal,"(390.0, 262.0)",1.7,nan,1,1476.017,2,0.06,same
0,115,valid,"[(1145, 795)]",[],[1],[0.48333333333333334],vertical,"(390.0, 262.0)",0.5833333333333334,0.445,1,1481.333,2,0.06,same
0,116,valid,"[(1137, 790)]",[],[1],[0.6333333333333333],vertical,"(390.0, 262.0)",0.48333333333333334,0.59,1,1486.385,3,0.06,same
0,117,catch,"[(1146, 803)]",[],[1],[],horizontal,"(390.0, 762.0)",1.7,nan,1,1492.467,3,0.06,same
0,118,valid,"[(1145, 786)]",[],[1],[0.5166666666666666],vertical,"(890.0, 262.0)",1.2166666666666666,0.479,1,1498.322,3,0.06,same
0,119,invalid_adjacent_other_bar,"[(1119, 792)]",[],[1],[0.8166666666666667],horizontal,"(390.0, 262.0)",1.1833333333333333,0.77,1,1504.218,3,0.06,other
0,120,invalid_same_bar,"[(1096, 799)]",[],[1],[0.5166666666666666],horizontal,"(890.0, 262.0)",0.8666666666666667,0.479,1,1510.75,3,0.06,same
0,121,invalid_adjacent_other_bar,"[(1137, 789)]",[],[1],[0.5],vertical,"(890.0, 762.0)",0.95,0.459,1,1516.451,3,0.06,other
0,122,invalid_adjacent_other_bar,"[(1140, 808)]",[],[1],[0.85],vertical,"(890.0, 262.0)",1.4333333333333333,nan,0,1522.135,0,0.06,other
0,123,catch,"[(1140, 791)]",[],[1],[],vertical,"(890.0, 262.0)",1.7,nan,1,1527.234,1,0.06,same
0,124,valid,"[(1086, 801)]",[],[1],[0.43333333333333335],horizontal,"(390.0, 262.0)",0.9,0.4,1,1532.334,1,0.06,same
0,125,valid,"[(1120, 774)]",[],[1],[0.43333333333333335],horizontal,"(890.0, 262.0)",1.1333333333333333,0.396,1,1537.068,1,0.06,same
0,126,valid,"[(1165, 794)]",[],[1],[0.48333333333333334],horizontal,"(390.0, 262.0)",0.9,0.448,1,1542.115,2,0.06,same
0,127,catch,"[(1170, 785)]",[],[1],[],vertical,"(890.0, 262.0)",1.7,nan,1,1547.94,2,0.06,same
0,128,valid,"[(1135, 815)]",[],[1],[0.5333333333333333],horizontal,"(390.0, 762.0)",1.2166666666666666,0.489,1,1553.6,2,0.06,same
0,129,valid,"[(1160, 790)]",[],[1],[0.6],vertical,"(890.0, 762.0)",1.4666666666666666,0.557,1,1559.502,3,0.06,same
0,130,catch,"[(1165, 793)]",[],[1],[],vertical,"(390.0, 262.0)",1.7,nan,1,1566.224,3,0.06,same
0,131,catch,"[(1149, 787)]",[],[1],[],horizontal,"(390.0, 262.0)",1.7,nan,1,1572.184,3,0.06,same
0,132,valid,"[(1160, 799)]",[],[1],[0.7],vertical,"(390.0, 762.0)",0.7833333333333333,0.66,1,1578.085,3,0.06,same
0,133,valid,"[(1090, 784)]",[],[1],[0.48333333333333334],vertical,"(890.0, 762.0)",0.7666666666666666,0.444,1,1584.135,3,0.06,same
0,134,valid,"[(1090, 799)]",[],[1],[0.5333333333333333],vertical,"(890.0, 262.0)",0.8,0.49,1,1589.336,3,0.06,same
0,135,valid,"[(1170, 784)]",[],[1],[0.65],vertical,"(390.0, 762.0)",0.5,0.604,1,1595.294,3,0.06,same
0,136,catch,"[(1136, 794)]",[],[1],[],horizontal,"(890.0, 762.0)",1.7,nan,1,1600.918,3,0.06,same
0,137,valid,"[(1086, 794)]",[],[1],[0.5],horizontal,"(390.0, 762.0)",1.4333333333333333,0.46,1,1606.934,3,0.06,same
0,138,invalid_adjacent_other_bar,"[(1160, 799)]",[],[1],[0.48333333333333334],vertical,"(890.0, 262.0)",1.5166666666666666,0.445,1,1613.035,3,0.04,other
0,139,valid,"[(1119, 784)]",[],[1],[0.6],horizontal,"(890.0, 262.0)",0.45,0.554,1,1618.868,3,0.02,same
0,140,valid,"[(1161, 802)]",[],[1],[0.5666666666666667],vertical,"(390.0, 262.0)",1.0333333333333332,0.522,1,1624.22,3,0.02,same
0,141,valid,"[(1090, 790)]",[],[1],[0.5],horizontal,"(890.0, 262.0)",0.9666666666666667,0.457,1,1629.935,3,0.02,same
0,142,valid,"[(1090, 798)]",[],[1],[0.6166666666666667],horizontal,"(890.0, 262.0)",1.25,0.572,1,1635.995,3,0.02,same
0,143,catch,"[(1091, 786)]",[],[1],[],vertical,"(390.0, 262.0)",1.7,nan,1,1642.639,3,0.02,same
0,144,catch,"[(1154, 796)]",[],[1],[],vertical,"(390.0, 262.0)",1.7,nan,1,1649.127,3,0.02,same
0,145,valid,"[(1135, 802)]",[],[1],[0.4666666666666667],vertical,"(890.0, 762.0)",1.4333333333333333,0.429,1,1655.391,3,0.02,same
0,146,catch,"[(1120, 788)]",[],[1],[],horizontal,"(390.0, 762.0)",1.7,nan,1,1661.939,3,0.02,same
0,147,valid,"[(1135, 804)]",[],[1],[0.5166666666666666],vertical,"(890.0, 262.0)",1.4,0.477,1,1668.384,3,0.02,same
0,148,catch,"[(1169, 792)]",[],[1],[],horizontal,"(890.0, 262.0)",1.7,nan,1,1674.554,3,0.02,same
0,149,valid,"[(1135, 794)]",[],[1],[0.55],horizontal,"(890.0, 262.0)",0.75,0.506,1,1680.812,3,0.02,same
0,150,valid,"[(1088, 794)]",[],[1],[0.5166666666666666],vertical,"(390.0, 762.0)",1.0666666666666667,0.474,1,1686.276,3,0.02,same
0,151,valid,"[(1184, 796)]",[],[1],[0.5166666666666666],vertical,"(390.0, 262.0)",0.5666666666666667,0.48,1,1692.083,3,0.02,same
0,152,valid,"[(1185, 790)]",[],[1],[0.85],horizontal,"(890.0, 762.0)",0.5666666666666667,nan,0,1698.041,0,0.02,same
0,153,valid,"[(1134, 793)]",[],[1],[0.5666666666666667],horizontal,"(390.0, 762.0)",0.5666666666666667,0.526,1,1702.108,1,0.02,same
0,154,invalid_adjacent_other_bar,"[(1123, 805)]",[],[1],[0.5333333333333333],horizontal,"(890.0, 762.0)",1.2333333333333334,0.49,1,1707.189,1,0.02,other
0,155,valid,"[(1153, 793)]",[],[1],[0.55],vertical,"(390.0, 762.0)",0.7666666666666666,0.509,1,1712.817,1,0.02,same
0,156,valid,"[(1160, 798)]",[],[1],[0.85],vertical,"(390.0, 262.0)",0.6666666666666666,nan,0,1717.607,0,0.02,same
0,157,catch,"[(1090, 831)]",[],[1],[],horizontal,"(890.0, 262.0)",,"('cti', 1.171),nan",0,1722.408,0,0.04,same
0,158,valid,"[(1125, 801)]",[],[1],[0.5],horizontal,"(890.0, 762.0)",0.9,0.455,1,1728.485,1,0.04,same
0,159,catch,"[(1160, 789)]",[],[1],[],vertical,"(390.0, 262.0)",1.7,nan,1,1733.567,1,0.02,same
0,160,valid,"[(1165, 797)]",[],[1],[0.55],vertical,"(390.0, 762.0)",0.9333333333333333,0.508,1,1739.117,1,0.02,same
0,161,valid,"[(1135, 795)]",[],[1],[0.7166666666666667],horizontal,"(890.0, 762.0)",1.1333333333333333,0.667,1,1744.385,2,0.02,same
0,162,valid,"[(1165, 794)]",[],[1],[0.55],vertical,"(390.0, 762.0)",0.8833333333333333,0.505,1,1750.654,2,0.02,same
0,163,invalid_same_bar,"[(1135, 791)]",[],[1],[0.6333333333333333],horizontal,"(890.0, 762.0)",1.2833333333333332,0.584,1,1756.06,2,0.02,same
0,164,valid,"[(1132, 798)]",[],[1],[0.48333333333333334],horizontal,"(390.0, 262.0)",1.3333333333333333,0.438,1,1762.084,3,0.02,same
0,165,valid,"[(1159, 766)]",[],[1],[0.5166666666666666],horizontal,"(890.0, 762.0)",1.05,0.469,1,1768.491,3,0.02,same
0,166,catch,"[(1160, 800)]",[],[1],[],horizontal,"(390.0, 762.0)",1.7,nan,1,1774.188,3,0.02,same
0,167,valid,"[(1168, 802)]",[],[1],[0.5666666666666667],horizontal,"(890.0, 762.0)",0.4,0.534,1,1779.868,3,0.02,same
0,168,valid,"[(1157, 793)]",[],[1],[0.5833333333333334],vertical,"(390.0, 762.0)",1.2833333333333332,0.538,1,1785.185,3,0.02,same
0,169,valid,"[(1150, 802)]",[],[1],[0.55],horizontal,"(890.0, 262.0)",0.43333333333333335,0.51,1,1791.384,3,0.02,same
0,170,valid,"[(1165, 806)]",[],[1],[0.85],horizontal,"(890.0, 762.0)",1.3333333333333333,nan,0,1796.651,0,0.02,same
0,171,valid,"[(1163, 789)]",[],[1],[0.5666666666666667],vertical,"(390.0, 262.0)",0.75,0.522,1,1802.117,1,0.02,same
0,172,valid,"[(1130, 786)]",[],[1],[0.55],vertical,"(390.0, 762.0)",0.8,0.508,1,1807.036,1,0.02,same
0,173,valid,"[(1135, 789)]",[],[1],[0.65],horizontal,"(390.0, 762.0)",0.7833333333333333,0.6,1,1812.118,1,0.02,same
0,174,catch,"[(1125, 799)]",[],[1],[],horizontal,"(890.0, 762.0)",1.7,nan,1,1816.854,2,0.02,same
0,175,valid,"[(1135, 805)]",[],[1],[0.5],horizontal,"(890.0, 762.0)",1.3,0.457,1,1822.718,2,0.02,same
0,176,valid,"[(1163, 794)]",[],[1],[0.5333333333333333],vertical,"(390.0, 762.0)",1.3333333333333333,0.497,1,1828.308,2,0.02,same
0,177,valid,"[(1140, 800)]",[],[1],[0.5],horizontal,"(890.0, 262.0)",1.2166666666666666,0.46,1,1834.568,3,0.02,same
0,178,valid,"[(1155, 795)]",[],[1],[0.6166666666666667],vertical,"(390.0, 262.0)",1.45,0.584,1,1840.744,3,0.02,same
0,179,catch,"[(1170, 787)]",[],[1],[],horizontal,"(890.0, 262.0)",1.7,nan,1,1847.314,3,0.02,same
0,180,catch,"[(1135, 798)]",[],[1],[],vertical,"(890.0, 762.0)",1.7,nan,1,1853.683,3,0.02,same
0,181,catch,"[(1141, 787)]",[],[1],[],horizontal,"(390.0, 262.0)",1.7,nan,1,1859.943,3,0.02,same
0,182,valid,"[(1147, 796)]",[],[1],[0.5666666666666667],vertical,"(890.0, 262.0)",1.1666666666666667,0.523,1,1865.985,3,0.02,same
0,183,valid,"[(1086, 782)]",[],[1],[0.55],horizontal,"(390.0, 762.0)",1.1166666666666667,0.505,1,1872.102,3,0.02,same
0,184,valid,"[(1143, 805)]",[],[1],[0.6666666666666666],vertical,"(390.0, 762.0)",0.36666666666666664,0.622,1,1877.968,3,0.02,same
0,185,valid,"[(1086, 798)]",[],[1],[0.55],horizontal,"(890.0, 262.0)",1.35,0.502,1,1883.607,3,0.02,same
0,186,valid,"[(1145, 793)]",[],[1],[0.55],horizontal,"(390.0, 762.0)",1.0333333333333332,0.508,1,1889.921,3,0.02,same
0,187,invalid_same_bar,"[(1086, 807)]",[],[1],[0.6166666666666667],horizontal,"(390.0, 262.0)",0.8833333333333333,0.575,1,1895.435,3,0.02,same
0,188,valid,"[(1115, 795)]",[],[1],[0.5166666666666666],vertical,"(390.0, 262.0)",0.4,0.474,1,1901.753,3,0.02,same
0,189,valid,"[(1132, 776)]",[],[1],[0.65],horizontal,"(890.0, 762.0)",1.4333333333333333,0.607,1,1907.286,3,0.02,same
0,190,valid,"[(1120, 788)]",[],[1],[0.5333333333333333],vertical,"(390.0, 762.0)",1.55,0.492,1,1913.753,3,0.02,same
0,191,catch,"[(1163, 789)]",[],[1],[],vertical,"(890.0, 262.0)",1.7,nan,1,1920.54,3,0.02,same
0,192,valid,"[(1160, 811)]",[],[1],[0.5],horizontal,"(890.0, 762.0)",0.8,0.457,1,1926.701,3,0.02,same
0,193,catch,"[(1170, 791)]",[],[1],[],horizontal,"(890.0, 762.0)",1.7,nan,1,1932.258,3,0.02,same
0,194,valid,"[(1141, 803)]",[],[1],[0.6166666666666667],vertical,"(390.0, 262.0)",0.9666666666666667,0.573,1,1938.201,3,0.02,same
0,195,catch,"[(1165, 792)]",[],[1],[],horizontal,"(890.0, 262.0)",1.7,nan,1,1944.343,3,0.02,same
0,196,valid,"[(1143, 769)]",[],[1],[0.6166666666666667],vertical,"(890.0, 762.0)",0.6166666666666667,0.58,1,1950.069,3,0.02,same
0,197,invalid_same_bar,"[(1133, 774)]",[],[1],[0.5333333333333333],horizontal,"(390.0, 762.0)",0.9,0.496,1,1955.552,3,0.02,same
0,198,valid,"[(1138, 781)]",[],[1],[0.5166666666666666],vertical,"(390.0, 262.0)",0.9333333333333333,0.474,1,1961.352,3,0.02,same
0,199,invalid_same_bar,"[(1123, 805)]",[],[1],[0.5833333333333334],vertical,"(390.0, 762.0)",0.5833333333333334,0.538,1,1967.151,3,0.02,same
0,200,valid,"[(1140, 791)]",[],[1],[0.6],vertical,"(890.0, 262.0)",0.8,0.554,1,1972.728,3,0.02,same
0,201,valid,"[(1145, 803)]",[],[1],[0.6666666666666666],vertical,"(390.0, 262.0)",0.7,0.62,1,1978.675,3,0.02,same
0,202,valid,"[(1124, 804)]",[],[1],[0.48333333333333334],horizontal,"(890.0, 262.0)",1.2333333333333334,0.441,1,1984.552,3,0.02,same
0,203,catch,"[(1117, 801)]",[],[1],[],vertical,"(390.0, 762.0)",1.7,nan,1,1990.385,3,0.02,same
0,204,valid,"[(1090, 791)]",[],[1],[0.5],vertical,"(890.0, 262.0)",0.9166666666666666,0.457,1,1996.352,3,0.02,same
0,205,invalid_same_bar,"[(1135, 795)]",[],[1],[0.5333333333333333],horizontal,"(390.0, 762.0)",1.3166666666666667,0.492,1,2002.219,3,0.02,same
0,206,valid,"[(1132, 806)]",[],[1],[0.65],vertical,"(390.0, 262.0)",0.6666666666666666,0.607,1,2008.268,3,0.02,same
0,207,valid,"[(1153, 795)]",[],[1],[0.5333333333333333],vertical,"(890.0, 762.0)",0.3833333333333333,0.492,1,2013.818,3,0.0,same
0,208,valid,"[(1145, 797)]",[],[1],[0.6666666666666666],vertical,"(390.0, 262.0)",1.3166666666666667,0.621,1,2019.37,3,0.0,same
0,209,valid,"[(1153, 800)]",[],[1],[0.5666666666666667],horizontal,"(890.0, 762.0)",1.1833333333333333,0.522,1,2025.898,3,0.0,same
0,210,invalid_adjacent_other_bar,"[(1140, 784)]",[],[1],[0.85],horizontal,"(390.0, 762.0)",1.0666666666666667,nan,0,2032.3,0,0.0,other
0,211,valid,"[(1140, 786)]",[],[1],[0.85],vertical,"(390.0, 762.0)",1.3666666666666667,nan,0,2037.334,0,0.0,same
0,212,invalid_adjacent_other_bar,"[(1125, 787)]",[],[1],[0.6333333333333333],horizontal,"(890.0, 262.0)",1.4666666666666666,0.594,1,2042.752,1,0.0,other
0,213,valid,"[(1146, 781)]",[],[1],[0.5333333333333333],vertical,"(390.0, 762.0)",1.3666666666666667,0.496,1,2048.502,1,0.0,same
0,214,valid,"[(1145, 791)]",[],[1],[0.5333333333333333],vertical,"(890.0, 762.0)",1.1666666666666667,0.49,1,2053.436,1,0.0,same
0,215,valid,"[(1134, 803)]",[],[1],[0.5166666666666666],vertical,"(390.0, 762.0)",0.7,0.472,1,2059.087,2,0.0,same
0,216,valid,"[(1135, 775)]",[],[1],[0.5833333333333334],horizontal,"(890.0, 262.0)",1.2666666666666666,0.539,1,2064.303,2,0.0,same
0,217,catch,"[(1120, 782)]",[],[1],[],vertical,"(890.0, 262.0)",1.7,nan,1,2070.27,2,0.0,same
0,218,valid,"[(1131, 801)]",[],[1],[0.5333333333333333],vertical,"(890.0, 262.0)",0.9166666666666666,0.488,1,2076.337,3,0.0,same
0,219,invalid_adjacent_other_bar,"[(1130, 795)]",[],[1],[0.6166666666666667],horizontal,"(890.0, 762.0)",0.9833333333333333,0.577,1,2081.769,3,0.0,other
0,220,valid,"[(1090, 802)]",[],[1],[0.5],horizontal,"(890.0, 262.0)",0.65,0.461,1,2087.62,3,0.0,same
0,221,invalid_adjacent_other_bar,"[(1131, 819)]",[],[1],[0.5666666666666667],horizontal,"(390.0, 762.0)",1.4166666666666667,0.522,1,2093.286,3,0.0,other
0,222,valid,"[(1086, 774)]",[],[1],[0.6833333333333333],vertical,"(890.0, 762.0)",0.8166666666666667,0.64,1,2100.135,3,0.0,same
0,223,catch,"[(1126, 782)]",[],[1],[],vertical,"(390.0, 762.0)",1.7,nan,1,2105.785,3,0.0,same
0,224,valid,"[(1132, 804)]",[],[1],[0.5166666666666666],vertical,"(890.0, 262.0)",0.6833333333333333,0.477,1,2111.552,3,0.0,same
0,225,valid,"[(1165, 784)]",[],[1],[0.5333333333333333],horizontal,"(390.0, 762.0)",1.0833333333333333,0.492,1,2117.157,3,0.0,same
0,226,valid,"[(1132, 819)]",[],[1],[0.5333333333333333],vertical,"(390.0, 262.0)",1.0166666666666666,0.496,1,2123.452,3,0.0,same
0,227,valid,"[(1143, 794)]",[],[1],[0.48333333333333334],vertical,"(890.0, 262.0)",0.6833333333333333,0.445,1,2129.814,3,0.0,same
0,228,catch,"[(1134, 793)]",[],[1],[],vertical,"(390.0, 762.0)",1.7,nan,1,2135.569,3,0.0,same
0,229,catch,"[(1132, 806)]",[],[1],[],horizontal,"(390.0, 762.0)",1.7,nan,1,2141.755,3,0.0,same
0,230,valid,"[(1131, 799)]",[],[1],[0.5166666666666666],vertical,"(890.0, 262.0)",0.6833333333333333,0.485,1,2147.402,3,0.0,same
0,231,valid,"[(1130, 799)]",[],[1],[0.6166666666666667],horizontal,"(390.0, 762.0)",0.7,0.577,1,2153.005,3,0.0,same
0,232,valid,"[(1080, 778)]",[],[1],[0.5333333333333333],vertical,"(890.0, 762.0)",1.0833333333333333,0.497,1,2158.685,3,0.0,same
0,233,valid,"[(1173, 783)]",[],[1],[0.5666666666666667],horizontal,"(890.0, 762.0)",1.3,0.525,1,2164.502,3,0.0,same
0,234,valid,"[(1138, 827)]",[],[1],[0.4666666666666667],horizontal,"(890.0, 762.0)",0.8166666666666667,0.432,1,2170.886,3,0.0,same
0,235,valid,"[(1160, 790)]",[],[1],[0.55],vertical,"(890.0, 762.0)",0.9,0.511,1,2176.42,3,0.0,same
0,236,invalid_same_bar,"[(1085, 785)]",[],[1],[0.5],horizontal,"(890.0, 262.0)",0.36666666666666664,0.454,1,2182.293,3,0.0,same
0,237,invalid_same_bar,"[(1132, 802)]",[],[1],[0.48333333333333334],vertical,"(890.0, 262.0)",0.55,0.446,1,2187.52,3,0.0,same
0,238,valid,"[(1155, 804)]",[],[1],[0.6],vertical,"(890.0, 762.0)",1.0666666666666667,0.555,1,2193.103,3,0.0,same
0,239,valid,"[(1087, 796)]",[],[1],[0.5166666666666666],vertical,"(390.0, 762.0)",1.05,0.484,1,2199.447,3,0.0,same
0,240,valid,"[(1173, 808)]",[],[1],[0.85],horizontal,"(390.0, 762.0)",0.6833333333333333,nan,0,2205.346,0,0.0,same
0,241,valid,"[(1086, 855)]",[],[1],[0.6],horizontal,"(390.0, 262.0)",1.0166666666666666,0.56,1,2210.004,1,0.0,same
0,242,catch,"[(1086, 782)]",[],[1],[],vertical,"(390.0, 262.0)",1.7,nan,1,2298.538,1,0.0,same
0,243,valid,"[(1114, 819)]",[],[1],[0.5],horizontal,"(890.0, 262.0)",0.7666666666666666,0.459,1,2303.962,1,0.0,same
0,244,catch,"[(1135, 791)]",[],[1],[],horizontal,"(890.0, 262.0)",,"('cti', 1.344),nan",0,2308.338,0,0.02,same
0,245,invalid_same_bar,"[(1140, 804)]",[],[1],[0.7166666666666667],vertical,"(390.0, 262.0)",0.6333333333333333,0.684,1,2313.086,1,0.02,same
0,246,valid,"[(1178, 795)]",[],[1],[0.55],horizontal,"(390.0, 762.0)",1.0333333333333332,0.512,1,2317.663,1,0.02,same
0,247,valid,"[(1180, 796)]",[],[1],[0.5],horizontal,"(390.0, 762.0)",0.5833333333333334,0.46,1,2322.918,1,0.02,same
0,248,invalid_adjacent_other_bar,"[(1151, 782)]",[],[1],[0.85],vertical,"(890.0, 762.0)",0.7333333333333333,nan,0,2327.369,0,0.02,other
0,249,valid,"[(1121, 812)]",[],[1],[0.5333333333333333],vertical,"(890.0, 262.0)",1.0,0.495,1,2331.716,1,0.02,same
0,250,catch,"[(1150, 806)]",[],[1],[],horizontal,"(390.0, 762.0)",1.7,nan,1,2337.001,1,0.02,same
0,251,valid,"[(1145, 795)]",[],[1],[0.5],vertical,"(890.0, 762.0)",1.2333333333333334,0.46,1,2342.449,1,0.02,same
0,252,valid,"[(1078, 885)]",[],[1],[0.55],horizontal,"(890.0, 762.0)",1.2666666666666666,0.512,1,2347.638,2,0.02,same
0,253,valid,"[(1160, 808)]",[],[1],[0.36666666666666664],vertical,"(390.0, 262.0)",1.2166666666666666,0.327,1,2353.648,2,0.02,same
0,254,valid,"[(1101, 806)]",[],[1],[0.55],horizontal,"(390.0, 262.0)",0.8666666666666667,0.512,1,2359.337,2,0.02,same
0,255,valid,"[(1170, 809)]",[],[1],[0.4166666666666667],horizontal,"(390.0, 762.0)",1.4833333333333334,0.377,1,2367.554,3,0.02,same
0,256,catch,"[(1173, 819)]",[],[1],[],vertical,"(390.0, 262.0)",1.7,nan,1,2374.229,3,0.02,same
0,257,valid,"[(1146, 802)]",[],[1],[0.5166666666666666],vertical,"(890.0, 262.0)",0.9,0.474,1,2380.636,3,0.02,same
0,258,valid,"[(1165, 812)]",[],[1],[0.4666666666666667],vertical,"(890.0, 762.0)",0.6666666666666666,0.432,1,2385.898,3,0.02,same
0,259,valid,"[(1165, 797)]",[],[1],[0.5833333333333334],horizontal,"(890.0, 262.0)",0.43333333333333335,0.543,1,2391.587,3,0.02,same
0,260,invalid_same_bar,"[(1127, 813)]",[],[1],[0.5],vertical,"(890.0, 262.0)",0.9666666666666667,0.458,1,2396.798,3,0.02,same
0,261,valid,"[(1080, 813)]",[],[1],[0.85],horizontal,"(390.0, 762.0)",1.0,nan,0,2402.586,0,0.02,same
0,262,valid,"[(1167, 801)]",[],[1],[0.5333333333333333],vertical,"(890.0, 262.0)",0.4166666666666667,0.491,1,2407.203,1,0.02,same
0,263,invalid_same_bar,"[(1078, 816)]",[],[1],[0.6166666666666667],horizontal,"(390.0, 262.0)",1.3833333333333333,0.578,1,2411.352,1,0.02,same
0,264,valid,"[(1158, 803)]",[],[1],[0.36666666666666664],horizontal,"(390.0, 762.0)",1.3,0.332,1,2416.654,1,0.02,same
0,265,valid,"[(1132, 847)]",[],[1],[0.5166666666666666],vertical,"(890.0, 762.0)",1.1833333333333333,0.474,1,2422.186,2,0.02,same
0,266,valid,"[(1165, 809)]",[],[1],[0.5333333333333333],vertical,"(890.0, 762.0)",0.85,0.496,1,2427.771,2,0.02,same
0,267,valid,"[(1125, 815)]",[],[1],[0.48333333333333334],horizontal,"(390.0, 262.0)",1.0166666666666666,0.451,1,2432.888,2,0.02,same
0,268,valid,"[(1126, 821)]",[],[1],[0.85],vertical,"(390.0, 762.0)",0.5166666666666666,nan,0,2438.295,0,0.02,same
0,269,valid,"[(1042, 891)]",[],[1],[0.5333333333333333],vertical,"(390.0, 762.0)",1.25,0.493,1,2442.386,1,0.02,same
0,270,valid,"[(1135, 799)]",[],[1],[0.5],horizontal,"(390.0, 762.0)",1.4666666666666666,0.458,1,2447.586,1,0.02,same
0,271,catch,"[(1160, 800)]",[],[1],[],vertical,"(390.0, 262.0)",1.7,nan,1,2453.237,1,0.02,same
0,272,valid,"[(1143, 802)]",[],[1],[],vertical,"(890.0, 262.0)",,"('cti', 0.566)",0,2458.317,0,0.02,same
0,273,valid,"[(1120, 836)]",[],[1],[0.5333333333333333],horizontal,"(390.0, 762.0)",1.2,0.5,1,2462.196,1,0.02,same
0,274,catch,"[(1178, 795)]",[],[1],[],vertical,"(890.0, 762.0)",1.7,nan,1,2729.855,1,0.02,same
0,275,valid,"[(1159, 776)]",[],[1],[],horizontal,"(890.0, 262.0)",,"('fix', 0.351)",0,2735.172,0,0.02,same
0,276,invalid_adjacent_other_bar,"[(1140, 803)]",[],[1],[0.3833333333333333],vertical,"(890.0, 762.0)",1.4166666666666667,0.35,1,2736.877,1,0.02,other
0,277,catch,"[(1165, 793)]",[],[1],[],horizontal,"(390.0, 262.0)",1.7,nan,1,2742.608,1,0.02,same
0,278,valid,"[(1160, 791)]",[],[1],[0.5],horizontal,"(390.0, 762.0)",0.7166666666666667,0.468,1,2747.887,1,0.02,same
0,279,catch,"[(1169, 794)]",[],[1],[],horizontal,"(890.0, 262.0)",,"('cti', 1.302),nan",0,2752.725,0,0.04,same
0,280,valid,"[(1170, 796)]",[],[1],[0.85],horizontal,"(390.0, 262.0)",0.7666666666666666,nan,0,2757.289,0,0.04,same
0,281,valid,"[(1160, 773)]",[],[1],[0.45],vertical,"(890.0, 262.0)",1.0166666666666666,0.416,1,2762.055,1,0.04,same
0,282,catch,"[(1165, 782)]",[],[1],[],vertical,"(390.0, 262.0)",1.7,nan,1,2767.071,1,0.04,same
0,283,valid,"[(1140, 783)]",[],[1],[0.5333333333333333],horizontal,"(390.0, 262.0)",1.2,0.492,1,2772.221,1,0.04,same
0,284,valid,"[(1165, 786)]",[],[1],[0.85],horizontal,"(390.0, 262.0)",1.2333333333333334,nan,0,2777.681,0,0.04,same
0,285,catch,"[(1165, 787)]",[],[1],[],vertical,"(390.0, 762.0)",1.7,nan,1,2783.021,1,0.04,same
0,286,valid,"[(1116, 832)]",[],[1],[0.4666666666666667],horizontal,"(390.0, 762.0)",1.5166666666666666,0.427,1,2787.827,1,0.04,same
0,287,valid,"[(1183, 795)]",[],[1],[0.5166666666666666],vertical,"(890.0, 762.0)",1.4166666666666667,0.486,1,2792.954,1,0.04,same
0,288,valid,"[(1174, 797)]",[],[1],[0.5666666666666667],horizontal,"(890.0, 762.0)",1.0666666666666667,0.533,1,2798.454,2,0.04,same
0,289,valid,"[(1086, 797)]",[],[1],[0.5],horizontal,"(390.0, 762.0)",0.9666666666666667,0.46,1,2803.956,2,0.04,same
0,290,valid,"[(1158, 772)]",[],[1],[0.4666666666666667],vertical,"(890.0, 762.0)",1.1,0.427,1,2809.075,2,0.04,same
0,291,invalid_same_bar,"[(1131, 806)]",[],[1],[0.5333333333333333],horizontal,"(890.0, 762.0)",1.1666666666666667,0.503,1,2814.293,3,0.04,same
0,292,valid,"[(1161, 803)]",[],[1],[0.5166666666666666],horizontal,"(390.0, 262.0)",1.1333333333333333,0.474,1,2820.375,3,0.04,same
0,293,valid,"[(1139, 799)]",[],[1],[0.5666666666666667],horizontal,"(890.0, 262.0)",0.43333333333333335,0.524,1,2826.621,3,0.04,same
0,294,valid,"[(1141, 795)]",[],[1],[0.5333333333333333],horizontal,"(390.0, 762.0)",1.3833333333333333,0.49,1,2831.788,3,0.02,same
0,295,valid,"[(1165, 793)]",[],[1],[0.48333333333333334],horizontal,"(390.0, 262.0)",1.05,0.442,1,2838.233,3,0.02,same
0,296,valid,"[(1165, 795)]",[],[1],[0.6333333333333333],horizontal,"(390.0, 762.0)",0.8666666666666667,0.59,1,2843.89,3,0.02,same
0,297,catch,"[(1160, 794)]",[],[1],[],vertical,"(390.0, 762.0)",1.7,nan,1,2849.916,3,0.02,same
0,298,valid,"[(1170, 799)]",[],[1],[0.65],vertical,"(390.0, 762.0)",0.5,0.609,1,2855.788,3,0.02,same
0,299,invalid_adjacent_other_bar,"[(1183, 810)]",[],[1],[],horizontal,"(890.0, 262.0)",,"('fix', 0.255)",0,2861.464,0,0.02,other
0,300,invalid_adjacent_other_bar,"[(1073, 808)]",[],[1],[0.6333333333333333],horizontal,"(890.0, 762.0)",1.5,0.591,1,2863.256,1,0.02,other
0,301,catch,"[(1160, 782)]",[],[1],[],vertical,"(390.0, 762.0)",1.7,nan,1,2869.626,1,0.02,same
0,302,valid,"[(1170, 796)]",[],[1],[0.5166666666666666],vertical,"(390.0, 762.0)",1.1,0.479,1,2874.571,1,0.02,same
0,303,catch,"[(1165, 782)]",[],[1],[],horizontal,"(890.0, 762.0)",,"('cti', 1.321),nan",0,2879.994,0,0.04,same
0,304,catch,"[(1091, 838)]",[],[1],[],vertical,"(890.0, 262.0)",,"('cti', 1.408),nan",0,2884.854,0,0.06,same
0,305,valid,"[(1126, 791)]",[],[1],[0.6333333333333333],vertical,"(890.0, 262.0)",0.6833333333333333,0.589,1,2895.027,1,0.06,same
0,306,valid,"[(1145, 787)]",[],[1],[0.5],vertical,"(390.0, 262.0)",0.6833333333333333,0.463,1,2899.772,1,0.06,same
0,307,valid,"[(1135, 797)]",[],[1],[0.5],vertical,"(390.0, 262.0)",0.9833333333333333,0.456,1,2904.407,1,0.06,same
0,308,catch,"[(1140, 792)]",[],[1],[],vertical,"(390.0, 262.0)",1.7,nan,1,2909.621,2,0.06,same
0,309,invalid_adjacent_other_bar,"[(1165, 795)]",[],[1],[0.5166666666666666],horizontal,"(390.0, 762.0)",0.6166666666666667,0.484,1,2914.857,2,0.06,other
0,310,valid,"[(1142, 801)]",[],[1],[0.85],horizontal,"(390.0, 762.0)",0.9166666666666666,nan,0,2919.743,0,0.06,same
0,311,valid,"[(1145, 806)]",[],[1],[0.5],horizontal,"(890.0, 762.0)",0.7166666666666667,0.465,1,2924.57,1,0.06,same
0,312,invalid_adjacent_other_bar,"[(1160, 801)]",[],[1],[0.85],horizontal,"(390.0, 762.0)",1.4666666666666666,nan,0,2929.438,0,0.06,other
0,313,catch,"[(1126, 806)]",[],[1],[],horizontal,"(890.0, 262.0)",1.7,nan,1,2934.565,1,0.06,same
0,314,valid,"[(1160, 796)]",[],[1],[0.85],vertical,"(890.0, 262.0)",0.36666666666666664,nan,0,2940.17,0,0.06,same
0,315,valid,"[(1122, 815)]",[],[1],[0.45],vertical,"(890.0, 262.0)",0.6,0.412,1,2943.968,1,0.06,same
0,316,catch,"[(1167, 790)]",[],[1],[],horizontal,"(890.0, 762.0)",1.7,nan,1,2948.663,1,0.06,same
0,317,catch,"[(1175, 787)]",[],[1],[],vertical,"(390.0, 762.0)",1.7,nan,1,2953.691,1,0.06,same
0,318,valid,"[(1165, 781)]",[],[1],[0.6166666666666667],horizontal,"(390.0, 262.0)",0.9,0.576,1,2959.056,2,0.06,same
0,319,catch,"[(1165, 796)]",[],[1],[],vertical,"(890.0, 262.0)",1.7,nan,1,2964.439,2,0.06,same
0,320,invalid_adjacent_other_bar,"[(1115, 836)]",[],[1],[0.7833333333333333],horizontal,"(390.0, 262.0)",0.5666666666666667,0.732,1,2970.068,2,0.06,other
0,321,valid,"[(1131, 790)]",[],[1],[0.85],vertical,"(390.0, 762.0)",1.5166666666666666,nan,0,3283.559,0,0.06,same
0,322,valid,"[(1086, 834)]",[],[1],[0.5833333333333334],vertical,"(390.0, 262.0)",1.2833333333333332,0.539,1,3288.607,1,0.06,same
0,323,valid,"[(1160, 774)]",[],[1],[0.5666666666666667],horizontal,"(890.0, 262.0)",0.5833333333333334,0.533,1,3302.635,1,0.06,same
0,324,valid,"[(1167, 794)]",[],[1],[0.4666666666666667],vertical,"(390.0, 762.0)",1.45,0.424,1,3307.439,1,0.06,same
0,325,valid,"[(1165, 798)]",[],[1],[0.5],vertical,"(890.0, 762.0)",1.1333333333333333,0.464,1,3313.223,2,0.06,same
0,326,catch,"[(1172, 807)]",[],[1],[],horizontal,"(390.0, 762.0)",1.7,nan,1,3318.373,2,0.06,same
0,327,valid,"[(1135, 801)]",[],[1],[0.6333333333333333],vertical,"(390.0, 762.0)",1.4166666666666667,0.594,1,3323.698,2,0.06,same
0,328,valid,"[(1165, 798)]",[],[1],[0.5166666666666666],vertical,"(390.0, 762.0)",0.5333333333333333,0.475,1,3329.795,3,0.06,same
0,329,valid,"[(1172, 778)]",[],[1],[0.85],horizontal,"(890.0, 262.0)",0.5666666666666667,nan,0,3335.063,0,0.04,same
0,330,valid,"[(1175, 802)]",[],[1],[0.85],horizontal,"(890.0, 262.0)",0.7,nan,0,3339.739,0,0.04,same
0,331,valid,"[(1131, 819)]",[],[1],[0.85],vertical,"(390.0, 262.0)",0.4166666666666667,nan,0,3344.409,0,0.04,same
0,332,invalid_same_bar,"[(1120, 815)]",[],[1],[0.08333333333333333],horizontal,"(890.0, 262.0)",1.25,0.05,0,3355.624,0,0.04,same
0,333,invalid_same_bar,"[(1070, 838)]",[],[1],[],horizontal,"(890.0, 762.0)",,"('cti', 0.199)",0,3359.99,0,0.04,same
0,334,valid,"[(1089, 796)]",[],[1],[0.5833333333333334],horizontal,"(390.0, 262.0)",0.55,0.544,1,3376.156,1,0.04,same
0,335,catch,"[(1155, 789)]",[],[1],[],vertical,"(390.0, 262.0)",1.7,nan,1,3381.219,1,0.04,same
0,336,catch,"[(1180, 788)]",[],[1],[],horizontal,"(390.0, 762.0)",1.7,nan,1,3386.395,1,0.04,same
0,337,valid,"[(1137, 798)]",[],[1],[0.6666666666666666],vertical,"(390.0, 262.0)",1.0833333333333333,0.622,1,3391.607,2,0.04,same
0,338,catch,"[(1177, 803)]",[],[1],[],vertical,"(390.0, 762.0)",1.7,nan,1,3397.185,2,0.04,same
0,339,catch,"[(1155, 792)]",[],[1],[],horizontal,"(890.0, 262.0)",1.7,nan,1,3402.774,2,0.04,same
0,340,invalid_adjacent_other_bar,"[(1160, 779)]",[],[1],[0.4166666666666667],vertical,"(890.0, 262.0)",1.5166666666666666,0.377,1,3408.695,3,0.04,other
0,341,valid,"[(1156, 786)]",[],[1],[0.5],vertical,"(390.0, 762.0)",0.55,0.456,1,3415.099,3,0.04,same
0,342,valid,"[(1156, 770)]",[],[1],[0.5166666666666666],horizontal,"(390.0, 762.0)",1.4666666666666666,0.472,1,3420.223,3,0.04,same
0,343,invalid_adjacent_other_bar,"[(1125, 781)]",[],[1],[0.6166666666666667],horizontal,"(890.0, 262.0)",1.15,0.581,1,3426.872,3,0.04,other
0,344,catch,"[(1142, 794)]",[],[1],[],vertical,"(390.0, 762.0)",1.7,nan,1,3432.907,3,0.04,same
0,345,catch,"[(1155, 786)]",[],[1],[],vertical,"(390.0, 762.0)",1.7,nan,1,3439.057,3,0.04,same
0,346,valid,"[(1180, 784)]",[],[1],[0.5166666666666666],vertical,"(890.0, 262.0)",0.7333333333333333,0.481,1,3445.206,3,0.04,same
0,347,valid,"[(1184, 765)]",[],[1],[0.5666666666666667],horizontal,"(390.0, 262.0)",1.2833333333333332,0.531,1,3450.369,3,0.04,same
0,348,valid,"[(1190, 782)]",[],[1],[0.5166666666666666],vertical,"(390.0, 762.0)",0.8166666666666667,0.477,1,3456.522,3,0.04,same
0,349,invalid_adjacent_other_bar,"[(1155, 795)]",[],[1],[0.4166666666666667],horizontal,"(390.0, 262.0)",1.5166666666666666,0.375,1,3462.225,3,0.04,other
0,350,valid,"[(1150, 782)]",[],[1],[0.4666666666666667],vertical,"(890.0, 762.0)",1.45,0.429,1,3468.751,3,0.04,same
0,351,catch,"[(1190, 768)]",[],[1],[],vertical,"(890.0, 262.0)",1.7,nan,1,3475.156,3,0.04,same
0,352,catch,"[(1180, 792)]",[],[1],[],horizontal,"(390.0, 262.0)",1.7,nan,1,3481.323,3,0.04,same
0,353,invalid_same_bar,"[(1135, 827)]",[],[1],[],vertical,"(390.0, 762.0)",,"('cti', 0.474)",0,3487.089,0,0.02,same
0,354,catch,"[(1206, 796)]",[],[1],[],vertical,"(390.0, 762.0)",1.7,nan,1,3491.242,1,0.0,same
0,355,valid,"[(1150, 796)]",[],[1],[0.55],horizontal,"(890.0, 762.0)",0.35,0.51,1,3496.623,1,0.0,same
0,356,catch,"[(1155, 779)]",[],[1],[],vertical,"(390.0, 262.0)",1.7,nan,1,3501.323,1,0.0,same
0,357,valid,"[(1180, 768)]",[],[1],[0.5],horizontal,"(890.0, 262.0)",0.7166666666666667,0.458,1,3506.607,2,0.0,same
0,358,valid,"[(1140, 803)]",[],[1],[0.85],horizontal,"(390.0, 762.0)",0.6666666666666666,nan,0,3511.95,0,0.0,same
0,359,catch,"[(1108, 790)]",[],[1],[],horizontal,"(390.0, 262.0)",1.7,nan,1,3516.457,1,0.0,same
0,360,invalid_same_bar,"[(1086, 765)]",[],[1],[0.45],horizontal,"(390.0, 262.0)",1.3666666666666667,0.414,1,3549.831,1,0.0,same
0,361,catch,"[(1159, 769)]",[],[1],[],vertical,"(890.0, 262.0)",1.7,nan,1,3555.574,1,0.0,same
0,362,valid,"[(1137, 799)]",[],[1],[0.6166666666666667],horizontal,"(390.0, 262.0)",0.4666666666666667,0.578,1,3560.558,2,0.0,same
0,363,valid,"[(1175, 788)]",[],[1],[0.5166666666666666],horizontal,"(390.0, 762.0)",0.36666666666666664,0.48,1,3565.719,2,0.0,same
0,364,invalid_same_bar,"[(1170, 774)]",[],[1],[0.65],horizontal,"(390.0, 762.0)",1.0666666666666667,0.605,1,3570.292,2,0.0,same
0,365,invalid_same_bar,"[(1135, 786)]",[],[1],[0.5],horizontal,"(390.0, 762.0)",1.2333333333333334,0.46,1,3575.783,3,0.0,same
0,366,invalid_same_bar,"[(1180, 781)]",[],[1],[0.85],horizontal,"(890.0, 762.0)",0.5333333333333333,nan,0,3582.044,0,0.0,same
0,367,invalid_adjacent_other_bar,"[(1115, 770)]",[],[1],[0.5166666666666666],horizontal,"(890.0, 262.0)",1.3333333333333333,0.481,1,3586.548,1,0.0,other
0,368,valid,"[(1192, 778)]",[],[1],[0.5666666666666667],horizontal,"(890.0, 262.0)",0.85,0.522,1,3591.924,1,0.0,same
0,369,catch,"[(1155, 782)]",[],[1],[],horizontal,"(390.0, 262.0)",1.7,nan,1,3596.69,1,0.0,same
0,370,valid,"[(1167, 770)]",[],[1],[0.5333333333333333],vertical,"(890.0, 762.0)",0.85,0.492,1,3602.341,2,0.0,same
0,371,valid,"[(1094, 763)]",[],[1],[0.7],vertical,"(890.0, 262.0)",0.35,0.667,1,3607.658,2,0.0,same
0,372,valid,"[(1140, 785)]",[],[1],[0.7166666666666667],vertical,"(890.0, 762.0)",1.4,0.668,1,3612.808,2,0.0,same
0,373,valid,"[(1135, 772)]",[],[1],[0.5166666666666666],vertical,"(890.0, 762.0)",1.35,0.473,1,3618.991,3,0.0,same
0,374,invalid_same_bar,"[(1130, 790)]",[],[1],[0.48333333333333334],horizontal,"(390.0, 262.0)",0.65,0.445,1,3624.994,3,0.0,same
0,375,valid,"[(1169, 782)]",[],[1],[0.5],horizontal,"(390.0, 762.0)",1.2333333333333334,0.465,1,3630.64,3,0.0,same
0,376,valid,"[(1175, 801)]",[],[1],[0.5166666666666666],horizontal,"(390.0, 262.0)",0.8,0.477,1,3636.288,3,0.0,same
0,377,valid,"[(1140, 792)]",[],[1],[0.3333333333333333],horizontal,"(390.0, 762.0)",1.5166666666666666,0.294,1,3642.1,3,0.0,same
0,378,valid,"[(1170, 777)]",[],[1],[0.6],vertical,"(390.0, 762.0)",0.48333333333333334,0.557,1,3648.477,3,0.0,same
0,379,valid,"[(1135, 785)]",[],[1],[0.2833333333333333],vertical,"(890.0, 262.0)",0.8166666666666667,0.252,1,3654.021,3,0.0,same
0,380,invalid_same_bar,"[(1110, 842)]",[],[1],[0.85],vertical,"(390.0, 762.0)",0.48333333333333334,nan,0,3659.672,0,0.0,same
0,381,valid,"[(1115, 816)]",[],[1],[0.45],horizontal,"(890.0, 262.0)",1.4666666666666666,0.41,1,3677.58,1,0.0,same
0,382,catch,"[(1142, 766)]",[],[1],[],horizontal,"(890.0, 262.0)",1.7,nan,1,3683.12,1,0.0,same
0,383,valid,"[(1160, 796)]",[],[1],[0.6],horizontal,"(390.0, 262.0)",0.48333333333333334,0.558,1,3688.023,1,0.0,same
0,384,catch,"[(1128, 804)]",[],[1],[],vertical,"(390.0, 262.0)",1.7,nan,1,3692.574,2,0.0,same
0,385,invalid_adjacent_other_bar,"[(1157, 769)]",[],[1],[0.55],vertical,"(390.0, 262.0)",0.9,0.514,1,3698.372,2,0.0,other
0,386,valid,"[(1144, 777)]",[],[1],[0.5],vertical,"(890.0, 262.0)",1.4,0.455,1,3703.942,2,0.0,same
0,387,valid,"[(1119, 808)]",[],[1],[0.48333333333333334],horizontal,"(890.0, 762.0)",0.6333333333333333,0.443,1,3709.99,3,0.0,same
0,388,valid,"[(1075, 802)]",[],[1],[0.6166666666666667],vertical,"(890.0, 262.0)",0.4666666666666667,0.57,1,3721.687,3,0.0,same
0,389,catch,"[(1128, 811)]",[],[1],[],vertical,"(890.0, 762.0)",1.7,nan,1,3733.814,3,0.0,same
0,390,valid,"[(1137, 800)]",[],[1],[0.5166666666666666],horizontal,"(390.0, 762.0)",1.1666666666666667,0.473,1,3740.07,3,0.0,same
0,391,valid,"[(1086, 822)]",[],[1],[0.85],vertical,"(390.0, 262.0)",1.3833333333333333,nan,0,3746.425,0,0.0,same
0,392,catch,"[(1144, 791)]",[],[1],[],horizontal,"(890.0, 262.0)",1.7,nan,1,4716.105,1,0.0,same
0,393,catch,"[(1161, 791)]",[],[1],[],horizontal,"(390.0, 762.0)",,"('cti', 1.522),nan",0,4721.517,0,0.02,same
0,394,valid,"[(1174, 799)]",[],[1],[0.5666666666666667],vertical,"(390.0, 262.0)",1.3666666666666667,0.531,1,4725.894,1,0.02,same
0,395,catch,"[(1159, 778)]",[],[1],[],horizontal,"(390.0, 762.0)",1.7,nan,1,4731.281,1,0.02,same
0,396,valid,"[(1121, 796)]",[],[1],[0.55],vertical,"(890.0, 762.0)",0.45,0.514,1,4736.477,1,0.02,same
0,397,catch,"[(1120, 801)]",[],[1],[],horizontal,"(890.0, 762.0)",1.7,nan,1,4741.461,2,0.02,same
0,398,valid,"[(1136, 776)]",[],[1],[0.48333333333333334],horizontal,"(890.0, 762.0)",0.6,0.444,1,4746.968,2,0.02,same
0,399,valid,"[(1141, 790)]",[],[1],[0.6166666666666667],horizontal,"(390.0, 262.0)",1.4333333333333333,0.574,1,4751.95,2,0.02,same
0,400,valid,"[(1139, 791)]",[],[1],[0.5],vertical,"(390.0, 762.0)",1.0666666666666667,0.462,1,4757.771,3,0.02,same
0,401,catch,"[(1130, 796)]",[],[1],[],horizontal,"(390.0, 762.0)",1.7,nan,1,4763.594,3,0.02,same
0,402,catch,"[(1125, 805)]",[],[1],[],horizontal,"(890.0, 262.0)",1.7,nan,1,4769.176,3,0.02,same
0,403,valid,"[(1160, 807)]",[],[1],[0.5166666666666666],horizontal,"(390.0, 262.0)",1.3333333333333333,0.474,1,4775.561,3,0.02,same
0,404,invalid_adjacent_other_bar,"[(1135, 789)]",[],[1],[0.55],vertical,"(890.0, 262.0)",1.35,0.508,1,4781.377,3,0.02,other
0,405,valid,"[(1086, 780)]",[],[1],[0.48333333333333334],horizontal,"(890.0, 762.0)",0.8333333333333334,0.452,1,4787.336,3,0.02,same
0,406,valid,"[(1140, 797)]",[],[1],[0.5333333333333333],horizontal,"(890.0, 262.0)",1.1,0.492,1,4792.76,3,0.02,same
0,407,valid,"[(1113, 782)]",[],[1],[0.45],vertical,"(890.0, 762.0)",1.25,0.407,1,4798.262,3,0.02,same
0,408,valid,"[(1161, 803)]",[],[1],[0.55],horizontal,"(890.0, 762.0)",0.6333333333333333,0.509,1,4804.011,3,0.02,same
0,409,valid,"[(1156, 795)]",[],[1],[0.45],horizontal,"(390.0, 762.0)",1.3333333333333333,0.412,1,4809.327,3,0.02,same
0,410,valid,"[(1135, 801)]",[],[1],[0.4666666666666667],horizontal,"(890.0, 762.0)",1.0,0.427,1,4815.118,3,0.02,same
0,411,valid,"[(1115, 791)]",[],[1],[0.4666666666666667],vertical,"(890.0, 262.0)",1.05,0.431,1,4820.516,3,0.02,same
0,412,valid,"[(1117, 791)]",[],[1],[0.3],horizontal,"(890.0, 262.0)",1.2833333333333332,0.262,1,4826.711,3,0.02,same
0,413,valid,"[(1133, 797)]",[],[1],[0.2833333333333333],horizontal,"(390.0, 762.0)",0.8,0.248,1,4832.864,3,0.02,same
0,414,valid,"[(1145, 785)]",[],[1],[0.6333333333333333],horizontal,"(890.0, 262.0)",0.45,0.596,1,4838.213,3,0.02,same
0,415,valid,"[(1161, 783)]",[],[1],[0.5],horizontal,"(390.0, 262.0)",1.0166666666666666,0.463,1,4843.211,3,0.02,same
0,416,valid,"[(1169, 788)]",[],[1],[0.6333333333333333],horizontal,"(390.0, 762.0)",0.6833333333333333,0.6,1,4849.272,3,0.02,same
0,417,catch,"[(1194, 800)]",[],[1],[],horizontal,"(890.0, 762.0)",,"('cti', 1.653),nan",0,4854.844,0,0.04,same
0,418,invalid_adjacent_other_bar,"[(1135, 778)]",[],[1],[0.35],vertical,"(890.0, 762.0)",1.2666666666666666,0.315,1,4859.829,1,0.04,other
0,419,invalid_adjacent_other_bar,"[(1160, 810)]",[],[1],[0.85],vertical,"(390.0, 762.0)",0.55,nan,0,4865.132,0,0.04,other
0,420,valid,"[(1130, 786)]",[],[1],[0.36666666666666664],horizontal,"(390.0, 262.0)",1.45,0.327,1,4869.644,1,0.04,same
0,421,valid,"[(1131, 798)]",[],[1],[0.6666666666666666],horizontal,"(390.0, 762.0)",1.25,0.621,1,4875.313,1,0.04,same
0,422,valid,"[(1150, 778)]",[],[1],[0.5666666666666667],horizontal,"(890.0, 762.0)",1.5166666666666666,0.519,1,4880.644,1,0.04,same
0,423,valid,"[(1133, 793)]",[],[1],[0.5166666666666666],vertical,"(390.0, 762.0)",0.43333333333333335,0.478,1,4886.095,2,0.04,same
0,424,valid,"[(1088, 798)]",[],[1],[0.5833333333333334],horizontal,"(390.0, 262.0)",1.1833333333333333,0.543,1,4891.017,2,0.04,same
0,425,valid,"[(1160, 780)]",[],[1],[0.85],vertical,"(390.0, 262.0)",1.3333333333333333,nan,0,4896.85,0,0.04,same
0,426,catch,"[(1160, 786)]",[],[1],[],vertical,"(890.0, 262.0)",1.7,nan,1,4901.892,1,0.04,same
0,427,valid,"[(1121, 809)]",[],[1],[0.85],horizontal,"(390.0, 762.0)",0.45,nan,0,4906.988,0,0.04,same
0,428,invalid_same_bar,"[(1119, 791)]",[],[1],[0.5833333333333334],vertical,"(890.0, 762.0)",0.95,0.541,1,4911.661,1,0.04,same
0,429,catch,"[(1155, 785)]",[],[1],[],horizontal,"(390.0, 262.0)",1.7,nan,1,4916.812,1,0.04,same
0,430,invalid_same_bar,"[(1135, 795)]",[],[1],[0.48333333333333334],vertical,"(890.0, 762.0)",0.7833333333333333,0.447,1,4922.011,1,0.04,same
0,431,catch,"[(1135, 791)]",[],[1],[],horizontal,"(890.0, 762.0)",,"('cti', 1.011),nan",0,4926.927,0,0.06,same
0,432,valid,"[(1096, 811)]",[],[1],[0.55],vertical,"(390.0, 262.0)",1.1333333333333333,0.515,1,4930.911,1,0.06,same
0,433,valid,"[(1153, 766)]",[],[1],[0.48333333333333334],horizontal,"(390.0, 262.0)",1.1833333333333333,0.446,1,4964.726,1,0.06,same
0,434,catch,"[(1158, 766)]",[],[1],[],horizontal,"(890.0, 262.0)",1.7,"('cti', 1.685),nan",0,4970.079,0,0.08,same
0,435,catch,"[(1149, 792)]",[],[1],[],horizontal,"(890.0, 262.0)",1.7,nan,1,4975.012,1,0.08,same
0,436,valid,"[(1165, 791)]",[],[1],[0.5166666666666666],vertical,"(890.0, 762.0)",1.35,0.475,1,4980.628,1,0.08,same
0,437,catch,"[(1170, 758)]",[],[1],[],vertical,"(890.0, 762.0)",1.7,nan,1,4985.692,1,0.08,same
0,438,valid,"[(1134, 767)]",[],[1],[0.6333333333333333],horizontal,"(890.0, 762.0)",0.7,0.587,1,4991.086,2,0.08,same
0,439,invalid_adjacent_other_bar,"[(1159, 772)]",[],[1],[0.5833333333333334],horizontal,"(890.0, 762.0)",0.9,0.536,1,4996.009,2,0.08,other
0,440,valid,"[(1178, 797)]",[],[1],[0.48333333333333334],horizontal,"(390.0, 262.0)",0.75,0.442,1,5001.795,2,0.08,same
0,441,valid,"[(1135, 798)]",[],[1],[0.45],horizontal,"(890.0, 262.0)",0.6833333333333333,0.412,1,5006.808,3,0.08,same
0,442,valid,"[(1160, 785)]",[],[1],[0.5166666666666666],horizontal,"(890.0, 762.0)",1.2,0.474,1,5012.567,3,0.08,same
0,443,valid,"[(1129, 803)]",[],[1],[0.48333333333333334],vertical,"(390.0, 762.0)",0.8166666666666667,0.439,1,5018.429,3,0.06,same
0,444,valid,"[(1132, 799)]",[],[1],[0.5666666666666667],vertical,"(390.0, 262.0)",0.9,0.529,1,5023.811,3,0.06,same
0,445,valid,"[(1086, 826)]",[],[1],[0.7333333333333333],vertical,"(390.0, 762.0)",0.8666666666666667,0.689,1,5029.663,3,0.06,same
0,446,catch,"[(1160, 817)]",[],[1],[],horizontal,"(390.0, 762.0)",,"('cti', 1.386),nan",0,5048.811,0,0.08,same
0,447,catch,"[(1088, 811)]",[],[1],[],vertical,"(890.0, 762.0)",,"('cti', 1.592),nan",0,5053.512,0,0.1,same
0,448,valid,"[(1073, 820)]",[],[1],[0.85],vertical,"(390.0, 262.0)",1.0833333333333333,nan,0,5058.428,0,0.1,same
0,449,valid,"[(1088, 827)]",[],[1],[0.6666666666666666],horizontal,"(890.0, 262.0)",1.1833333333333333,0.621,1,5486.887,1,0.1,same
0,450,catch,"[(1090, 813)]",[],[1],[],vertical,"(390.0, 262.0)",1.7,nan,1,5495.263,1,0.1,same
0,451,invalid_same_bar,"[(1132, 786)]",[],[1],[0.5166666666666666],horizontal,"(890.0, 262.0)",1.05,0.474,1,5504.991,1,0.1,same
0,452,valid,"[(1156, 810)]",[],[1],[0.85],horizontal,"(390.0, 762.0)",0.75,nan,0,5510.047,0,0.1,same
0,453,valid,"[(1123, 791)]",[],[1],[0.5333333333333333],horizontal,"(890.0, 762.0)",0.8666666666666667,0.491,1,5514.717,1,0.1,same
0,454,catch,"[(1159, 782)]",[],[1],[],vertical,"(890.0, 762.0)",1.7,nan,1,5519.58,1,0.1,same
0,455,invalid_adjacent_other_bar,"[(1130, 797)]",[],[1],[0.6833333333333333],horizontal,"(890.0, 762.0)",0.5666666666666667,0.637,1,5524.962,1,0.1,other
0,456,valid,"[(1160, 776)]",[],[1],[0.5],vertical,"(390.0, 762.0)",0.7333333333333333,0.459,1,5529.679,2,0.1,same
0,457,catch,"[(1125, 777)]",[],[1],[],horizontal,"(890.0, 262.0)",1.7,nan,1,5534.561,2,0.1,same
0,458,valid,"[(1162, 782)]",[],[1],[0.48333333333333334],horizontal,"(890.0, 262.0)",1.1166666666666667,0.441,1,5540.014,2,0.1,same
0,459,catch,"[(1095, 814)]",[],[1],[],horizontal,"(390.0, 762.0)",1.7,nan,1,5545.83,3,0.1,same
0,460,valid,"[(1160, 787)]",[],[1],[0.48333333333333334],vertical,"(890.0, 262.0)",0.6666666666666666,0.443,1,5552.279,3,0.1,same
0,461,valid,"[(1130, 785)]",[],[1],[0.45],vertical,"(390.0, 262.0)",1.35,0.406,1,5557.48,3,0.1,same
0,462,valid,"[(1155, 798)]",[],[1],[0.55],horizontal,"(390.0, 762.0)",0.75,0.517,1,5563.813,3,0.1,same
0,463,catch,"[(1162, 780)]",[],[1],[],horizontal,"(390.0, 262.0)",1.7,nan,1,5569.229,3,0.1,same
0,464,valid,"[(1100, 801)]",[],[1],[0.5333333333333333],horizontal,"(390.0, 762.0)",0.5,0.489,1,5575.389,3,0.1,same
0,465,valid,"[(1160, 771)]",[],[1],[0.85],vertical,"(390.0, 262.0)",1.3166666666666667,nan,0,5580.729,0,0.1,same
0,466,catch,"[(1116, 803)]",[],[1],[],vertical,"(390.0, 262.0)",1.7,nan,1,5585.421,1,0.1,same
0,467,valid,"[(1097, 821)]",[],[1],[0.5166666666666666],horizontal,"(890.0, 762.0)",0.6833333333333333,0.474,1,5590.53,1,0.08,same
0,468,catch,"[(1125, 800)]",[],[1],[],horizontal,"(890.0, 762.0)",1.7,nan,1,5595.618,1,0.08,same
0,469,valid,"[(1155, 796)]",[],[1],[0.6166666666666667],horizontal,"(390.0, 762.0)",1.1166666666666667,0.574,1,5600.441,2,0.08,same
0,470,valid,"[(1086, 780)]",[],[1],[0.5166666666666666],horizontal,"(890.0, 262.0)",0.48333333333333334,0.475,1,5606.335,2,0.08,same
0,471,catch,"[(1134, 790)]",[],[1],[],horizontal,"(890.0, 762.0)",1.7,nan,1,5611.397,2,0.08,same
0,472,catch,"[(1129, 780)]",[],[1],[],horizontal,"(890.0, 762.0)",,"('cti', 1.565),nan",0,5616.903,0,0.1,same
0,473,catch,"[(1136, 781)]",[],[1],[],vertical,"(890.0, 262.0)",1.7,nan,1,5621.831,1,0.1,same
0,474,valid,"[(1179, 783)]",[],[1],[0.4166666666666667],horizontal,"(890.0, 762.0)",1.5166666666666666,0.376,1,5627.446,1,0.1,same
0,475,catch,"[(1135, 786)]",[],[1],[],horizontal,"(390.0, 762.0)",1.7,nan,1,5632.831,1,0.1,same
0,476,valid,"[(1140, 796)]",[],[1],[0.6],vertical,"(390.0, 762.0)",0.8,0.555,1,5638.226,2,0.1,same
0,477,catch,"[(1137, 786)]",[],[1],[],horizontal,"(390.0, 762.0)",1.7,nan,1,5643.801,2,0.1,same
0,478,valid,"[(1161, 782)]",[],[1],[0.55],horizontal,"(390.0, 762.0)",0.8333333333333334,0.508,1,5649.447,2,0.1,same
0,479,valid,"[(1147, 781)]",[],[1],[0.5],vertical,"(890.0, 762.0)",0.6166666666666667,0.462,1,5654.799,3,0.1,same
0,480,catch,"[(1150, 786)]",[],[1],[],vertical,"(890.0, 762.0)",1.7,nan,1,5660.289,3,0.1,same
0,481,valid,"[(1140, 784)]",[],[1],[0.5333333333333333],vertical,"(890.0, 762.0)",0.85,0.495,1,5666.525,3,0.08,same
0,482,invalid_adjacent_other_bar,"[(1146, 786)]",[],[1],[0.5333333333333333],horizontal,"(890.0, 262.0)",1.3666666666666667,0.491,1,5672.43,3,0.08,other
0,483,catch,"[(1090, 785)]",[],[1],[],vertical,"(890.0, 762.0)",1.7,nan,1,5678.883,3,0.08,same
0,484,valid,"[(1155, 804)]",[],[1],[0.8333333333333334],horizontal,"(890.0, 262.0)",1.15,0.784,1,5685.496,3,0.06,same
0,485,valid,"[(1166, 798)]",[],[1],[0.5166666666666666],vertical,"(890.0, 762.0)",1.05,0.472,1,5691.859,3,0.06,same
0,486,invalid_same_bar,"[(1090, 801)]",[],[1],[0.4666666666666667],vertical,"(890.0, 262.0)",0.9166666666666666,0.43,1,5697.609,3,0.06,same
0,487,valid,"[(1123, 792)]",[],[1],[0.5166666666666666],horizontal,"(890.0, 762.0)",1.1333333333333333,0.482,1,5703.313,3,0.06,same
0,488,catch,"[(1165, 786)]",[],[1],[],vertical,"(390.0, 262.0)",1.7,nan,1,5709.454,3,0.06,same
0,489,valid,"[(1161, 786)]",[],[1],[0.5166666666666666],horizontal,"(390.0, 762.0)",1.0333333333333332,0.477,1,5715.643,3,0.06,same
0,490,valid,"[(1141, 793)]",[],[1],[0.85],vertical,"(390.0, 262.0)",0.36666666666666664,nan,0,5721.123,0,0.06,same
0,491,invalid_adjacent_other_bar,"[(1137, 785)]",[],[1],[0.55],vertical,"(890.0, 262.0)",0.6666666666666666,0.509,1,5725.137,1,0.06,other
0,492,catch,"[(1165, 772)]",[],[1],[],horizontal,"(890.0, 262.0)",1.7,nan,1,5729.726,1,0.06,same
0,493,catch,"[(1164, 780)]",[],[1],[],horizontal,"(390.0, 762.0)",1.7,nan,1,5735.413,1,0.06,same
0,494,valid,"[(1152, 771)]",[],[1],[0.55],horizontal,"(890.0, 262.0)",0.8666666666666667,0.51,1,5741.189,2,0.06,same
0,495,valid,"[(1123, 796)]",[],[1],[0.45],horizontal,"(890.0, 262.0)",1.05,0.412,1,5746.787,2,0.06,same
0,496,catch,"[(1131, 796)]",[],[1],[],horizontal,"(390.0, 762.0)",1.7,nan,1,5752.363,2,0.04,same
0,497,catch,"[(1140, 796)]",[],[1],[],vertical,"(890.0, 262.0)",1.7,nan,1,5758.346,3,0.02,same
0,498,catch,"[(1142, 794)]",[],[1],[],vertical,"(390.0, 762.0)",1.7,nan,1,5764.316,3,0.02,same
0,499,valid,"[(1140, 789)]",[],[1],[0.3833333333333333],horizontal,"(890.0, 262.0)",1.5333333333333332,0.344,1,5770.181,3,0.02,same
0,500,valid,"[(1135, 779)]",[],[1],[0.5166666666666666],vertical,"(890.0, 262.0)",0.9333333333333333,0.473,1,5776.713,3,0.02,same
0,501,catch,"[(1087, 764)]",[],[1],[],vertical,"(890.0, 762.0)",1.7,nan,1,5782.596,3,0.02,same
0,502,catch,"[(1150, 793)]",[],[1],[],vertical,"(390.0, 762.0)",1.7,nan,1,5788.931,3,0.02,same
0,503,valid,"[(1140, 794)]",[],[1],[0.26666666666666666],horizontal,"(890.0, 262.0)",1.25,0.228,1,5794.848,3,0.02,same
0,504,valid,"[(1163, 796)]",[],[1],[0.5166666666666666],vertical,"(390.0, 262.0)",0.9166666666666666,0.482,1,5800.997,3,0.02,same
0,505,valid,"[(1140, 795)]",[],[1],[0.85],vertical,"(390.0, 262.0)",0.6166666666666667,nan,0,5806.563,0,0.02,same
0,506,valid,"[(1121, 790)]",[],[1],[0.85],vertical,"(390.0, 262.0)",0.6333333333333333,nan,0,5810.681,0,0.02,same
0,507,valid,"[(1125, 778)]",[],[1],[0.48333333333333334],vertical,"(390.0, 762.0)",0.45,0.437,1,5814.964,1,0.02,same
0,508,catch,"[(1162, 767)]",[],[1],[],vertical,"(390.0, 762.0)",1.7,nan,1,5819.448,1,0.02,same
0,509,valid,"[(1149, 790)]",[],[1],[0.85],horizontal,"(890.0, 762.0)",1.3333333333333333,nan,0,5824.831,0,0.02,same
0,510,valid,"[(1120, 796)]",[],[1],[0.55],horizontal,"(890.0, 262.0)",0.6666666666666666,0.508,1,5829.88,1,0.02,same
0,511,valid,"[(1153, 777)]",[],[1],[0.45],vertical,"(890.0, 762.0)",0.6666666666666666,0.412,1,5834.355,1,0.02,same
0,512,catch,"[(1150, 796)]",[],[1],[],vertical,"(390.0, 762.0)",1.7,nan,1,5838.814,1,0.02,same
0,513,valid,"[(1132, 783)]",[],[1],[0.55],vertical,"(390.0, 762.0)",0.7833333333333333,0.509,1,5844.063,2,0.02,same
0,514,invalid_same_bar,"[(1163, 774)]",[],[1],[0.5833333333333334],horizontal,"(890.0, 262.0)",0.6333333333333333,0.543,1,5849.323,2,0.02,same
0,515,valid,"[(1155, 795)]",[],[1],[0.5833333333333334],vertical,"(890.0, 262.0)",0.4166666666666667,0.541,1,5854.155,2,0.02,same
0,516,catch,"[(1144, 785)]",[],[1],[],vertical,"(890.0, 262.0)",1.7,nan,1,5859.598,3,0.02,same
0,517,catch,"[(1141, 815)]",[],[1],[],horizontal,"(890.0, 762.0)",1.7,nan,1,5865.617,3,0.02,same
0,518,valid,"[(1139, 791)]",[],[1],[0.6333333333333333],vertical,"(390.0, 762.0)",1.1,0.586,1,5871.715,3,0.02,same
0,519,valid,"[(1115, 801)]",[],[1],[0.5166666666666666],vertical,"(890.0, 762.0)",0.43333333333333335,0.478,1,5877.553,3,0.02,same
0,520,catch,"[(1131, 788)]",[],[1],[],horizontal,"(890.0, 762.0)",1.7,nan,1,5882.697,3,0.02,same
0,521,catch,"[(1080, 831)]",[],[1],[],horizontal,"(890.0, 762.0)",1.7,nan,1,5888.997,3,0.02,same
0,522,invalid_adjacent_other_bar,"[(1140, 802)]",[],[1],[0.31666666666666665],vertical,"(890.0, 262.0)",1.3333333333333333,0.278,1,5895.124,3,0.0,other
0,523,valid,"[(1071, 786)]",[],[1],[0.5],horizontal,"(390.0, 262.0)",1.45,0.457,1,5901.013,3,0.0,same
0,524,valid,"[(1137, 772)]",[],[1],[0.85],vertical,"(390.0, 762.0)",0.7,nan,0,7300.965,0,0.0,same
0,525,valid,"[(1137, 802)]",[],[1],[0.8333333333333334],vertical,"(890.0, 762.0)",1.1833333333333333,0.785,1,7305.218,1,0.0,same
0,526,valid,"[(1141, 790)]",[],[1],[0.48333333333333334],vertical,"(890.0, 762.0)",0.3833333333333333,0.446,1,7310.434,1,0.0,same
0,527,catch,"[(1124, 790)]",[],[1],[],vertical,"(890.0, 762.0)",1.7,nan,1,7314.958,1,0.0,same
0,528,valid,"[(1135, 785)]",[],[1],[0.6166666666666667],horizontal,"(390.0, 762.0)",1.3166666666666667,0.576,1,7320.569,2,0.0,same
0,529,catch,"[(1161, 779)]",[],[1],[],vertical,"(890.0, 762.0)",1.7,nan,1,7326.7,2,0.0,same
0,530,valid,"[(1121, 826)]",[],[1],[0.5333333333333333],vertical,"(890.0, 762.0)",0.95,0.49,1,7332.193,2,0.0,same
0,531,catch,"[(1131, 804)]",[],[1],[],horizontal,"(390.0, 762.0)",1.7,nan,1,7337.6,3,0.0,same
0,532,valid,"[(1133, 777)]",[],[1],[0.6166666666666667],horizontal,"(390.0, 762.0)",0.8333333333333334,0.585,1,7343.786,3,0.0,same
0,533,catch,"[(1131, 806)]",[],[1],[],horizontal,"(390.0, 262.0)",1.7,nan,1,7349.55,3,0.0,same
0,534,valid,"[(1164, 796)]",[],[1],[0.7],vertical,"(390.0, 262.0)",0.9,0.655,1,7355.484,3,0.0,same
0,535,valid,"[(1164, 787)]",[],[1],[0.5],horizontal,"(390.0, 762.0)",0.55,0.462,1,7361.635,3,0.0,same
0,536,valid,"[(1146, 786)]",[],[1],[0.55],horizontal,"(890.0, 762.0)",0.7833333333333333,0.516,1,7367.123,3,0.0,same
0,537,valid,"[(1146, 782)]",[],[1],[0.55],horizontal,"(890.0, 762.0)",0.8333333333333334,0.507,1,7373.002,3,0.0,same
0,538,valid,"[(1144, 808)]",[],[1],[0.4666666666666667],vertical,"(390.0, 762.0)",0.9333333333333333,0.433,1,7378.569,3,0.0,same
0,539,valid,"[(1175, 800)]",[],[1],[0.45],vertical,"(890.0, 262.0)",1.3333333333333333,0.417,1,7384.083,3,0.0,same
0,540,valid,"[(1125, 778)]",[],[1],[0.6166666666666667],horizontal,"(390.0, 262.0)",0.9333333333333333,0.577,1,7390.3,3,0.0,same
0,541,catch,"[(1135, 799)]",[],[1],[],horizontal,"(890.0, 762.0)",1.7,nan,1,7396.151,3,0.0,same
0,542,valid,"[(1167, 811)]",[],[1],[0.48333333333333334],horizontal,"(390.0, 762.0)",1.4666666666666666,0.447,1,7402.189,3,0.0,same
0,543,valid,"[(1169, 813)]",[],[1],[0.55],vertical,"(390.0, 262.0)",0.8166666666666667,0.511,1,7408.601,3,0.0,same
0,544,valid,"[(1135, 808)]",[],[1],[0.5],vertical,"(890.0, 762.0)",0.65,0.462,1,7414.663,3,0.0,same
0,545,valid,"[(1137, 819)]",[],[1],[0.55],horizontal,"(390.0, 762.0)",0.8,0.512,1,7420.142,3,0.0,same
0,546,valid,"[(1136, 786)]",[],[1],[0.6833333333333333],horizontal,"(890.0, 762.0)",0.8,0.65,1,7425.99,3,0.0,same
0,547,valid,"[(1131, 810)]",[],[1],[0.48333333333333334],horizontal,"(390.0, 762.0)",1.0333333333333332,0.443,1,7432.024,3,0.0,same
0,548,catch,"[(1165, 776)]",[],[1],[],vertical,"(390.0, 262.0)",1.7,nan,1,7437.779,3,0.0,same
0,549,valid,"[(1115, 832)]",[],[1],[0.5666666666666667],horizontal,"(890.0, 762.0)",1.4833333333333334,0.527,1,7443.534,3,0.0,same
0,550,valid,"[(1086, 808)]",[],[1],[0.48333333333333334],horizontal,"(890.0, 762.0)",0.65,0.446,1,7450.151,3,0.0,same
0,551,invalid_adjacent_other_bar,"[(1125, 793)]",[],[1],[0.85],vertical,"(390.0, 762.0)",1.1666666666666667,nan,0,7455.985,0,0.0,other
0,552,valid,"[(1123, 791)]",[],[1],[0.85],vertical,"(390.0, 762.0)",0.6166666666666667,nan,0,7461.012,0,0.0,same
0,553,valid,"[(1090, 821)]",[],[1],[0.75],horizontal,"(390.0, 762.0)",0.6666666666666666,0.709,1,7465.335,1,0.0,same
0,554,valid,"[(1088, 826)]",[],[1],[0.5],horizontal,"(890.0, 262.0)",0.7,0.456,1,7474.138,1,0.0,same
0,555,valid,"[(1152, 787)]",[],[1],[0.85],horizontal,"(390.0, 262.0)",0.7333333333333333,nan,0,7479.052,0,0.0,same
0,556,valid,"[(1133, 785)]",[],[1],[0.5],vertical,"(890.0, 762.0)",0.9833333333333333,0.461,1,7483.898,1,0.0,same
0,557,catch,"[(1134, 796)]",[],[1],[],horizontal,"(890.0, 762.0)",1.7,nan,1,7488.62,1,0.0,same
0,558,catch,"[(1165, 794)]",[],[1],[],horizontal,"(890.0, 762.0)",1.7,nan,1,7493.971,1,0.0,same
0,559,catch,"[(1165, 794)]",[],[1],[],horizontal,"(890.0, 262.0)",1.7,nan,1,7499.393,2,0.0,same
0,560,valid,"[(1128, 801)]",[],[1],[0.5],horizontal,"(390.0, 762.0)",0.6,0.459,1,7504.784,2,0.0,same
0,561,valid,"[(1155, 785)]",[],[1],[0.6],vertical,"(390.0, 262.0)",1.15,0.556,1,7509.502,2,0.0,same
0,562,valid,"[(1140, 821)]",[],[1],[0.5],vertical,"(890.0, 762.0)",0.75,0.458,1,7515.153,3,0.0,same
0,563,valid,"[(1146, 772)]",[],[1],[0.85],vertical,"(890.0, 762.0)",0.6,nan,0,7521.186,0,0.0,same
0,564,valid,"[(1120, 792)]",[],[1],[0.55],vertical,"(890.0, 762.0)",0.35,0.512,1,7525.285,1,0.0,same
0,565,valid,"[(1162, 803)]",[],[1],[0.4666666666666667],horizontal,"(890.0, 262.0)",0.5,0.427,1,7529.485,1,0.0,same
0,566,catch,"[(1154, 795)]",[],[1],[],vertical,"(390.0, 762.0)",,"('cti', 1.511),nan",0,7533.819,0,0.02,same
0,567,valid,"[(1163, 786)]",[],[1],[0.45],horizontal,"(890.0, 262.0)",0.8166666666666667,0.418,1,7539.007,1,0.02,same
0,568,valid,"[(1130, 808)]",[],[1],[0.4666666666666667],horizontal,"(890.0, 762.0)",1.4166666666666667,0.431,1,7543.667,1,0.02,same
0,569,valid,"[(1090, 866)]",[],[1],[0.85],horizontal,"(890.0, 762.0)",0.65,nan,0,7548.953,0,0.02,same
0,570,valid,"[(1135, 852)]",[],[1],[0.85],horizontal,"(390.0, 762.0)",0.6166666666666667,nan,0,7553.36,0,0.02,same
0,571,invalid_adjacent_other_bar,"[(1072, 823)]",[],[1],[0.5666666666666667],horizontal,"(890.0, 262.0)",0.4166666666666667,0.525,1,11288.777,1,0.02,other
0,572,catch,"[(1115, 831)]",[],[1],[],horizontal,"(390.0, 262.0)",1.7,nan,1,11293.83,1,0.02,same
0,573,valid,"[(1140, 811)]",[],[1],[0.6333333333333333],horizontal,"(390.0, 762.0)",0.9666666666666667,0.593,1,11299.291,1,0.02,same
0,574,valid,"[(1133, 803)]",[],[1],[0.6833333333333333],horizontal,"(390.0, 762.0)",0.6666666666666666,0.65,1,11304.531,2,0.02,same
0,575,invalid_same_bar,"[(1130, 789)]",[],[1],[0.5833333333333334],vertical,"(390.0, 262.0)",0.6,0.546,1,11310.308,2,0.02,same
0,576,invalid_same_bar,"[(1170, 784)]",[],[1],[0.6166666666666667],vertical,"(390.0, 262.0)",0.7,0.578,1,11315.514,2,0.02,same
0,577,valid,"[(1160, 804)]",[],[1],[0.85],vertical,"(390.0, 762.0)",0.5333333333333333,nan,0,11320.863,0,0.02,same
0,578,valid,"[(1160, 796)]",[],[1],[],horizontal,"(890.0, 762.0)",,"('cti', 1.173)",0,11325.264,0,0.02,same
0,579,catch,"[(1135, 816)]",[],[1],[],horizontal,"(390.0, 762.0)",1.7,nan,1,11329.897,1,0.02,same
0,580,valid,"[(1137, 816)]",[],[1],[0.55],vertical,"(890.0, 262.0)",1.35,0.51,1,11335.798,1,0.02,same
0,581,invalid_adjacent_other_bar,"[(1147, 788)]",[],[1],[0.6333333333333333],vertical,"(890.0, 762.0)",0.6166666666666667,0.593,1,11341.297,1,0.02,other
0,582,catch,"[(1134, 809)]",[],[1],[],vertical,"(390.0, 262.0)",1.7,nan,1,11346.048,2,0.02,same
0,583,valid,"[(1143, 804)]",[],[1],[0.5166666666666666],horizontal,"(390.0, 262.0)",1.3166666666666667,0.481,1,11351.513,2,0.02,same
0,584,catch,"[(1142, 781)]",[],[1],[],vertical,"(390.0, 762.0)",1.7,nan,1,11357.001,2,0.02,same
0,585,catch,"[(1153, 765)]",[],[1],[],horizontal,"(390.0, 262.0)",1.7,nan,1,11362.652,3,0.02,same
0,586,catch,"[(1146, 783)]",[],[1],[],horizontal,"(390.0, 262.0)",1.7,nan,1,11368.531,3,0.02,same
0,587,valid,"[(1137, 801)]",[],[1],[0.5333333333333333],vertical,"(890.0, 762.0)",0.35,0.489,1,11374.462,3,0.02,same
0,588,catch,"[(1146, 805)]",[],[1],[],vertical,"(890.0, 262.0)",1.7,nan,1,11380.115,3,0.02,same
0,589,catch,"[(1141, 806)]",[],[1],[],horizontal,"(390.0, 262.0)",1.7,nan,1,11386.114,3,0.02,same
0,590,catch,"[(1135, 796)]",[],[1],[],vertical,"(390.0, 262.0)",1.7,nan,1,11392.347,3,0.02,same
0,591,valid,"[(1139, 793)]",[],[1],[0.45],vertical,"(890.0, 262.0)",1.35,0.408,1,11398.262,3,0.02,same
0,592,valid,"[(1155, 806)]",[],[1],[0.85],horizontal,"(390.0, 262.0)",1.3666666666666667,nan,0,11404.579,0,0.02,same
0,593,valid,"[(1143, 796)]",[],[1],[0.55],vertical,"(890.0, 762.0)",0.9333333333333333,0.517,1,11409.464,1,0.02,same
0,594,catch,"[(1140, 807)]",[],[1],[],horizontal,"(390.0, 762.0)",1.7,nan,1,11414.492,1,0.02,same
0,595,valid,"[(1144, 807)]",[],[1],[0.5],vertical,"(890.0, 262.0)",0.36666666666666664,0.459,1,11419.664,1,0.02,same
0,596,invalid_same_bar,"[(1145, 781)]",[],[1],[0.5],vertical,"(890.0, 762.0)",1.4666666666666666,0.461,1,11424.347,2,0.02,same
0,597,valid,"[(1138, 779)]",[],[1],[0.5166666666666666],vertical,"(390.0, 262.0)",0.85,0.471,1,11430.131,2,0.02,same
0,598,invalid_same_bar,"[(1134, 792)]",[],[1],[0.5166666666666666],horizontal,"(890.0, 762.0)",0.7666666666666666,0.479,1,11435.648,2,0.02,same
0,599,valid,"[(1125, 808)]",[],[1],[0.85],horizontal,"(390.0, 262.0)",0.55,nan,0,11440.931,0,0.02,same
0,600,catch,"[(1099, 775)]",[],[1],[],vertical,"(890.0, 262.0)",1.7,nan,1,11445.464,1,0.02,same
0,601,valid,"[(1125, 813)]",[],[1],[0.45],vertical,"(890.0, 262.0)",1.5,0.41,1,11450.639,1,0.02,same
0,602,valid,"[(1159, 796)]",[],[1],[0.6166666666666667],horizontal,"(890.0, 762.0)",0.9333333333333333,0.579,1,11456.03,1,0.02,same
0,603,catch,"[(1133, 778)]",[],[1],[],vertical,"(890.0, 762.0)",,"('cti', 1.555),nan",0,11460.815,0,0.04,same
0,604,catch,"[(1125, 787)]",[],[1],[],vertical,"(890.0, 262.0)",1.7,nan,1,11465.593,1,0.04,same
0,605,catch,"[(1170, 801)]",[],[1],[],horizontal,"(390.0, 762.0)",1.7,nan,1,11471.497,1,0.04,same
0,606,valid,"[(1166, 792)]",[],[1],[0.4666666666666667],vertical,"(890.0, 762.0)",1.05,0.434,1,11476.314,1,0.04,same
0,607,catch,"[(1090, 799)]",[],[1],[],vertical,"(890.0, 262.0)",1.7,nan,1,11480.974,2,0.04,same
0,608,valid,"[(1135, 775)]",[],[1],[0.5166666666666666],vertical,"(890.0, 762.0)",1.1666666666666667,0.48,1,11487.065,2,0.04,same
0,609,catch,"[(1131, 792)]",[],[1],[],vertical,"(890.0, 262.0)",1.7,nan,1,11493.064,2,0.04,same
0,610,catch,"[(1135, 797)]",[],[1],[],vertical,"(390.0, 262.0)",1.7,nan,1,11498.648,3,0.04,same
0,611,valid,"[(1133, 806)]",[],[1],[0.85],horizontal,"(390.0, 262.0)",0.95,nan,0,11504.931,0,0.04,same
0,612,valid,"[(1125, 772)]",[],[1],[0.6166666666666667],horizontal,"(890.0, 762.0)",0.55,0.574,1,11509.765,1,0.04,same
0,613,catch,"[(1159, 805)]",[],[1],[],vertical,"(390.0, 762.0)",1.7,nan,1,11514.363,1,0.04,same
0,614,catch,"[(1122, 790)]",[],[1],[],vertical,"(890.0, 762.0)",1.7,nan,1,11519.626,1,0.04,same
0,615,valid,"[(1132, 788)]",[],[1],[0.48333333333333334],horizontal,"(890.0, 262.0)",0.5833333333333334,0.447,1,11524.848,2,0.04,same
0,616,valid,"[(1135, 772)]",[],[1],[0.5166666666666666],vertical,"(890.0, 762.0)",0.4166666666666667,0.479,1,11530.046,2,0.02,same
0,617,valid,"[(1082, 815)]",[],[1],[0.5333333333333333],vertical,"(390.0, 762.0)",0.4,0.494,1,11534.881,2,0.02,same
0,618,catch,"[(1130, 817)]",[],[1],[],vertical,"(390.0, 762.0)",1.7,nan,1,11540.119,3,0.02,same
0,619,valid,"[(1168, 786)]",[],[1],[0.5166666666666666],horizontal,"(390.0, 262.0)",1.5333333333333332,0.484,1,11546.782,3,0.02,same
0,620,catch,"[(1131, 779)]",[],[1],[],vertical,"(890.0, 262.0)",1.7,nan,1,11553.218,3,0.02,same
0,621,valid,"[(1170, 777)]",[],[1],[0.6166666666666667],horizontal,"(390.0, 762.0)",0.5166666666666666,0.58,1,11559.489,3,0.02,same
0,622,valid,"[(1118, 812)]",[],[1],[0.6833333333333333],vertical,"(890.0, 762.0)",1.25,0.639,1,11564.759,3,0.02,same
0,623,catch,"[(1149, 797)]",[],[1],[],horizontal,"(390.0, 262.0)",1.7,nan,1,11571.092,3,0.02,same
0,624,catch,"[(1110, 807)]",[],[1],[],horizontal,"(390.0, 262.0)",1.7,nan,1,11577.315,3,0.02,same
0,625,valid,"[(1135, 774)]",[],[1],[0.6666666666666666],horizontal,"(390.0, 762.0)",1.05,0.624,1,11583.448,3,0.02,same
0,626,catch,"[(1127, 781)]",[],[1],[],vertical,"(890.0, 262.0)",1.7,nan,1,11589.731,3,0.02,same
0,627,catch,"[(1160, 796)]",[],[1],[],vertical,"(890.0, 762.0)",1.7,nan,1,11595.831,3,0.02,same
0,628,valid,"[(1160, 793)]",[],[1],[0.6666666666666666],horizontal,"(890.0, 262.0)",0.43333333333333335,0.62,1,11602.144,3,0.02,same
0,629,valid,"[(1165, 778)]",[],[1],[0.6166666666666667],horizontal,"(390.0, 262.0)",0.7666666666666666,0.568,1,11607.35,3,0.02,same
0,630,invalid_same_bar,"[(1165, 784)]",[],[1],[0.6333333333333333],vertical,"(390.0, 262.0)",1.45,0.589,1,11613.253,3,0.02,same
0,631,valid,"[(1120, 789)]",[],[1],[0.45],vertical,"(390.0, 762.0)",1.4,0.409,1,11619.706,3,0.02,same
0,632,valid,"[(1080, 817)]",[],[1],[0.5],vertical,"(890.0, 762.0)",0.6833333333333333,0.462,1,11626.452,3,0.02,same
0,633,valid,"[(1086, 798)]",[],[1],[0.3833333333333333],vertical,"(390.0, 762.0)",1.2833333333333332,0.347,1,11632.22,3,0.02,same
0,634,valid,"[(1164, 771)]",[],[1],[0.7166666666666667],vertical,"(890.0, 262.0)",0.95,0.666,1,11638.947,3,0.02,same
0,635,invalid_adjacent_other_bar,"[(1125, 809)]",[],[1],[0.85],horizontal,"(390.0, 262.0)",0.4,nan,0,11644.864,0,0.02,other
0,636,valid,"[(1150, 795)]",[],[1],[0.5666666666666667],horizontal,"(890.0, 262.0)",0.4,0.522,1,11649.778,1,0.02,same
0,637,invalid_adjacent_other_bar,"[(1164, 806)]",[],[1],[0.85],horizontal,"(390.0, 262.0)",0.9,nan,0,11653.949,0,0.02,other
0,638,valid,"[(1125, 800)]",[],[1],[0.85],horizontal,"(390.0, 262.0)",0.45,nan,0,11658.756,0,0.02,same
0,639,valid,"[(1150, 784)]",[],[1],[0.5666666666666667],vertical,"(390.0, 262.0)",0.6166666666666667,0.521,1,11663.314,1,0.02,same
0,640,catch,"[(1165, 778)]",[],[1],[],vertical,"(390.0, 762.0)",1.7,nan,1,11667.722,1,0.02,same
0,641,catch,"[(1134, 770)]",[],[1],[],horizontal,"(890.0, 762.0)",1.7,nan,1,11672.914,1,0.02,same
0,642,valid,"[(1166, 779)]",[],[1],[0.5833333333333334],horizontal,"(890.0, 762.0)",1.5166666666666666,0.55,1,11677.962,2,0.02,same
0,643,valid,"[(1131, 786)]",[],[1],[0.5166666666666666],horizontal,"(890.0, 262.0)",0.9,0.469,1,11684.261,2,0.02,same
0,644,catch,"[(1122, 811)]",[],[1],[],vertical,"(890.0, 262.0)",,"('cti', 1.437),nan",0,11689.542,0,0.04,same
0,645,invalid_adjacent_other_bar,"[(1150, 794)]",[],[1],[0.5],vertical,"(890.0, 762.0)",0.5166666666666666,0.46,1,11694.337,1,0.04,other
0,646,invalid_same_bar,"[(1156, 769)]",[],[1],[0.55],horizontal,"(890.0, 762.0)",0.6833333333333333,0.505,1,11698.896,1,0.04,same
0,647,valid,"[(1135, 774)]",[],[1],[0.5833333333333334],horizontal,"(890.0, 762.0)",1.2,0.533,1,11703.77,1,0.04,same
0,648,valid,"[(1130, 769)]",[],[1],[0.5666666666666667],horizontal,"(390.0, 762.0)",1.0166666666666666,0.525,1,11709.168,2,0.04,same
0,649,catch,"[(1150, 776)]",[],[1],[],horizontal,"(390.0, 762.0)",1.7,nan,1,11714.686,2,0.04,same
0,650,catch,"[(1118, 786)]",[],[1],[],horizontal,"(390.0, 762.0)",1.7,nan,1,11720.272,2,0.04,same
0,651,catch,"[(1090, 801)]",[],[1],[],horizontal,"(890.0, 262.0)",1.7,nan,1,11726.215,3,0.04,same
0,652,valid,"[(1169, 781)]",[],[1],[0.6],horizontal,"(890.0, 762.0)",1.2166666666666666,0.554,1,11732.269,3,0.04,same
0,653,catch,"[(1170, 780)]",[],[1],[],vertical,"(890.0, 762.0)",1.7,nan,1,11738.527,3,0.02,same
0,654,valid,"[(1086, 781)]",[],[1],[0.6],vertical,"(890.0, 762.0)",0.4666666666666667,0.56,1,11744.732,3,0.02,same
0,655,valid,"[(1133, 778)]",[],[1],[0.6833333333333333],vertical,"(390.0, 762.0)",0.7333333333333333,0.636,1,11750.076,3,0.02,same
0,656,valid,"[(1169, 764)]",[],[1],[0.5166666666666666],horizontal,"(390.0, 762.0)",0.85,0.474,1,11755.349,3,0.02,same
0,657,catch,"[(1133, 778)]",[],[1],[],horizontal,"(390.0, 762.0)",1.7,nan,1,11760.851,3,0.02,same
0,658,invalid_adjacent_other_bar,"[(1135, 777)]",[],[1],[0.55],vertical,"(390.0, 762.0)",0.36666666666666664,0.506,1,11766.804,3,0.02,other
0,659,catch,"[(1133, 792)]",[],[1],[],vertical,"(390.0, 262.0)",1.7,nan,1,11772.236,3,0.02,same
0,660,invalid_adjacent_other_bar,"[(1124, 768)]",[],[1],[0.7833333333333333],horizontal,"(890.0, 762.0)",1.2833333333333332,0.744,1,11778.085,3,0.02,other
0,661,valid,"[(1165, 780)]",[],[1],[0.55],vertical,"(390.0, 762.0)",0.5833333333333334,0.502,1,11784.681,3,0.02,same
0,662,valid,"[(1125, 811)]",[],[1],[0.55],horizontal,"(390.0, 262.0)",1.3666666666666667,0.517,1,11789.944,3,0.02,same
0,663,valid,"[(1165, 800)]",[],[1],[0.5333333333333333],vertical,"(390.0, 762.0)",1.45,0.493,1,11796.854,3,0.02,same
0,664,valid,"[(1164, 772)]",[],[1],[0.5666666666666667],vertical,"(390.0, 762.0)",0.4666666666666667,0.523,1,11803.316,3,0.02,same
0,665,valid,"[(1163, 770)]",[],[1],[0.5666666666666667],horizontal,"(890.0, 262.0)",1.3666666666666667,0.526,1,11809.015,3,0.02,same
0,666,valid,"[(1158, 784)]",[],[1],[0.5166666666666666],horizontal,"(890.0, 762.0)",0.4,0.476,1,11815.074,3,0.02,same
0,667,valid,"[(1076, 779)]",[],[1],[0.85],horizontal,"(890.0, 762.0)",1.0666666666666667,nan,0,11820.237,0,0.02,same
0,668,invalid_same_bar,"[(1130, 806)]",[],[1],[0.5666666666666667],vertical,"(890.0, 762.0)",1.1666666666666667,0.523,1,11825.416,1,0.02,same
0,669,catch,"[(1136, 772)]",[],[1],[],vertical,"(390.0, 262.0)",1.7,nan,1,11830.613,1,0.02,same
0,670,invalid_adjacent_other_bar,"[(1165, 786)]",[],[1],[0.85],vertical,"(390.0, 762.0)",0.45,nan,0,11836.292,0,0.02,other
0,671,invalid_same_bar,"[(1135, 802)]",[],[1],[],vertical,"(890.0, 762.0)",,"('cti', 0.914)",0,11840.982,0,0.02,same
0,672,valid,"[(1080, 818)]",[],[1],[0.55],vertical,"(890.0, 262.0)",1.5,0.509,1,11845.316,1,0.02,same
0,673,catch,"[(1131, 793)]",[],[1],[],vertical,"(390.0, 762.0)",1.7,nan,1,11972.609,1,0.02,same
0,674,invalid_same_bar,"[(1130, 753), (1125, 816)]",[],"[0, 1]",[0.6833333333333333],vertical,"(390.0, 262.0)",0.75,0.649,1,11977.954,1,0.02,same
0,675,valid,"[(1129, 774)]",[],[1],[0.5833333333333334],horizontal,"(890.0, 262.0)",0.8166666666666667,0.538,1,11984.432,2,0.02,same
0,676,valid,"[(1123, 783)]",[],[1],[0.3833333333333333],vertical,"(890.0, 262.0)",1.3166666666666667,0.348,1,11989.4,2,0.02,same
0,677,valid,"[(1135, 775)]",[],[1],[0.5666666666666667],horizontal,"(390.0, 762.0)",1.4833333333333334,0.526,1,11995.449,2,0.02,same
0,678,valid,"[(1125, 767)]",[],[1],[0.48333333333333334],vertical,"(390.0, 762.0)",0.6833333333333333,0.442,1,12001.216,3,0.02,same
0,679,valid,"[(1135, 781)]",[],[1],[0.5166666666666666],horizontal,"(390.0, 762.0)",1.4,0.481,1,12006.624,3,0.02,same
0,680,catch,"[(1125, 803)]",[],[1],[],horizontal,"(390.0, 762.0)",1.7,nan,1,12012.683,3,0.02,same
0,681,catch,"[(1172, 784)]",[],[1],[],horizontal,"(890.0, 262.0)",1.7,nan,1,12019.77,3,0.02,same
0,682,catch,"[(1168, 786)]",[],[1],[],horizontal,"(890.0, 762.0)",1.7,nan,1,12025.998,3,0.02,same
0,683,valid,"[(1129, 796)]",[],[1],[0.5666666666666667],vertical,"(390.0, 762.0)",0.48333333333333334,0.531,1,12032.175,3,0.02,same
0,684,valid,"[(1120, 776)]",[],[1],[0.5666666666666667],horizontal,"(890.0, 762.0)",1.4333333333333333,0.523,1,12037.983,3,0.02,same
0,685,valid,"[(1133, 788)]",[],[1],[0.5166666666666666],vertical,"(890.0, 762.0)",1.45,0.48,1,12044.087,3,0.02,same
0,686,invalid_same_bar,"[(1165, 778)]",[],[1],[0.5166666666666666],vertical,"(390.0, 762.0)",1.2333333333333334,0.473,1,12050.347,3,0.02,same
0,687,valid,"[(1176, 798)]",[],[1],[0.5166666666666666],horizontal,"(390.0, 262.0)",0.9,0.479,1,12056.636,3,0.02,same
0,688,catch,"[(1126, 776)]",[],[1],[],vertical,"(390.0, 762.0)",1.7,nan,1,12062.332,3,0.02,same
0,689,valid,"[(1169, 790)]",[],[1],[0.5333333333333333],horizontal,"(890.0, 762.0)",1.1833333333333333,0.501,1,12068.804,3,0.02,same
0,690,catch,"[(1168, 785)]",[],[1],[],horizontal,"(390.0, 262.0)",1.7,nan,1,12074.799,3,0.02,same
0,691,invalid_same_bar,"[(1141, 774)]",[],[1],[0.85],horizontal,"(890.0, 762.0)",1.2833333333333332,nan,0,12080.974,0,0.02,same
0,692,catch,"[(1129, 781)]",[],[1],[],vertical,"(890.0, 262.0)",,"('cti', 1.333),nan",0,12085.975,0,0.04,same
0,693,valid,"[(1135, 800)]",[],[1],[0.5166666666666666],vertical,"(890.0, 262.0)",1.2166666666666666,0.483,1,12090.465,1,0.04,same
0,694,valid,"[(1107, 806)]",[],[1],[0.55],horizontal,"(890.0, 262.0)",0.9,0.514,1,12098.368,1,0.02,same
0,695,catch,"[(1112, 786)]",[],[1],[],vertical,"(390.0, 762.0)",1.7,nan,1,12103.418,1,0.02,same
0,696,valid,"[(1121, 803)]",[],[1],[0.3833333333333333],horizontal,"(890.0, 262.0)",1.4666666666666666,0.344,1,12109.014,2,0.02,same
0,697,valid,"[(1119, 781)]",[],[1],[0.55],vertical,"(890.0, 762.0)",0.5333333333333333,0.504,1,12115.107,2,0.02,same
0,698,valid,"[(1166, 795)]",[],[1],[0.5],vertical,"(890.0, 262.0)",0.6666666666666666,0.457,1,12120.49,2,0.02,same
0,699,valid,"[(1119, 796)]",[],[1],[0.85],horizontal,"(890.0, 762.0)",1.15,nan,0,12125.82,0,0.02,same
0,700,valid,"[(1076, 796)]",[],[1],[0.7333333333333333],horizontal,"(390.0, 262.0)",0.8333333333333334,0.688,1,12131.255,1,0.02,same
0,701,catch,"[(1130, 804)]",[],[1],[],vertical,"(890.0, 262.0)",1.7,nan,1,12136.172,1,0.02,same
0,702,valid,"[(1080, 851)]",[],[1],[0.6166666666666667],horizontal,"(390.0, 262.0)",0.48333333333333334,0.578,1,12141.799,1,0.02,same
0,703,invalid_adjacent_other_bar,"[(1145, 774)]",[],[1],[0.6333333333333333],horizontal,"(390.0, 762.0)",0.6166666666666667,0.59,1,12146.585,2,0.02,other
0,704,valid,"[(1085, 791)]",[],[1],[0.6666666666666666],vertical,"(390.0, 762.0)",1.3,0.624,1,12151.683,2,0.02,same
0,705,catch,"[(1130, 772)]",[],[1],[],horizontal,"(890.0, 262.0)",1.7,nan,1,12157.549,2,0.02,same
0,706,valid,"[(1136, 813)]",[],[1],[0.55],horizontal,"(390.0, 762.0)",0.6,0.511,1,12163.381,3,0.02,same
0,707,catch,"[(1161, 793)]",[],[1],[],vertical,"(390.0, 762.0)",1.7,nan,1,12169.099,3,0.02,same
0,708,valid,"[(1131, 790)]",[],[1],[0.5166666666666666],vertical,"(890.0, 762.0)",0.75,0.475,1,12175.6,3,0.02,same
0,709,catch,"[(1136, 796)]",[],[1],[],vertical,"(390.0, 762.0)",1.7,nan,1,12181.3,3,0.02,same
0,710,valid,"[(1129, 769)]",[],[1],[0.5666666666666667],horizontal,"(890.0, 762.0)",0.6,0.53,1,12187.483,3,0.02,same
0,711,valid,"[(1136, 795)]",[],[1],[0.85],vertical,"(390.0, 262.0)",1.35,nan,0,12192.95,0,0.02,same
0,712,valid,"[(1122, 788)]",[],[1],[0.65],vertical,"(390.0, 762.0)",0.8833333333333333,0.612,1,12198.141,1,0.02,same
0,713,catch,"[(1121, 773)]",[],[1],[],horizontal,"(390.0, 762.0)",1.7,nan,1,12203.233,1,0.02,same
0,714,invalid_adjacent_other_bar,"[(1130, 803)]",[],[1],[0.7],horizontal,"(390.0, 762.0)",1.25,0.657,1,12208.261,1,0.02,other
0,715,valid,"[(1168, 786)]",[],[1],[0.7],horizontal,"(890.0, 762.0)",1.2166666666666666,0.658,1,12213.767,2,0.02,same
0,716,valid,"[(1118, 785)]",[],[1],[0.5],horizontal,"(390.0, 762.0)",1.0166666666666666,0.472,1,12219.404,2,0.02,same
0,717,valid,"[(1075, 802)]",[],[1],[],vertical,"(890.0, 262.0)",,"('cti', 0.672)",0,12224.749,0,0.02,same
0,718,valid,"[(1125, 812)]",[],[1],[0.11666666666666667],horizontal,"(890.0, 762.0)",1.4,0.085,0,12237.954,0,0.02,same
0,719,valid,"[(1080, 852)]",[],[1],[0.4666666666666667],vertical,"(390.0, 762.0)",1.2333333333333334,0.432,1,12242.394,1,0.02,same
0,720,valid,"[(1165, 762)]",[],[1],[0.85],vertical,"(390.0, 762.0)",1.1,nan,0,12663.306,0,0.02,same
0,721,invalid_adjacent_other_bar,"[(1086, 800)]",[],[1],[0.7833333333333333],horizontal,"(390.0, 762.0)",0.6833333333333333,0.732,1,12668.167,1,0.02,other
0,722,catch,"[(1076, 779)]",[],[1],[],vertical,"(890.0, 762.0)",1.7,nan,1,12675.734,1,0.02,same
0,723,valid,"[(1082, 863)]",[],[1],[0.5833333333333334],vertical,"(390.0, 762.0)",0.6666666666666666,0.543,1,12681.308,1,0.02,same
0,724,catch,"[(1148, 762)]",[],[1],[],vertical,"(890.0, 262.0)",1.7,nan,1,12686.047,2,0.02,same
0,725,catch,"[(1120, 806)]",[],[1],[],vertical,"(390.0, 762.0)",1.7,nan,1,12691.959,2,0.02,same
0,726,valid,"[(1145, 776)]",[],[1],[0.5],vertical,"(890.0, 762.0)",1.2333333333333334,0.46,1,12697.634,2,0.02,same
0,727,invalid_adjacent_other_bar,"[(1125, 778)]",[],[1],[0.5333333333333333],vertical,"(890.0, 762.0)",1.0,0.491,1,12703.712,3,0.02,other
0,728,valid,"[(1140, 746), (1125, 786)]",[],"[0, 1]",[0.5166666666666666],vertical,"(890.0, 262.0)",1.5,0.475,1,12709.284,3,0.02,same
0,729,valid,"[(1124, 795)]",[],[1],[0.8166666666666667],vertical,"(390.0, 262.0)",0.9166666666666666,0.771,1,12717.667,3,0.02,same
0,730,catch,"[(1153, 761)]",[],[1],[],vertical,"(890.0, 262.0)",1.7,nan,1,12723.987,3,0.02,same
0,731,valid,"[(1140, 779)]",[],[1],[0.5],horizontal,"(890.0, 262.0)",0.45,0.458,1,12729.83,3,0.02,same
0,732,valid,"[(1160, 792)]",[],[1],[0.5166666666666666],vertical,"(890.0, 262.0)",0.85,0.469,1,12735.42,3,0.02,same
0,733,valid,"[(1160, 776)]",[],[1],[0.48333333333333334],vertical,"(890.0, 262.0)",1.5166666666666666,0.441,1,12741.3,3,0.02,same
0,734,invalid_adjacent_other_bar,"[(1160, 798)]",[],[1],[0.5666666666666667],vertical,"(890.0, 262.0)",0.4166666666666667,0.523,1,12747.658,3,0.02,other
0,735,valid,"[(1130, 781)]",[],[1],[0.55],vertical,"(390.0, 262.0)",1.3166666666666667,0.508,1,12753.228,3,0.02,same
0,736,invalid_adjacent_other_bar,"[(1165, 794)]",[],[1],[],vertical,"(390.0, 762.0)",,"('cti', 0.628)",0,12759.615,0,0.02,other
0,737,valid,"[(1089, 811)]",[],[1],[0.85],horizontal,"(390.0, 262.0)",0.3833333333333333,nan,0,12763.468,0,0.02,same
0,738,invalid_same_bar,"[(1130, 772)]",[],[1],[0.5833333333333334],horizontal,"(890.0, 262.0)",0.6666666666666666,0.54,1,12767.502,1,0.02,same
0,739,invalid_same_bar,"[(1160, 759)]",[],[1],[0.48333333333333334],vertical,"(890.0, 762.0)",0.8666666666666667,0.444,1,12772.631,1,0.02,same
0,740,catch,"[(1166, 778)]",[],[1],[],vertical,"(390.0, 262.0)",1.7,nan,1,12777.819,1,0.02,same
0,741,valid,"[(1132, 769)]",[],[1],[0.5166666666666666],vertical,"(890.0, 762.0)",0.9166666666666666,0.477,1,12783.469,2,0.02,same
0,742,catch,"[(1123, 773)]",[],[1],[],horizontal,"(390.0, 262.0)",1.7,nan,1,12788.845,2,0.0,same
0,743,catch,"[(1165, 803)]",[],[1],[],horizontal,"(890.0, 262.0)",1.7,nan,1,12794.868,2,0.0,same
0,744,valid,"[(1160, 766)]",[],[1],[0.5333333333333333],horizontal,"(390.0, 762.0)",0.9666666666666667,0.491,1,12800.518,3,0.0,same
0,745,valid,"[(1163, 774)]",[],[1],[0.6333333333333333],horizontal,"(390.0, 762.0)",0.5,0.587,1,12806.584,3,0.0,same
0,746,valid,"[(1165, 779)]",[],[1],[0.85],vertical,"(890.0, 762.0)",0.7666666666666666,nan,0,12812.538,0,0.0,same
0,747,valid,"[(1131, 794)]",[],[1],[0.6],vertical,"(390.0, 762.0)",0.36666666666666664,0.557,1,12816.884,1,0.0,same
0,748,valid,"[(1139, 777)]",[],[1],[0.85],vertical,"(390.0, 262.0)",0.6,nan,0,12821.786,0,0.0,same
0,749,catch,"[(1136, 803)]",[],[1],[],vertical,"(390.0, 762.0)",1.7,nan,1,12826.727,1,0.0,same
0,750,valid,"[(1138, 786)]",[],[1],[0.6333333333333333],horizontal,"(390.0, 762.0)",0.3833333333333333,0.585,1,12831.784,1,0.0,same
0,751,invalid_same_bar,"[(1149, 792)]",[],[1],[0.5833333333333334],vertical,"(390.0, 262.0)",0.3833333333333333,0.539,1,12836.236,1,0.0,same
0,752,catch,"[(1163, 777)]",[],[1],[],horizontal,"(890.0, 762.0)",1.7,nan,1,12840.93,2,0.0,same
0,753,valid,"[(1135, 788)]",[],[1],[0.5833333333333334],vertical,"(390.0, 762.0)",1.2833333333333332,0.537,1,12846.827,2,0.0,same
0,754,valid,"[(1139, 792)]",[],[1],[0.6333333333333333],horizontal,"(390.0, 262.0)",1.25,0.586,1,12852.469,2,0.0,same
0,755,catch,"[(1165, 772)]",[],[1],[],vertical,"(390.0, 762.0)",1.7,nan,1,12858.439,3,0.0,same
0,756,valid,"[(1178, 811)]",[],[1],[0.6],horizontal,"(390.0, 262.0)",1.0833333333333333,0.556,1,12864.419,3,0.0,same
0,757,valid,"[(1165, 791)]",[],[1],[0.2],horizontal,"(390.0, 262.0)",1.4,0.168,0,12870.452,0,0.0,same
0,758,invalid_adjacent_other_bar,"[(1160, 786)]",[],[1],[0.65],vertical,"(890.0, 262.0)",1.1666666666666667,0.603,1,12875.333,1,0.0,other
0,759,catch,"[(1140, 795)]",[],[1],[],vertical,"(390.0, 762.0)",1.7,nan,1,12880.419,1,0.0,same
0,760,valid,"[(1165, 775)]",[],[1],[0.5833333333333334],horizontal,"(390.0, 762.0)",1.4166666666666667,0.542,1,12886.036,1,0.0,same
0,761,valid,"[(1166, 780)]",[],[1],[0.43333333333333335],vertical,"(890.0, 262.0)",1.5,0.39,1,12891.76,2,0.0,same
0,762,catch,"[(1135, 792)]",[],[1],[],horizontal,"(390.0, 262.0)",1.7,nan,1,12897.765,2,0.0,same
0,763,valid,"[(1165, 777)]",[],[1],[0.55],vertical,"(890.0, 262.0)",0.55,0.51,1,12903.693,2,0.0,same
0,764,valid,"[(1141, 792)]",[],[1],[0.5],vertical,"(890.0, 762.0)",1.1833333333333333,0.456,1,12908.757,3,0.0,same
0,765,catch,"[(1166, 783)]",[],[1],[],vertical,"(890.0, 762.0)",1.7,nan,1,12915.269,3,0.0,same
0,766,valid,"[(1167, 786)]",[],[1],[0.6166666666666667],vertical,"(890.0, 762.0)",1.05,0.569,1,12921.524,3,0.0,same
0,767,valid,"[(1166, 786)]",[],[1],[0.6166666666666667],vertical,"(890.0, 762.0)",1.25,0.57,1,12927.676,3,0.0,same
0,768,valid,"[(1139, 787)]",[],[1],[0.55],horizontal,"(390.0, 762.0)",1.3,0.504,1,12933.879,3,0.0,same
0,769,valid,"[(1166, 794)]",[],[1],[0.6333333333333333],horizontal,"(890.0, 762.0)",0.48333333333333334,0.592,1,12940.126,3,0.0,same
0,770,valid,"[(1121, 790)]",[],[1],[0.6666666666666666],vertical,"(390.0, 262.0)",1.5333333333333332,0.62,1,12945.739,3,0.0,same
0,771,catch,"[(1158, 764)]",[],[1],[],vertical,"(390.0, 262.0)",1.7,nan,1,12952.14,3,0.0,same
0,772,valid,"[(1165, 781)]",[],[1],[0.6666666666666666],horizontal,"(390.0, 262.0)",1.2166666666666666,0.621,1,12958.618,3,0.0,same
0,773,valid,"[(1164, 776)]",[],[1],[0.55],vertical,"(390.0, 262.0)",0.9,0.508,1,12964.514,3,0.0,same
0,774,valid,"[(1153, 780)]",[],[1],[0.5333333333333333],vertical,"(890.0, 762.0)",0.9166666666666666,0.493,1,12970.136,3,0.0,same
0,775,valid,"[(1155, 791)]",[],[1],[0.5333333333333333],horizontal,"(390.0, 262.0)",1.4166666666666667,0.488,1,12976.286,3,0.0,same
0,776,valid,"[(1141, 795)]",[],[1],[0.5833333333333334],vertical,"(890.0, 262.0)",1.0666666666666667,0.536,1,12982.673,3,0.0,same
0,777,valid,"[(1167, 778)]",[],[1],[0.5166666666666666],vertical,"(390.0, 262.0)",0.45,0.476,1,12988.758,3,0.0,same
0,778,valid,"[(1165, 792)]",[],[1],[0.6666666666666666],horizontal,"(390.0, 262.0)",0.55,0.624,1,12994.136,3,0.0,same
0,779,catch,"[(1151, 776)]",[],[1],[],horizontal,"(890.0, 762.0)",1.7,nan,1,12999.818,3,0.0,same
0,780,valid,"[(1144, 808)]",[],[1],[0.5833333333333334],vertical,"(890.0, 762.0)",1.3833333333333333,0.539,1,13006.268,3,0.0,same
0,781,valid,"[(1159, 764)]",[],[1],[0.5166666666666666],horizontal,"(390.0, 762.0)",0.6166666666666667,0.475,1,13012.692,3,0.0,same
0,782,valid,"[(1120, 772)]",[],[1],[0.6166666666666667],vertical,"(890.0, 262.0)",0.36666666666666664,0.566,1,13018.37,3,0.0,same
0,783,valid,"[(1111, 850)]",[],[1],[0.6],vertical,"(390.0, 762.0)",0.5166666666666666,0.558,1,13024.097,3,0.0,same
0,784,invalid_same_bar,"[(1120, 794)]",[],[1],[0.85],horizontal,"(890.0, 762.0)",1.05,nan,0,13568.404,0,0.0,same
0,785,valid,"[(1086, 790)]",[],[1],[0.5166666666666666],horizontal,"(390.0, 262.0)",0.6666666666666666,0.479,1,13573.373,1,0.0,same
0,786,valid,"[(1121, 792)]",[],[1],[0.5],horizontal,"(890.0, 762.0)",0.45,0.46,1,13578.255,1,0.0,same
0,787,catch,"[(1144, 743), (1141, 806)]",[],"[0, 1]",[],vertical,"(890.0, 262.0)",1.7,nan,1,13582.905,1,0.0,same
0,788,valid,"[(1140, 778)]",[],[1],[0.55],vertical,"(390.0, 762.0)",0.36666666666666664,0.51,1,13589.555,2,0.0,same
0,789,catch,"[(1140, 772)]",[],[1],[],horizontal,"(890.0, 262.0)",1.7,nan,1,13594.938,2,0.0,same
0,790,valid,"[(1140, 772)]",[],[1],[0.5833333333333334],horizontal,"(890.0, 762.0)",1.0833333333333333,0.543,1,13600.504,2,0.0,same
0,791,valid,"[(1165, 773)]",[],[1],[0.85],horizontal,"(890.0, 262.0)",0.6333333333333333,nan,0,13606.154,0,0.0,same
0,792,catch,"[(1143, 776)]",[],[1],[],vertical,"(890.0, 262.0)",1.7,nan,1,13611.121,1,0.0,same
0,793,catch,"[(1165, 765)]",[],[1],[],horizontal,"(890.0, 262.0)",1.7,nan,1,13616.33,1,0.0,same
0,794,valid,"[(1138, 804)]",[],[1],[0.5166666666666666],vertical,"(890.0, 262.0)",1.4333333333333333,0.476,1,13621.32,1,0.0,same
0,795,valid,"[(1141, 798)]",[],[1],[0.55],vertical,"(890.0, 262.0)",0.5,0.509,1,13626.553,2,0.0,same
0,796,valid,"[(1135, 791)]",[],[1],[0.4666666666666667],horizontal,"(890.0, 262.0)",1.3833333333333333,0.426,1,13631.803,2,0.0,same
0,797,invalid_adjacent_other_bar,"[(1151, 786)]",[],[1],[0.5],vertical,"(890.0, 762.0)",1.4166666666666667,0.459,1,13637.787,2,0.0,other
0,798,valid,"[(1140, 783)]",[],[1],[0.7],horizontal,"(890.0, 262.0)",0.6166666666666667,0.661,1,13643.672,3,0.0,same
0,799,invalid_same_bar,"[(1165, 785)]",[],[1],[0.85],vertical,"(390.0, 762.0)",0.48333333333333334,nan,0,13649.821,0,0.0,same
0,800,catch,"[(1087, 792)]",[],[1],[],horizontal,"(390.0, 262.0)",1.7,nan,1,13653.92,1,0.0,same
0,801,valid,"[(1167, 801)]",[],[1],[0.55],vertical,"(890.0, 262.0)",1.4166666666666667,0.523,1,13659.395,1,0.0,same
0,802,valid,"[(1165, 806)]",[],[1],[0.6833333333333333],vertical,"(390.0, 762.0)",1.1,0.643,1,13664.607,1,0.0,same
0,803,valid,"[(1165, 790)]",[],[1],[0.55],vertical,"(390.0, 262.0)",1.15,0.51,1,13669.85,2,0.0,same
0,804,catch,"[(1117, 792)]",[],[1],[],horizontal,"(890.0, 262.0)",1.7,nan,1,13675.987,2,0.0,same
0,805,valid,"[(1139, 798)]",[],[1],[0.5333333333333333],horizontal,"(890.0, 262.0)",0.6833333333333333,0.489,1,13681.972,2,0.0,same
0,806,catch,"[(1139, 808)]",[],[1],[],vertical,"(890.0, 762.0)",1.7,nan,1,13687.22,3,0.0,same
0,807,valid,"[(1161, 783)]",[],[1],[0.5333333333333333],horizontal,"(890.0, 262.0)",1.0166666666666666,0.493,1,13693.805,3,0.0,same
0,808,valid,"[(1131, 803)]",[],[1],[0.55],horizontal,"(890.0, 262.0)",0.8333333333333334,0.509,1,13699.787,3,0.0,same
0,809,valid,"[(1102, 807)]",[],[1],[0.85],vertical,"(890.0, 762.0)",1.3166666666666667,nan,0,13705.72,0,0.0,same
0,810,valid,"[(1138, 797)]",[],[1],[0.5166666666666666],vertical,"(890.0, 262.0)",0.43333333333333335,0.475,1,13711.337,1,0.0,same
0,811,valid,"[(1135, 791)]",[],[1],[0.5166666666666666],vertical,"(390.0, 262.0)",1.1166666666666667,0.477,1,13715.972,1,0.0,same
0,812,valid,"[(1160, 778)]",[],[1],[0.5],vertical,"(390.0, 762.0)",1.5,0.464,1,13721.156,1,0.0,same
0,813,invalid_adjacent_other_bar,"[(1136, 792)]",[],[1],[0.6],vertical,"(890.0, 262.0)",1.15,0.558,1,13726.886,2,0.0,other
0,814,valid,"[(1165, 780)]",[],[1],[0.5166666666666666],horizontal,"(390.0, 262.0)",0.65,0.473,1,13732.955,2,0.0,same
0,815,catch,"[(1139, 787)]",[],[1],[],vertical,"(390.0, 762.0)",1.7,nan,1,13737.987,2,0.0,same
0,816,valid,"[(1123, 789)]",[],[1],[0.6166666666666667],vertical,"(390.0, 262.0)",1.5333333333333332,0.575,1,13743.839,3,0.0,same
0,817,valid,"[(1145, 781)]",[],[1],[0.55],vertical,"(890.0, 262.0)",0.65,0.519,1,13750.604,3,0.0,same
0,818,valid,"[(1162, 785)]",[],[1],[0.55],vertical,"(890.0, 762.0)",0.6166666666666667,0.512,1,13756.306,3,0.0,same
0,819,valid,"[(1167, 787)]",[],[1],[0.5333333333333333],vertical,"(390.0, 262.0)",0.9333333333333333,0.492,1,13761.905,3,0.0,same
0,820,valid,"[(1136, 792)]",[],[1],[0.5666666666666667],horizontal,"(390.0, 762.0)",0.5,0.531,1,13767.368,3,0.0,same
0,821,valid,"[(1120, 780)]",[],[1],[0.55],horizontal,"(890.0, 762.0)",1.3333333333333333,0.507,1,13772.754,3,0.0,same
0,822,valid,"[(1137, 799)]",[],[1],[0.85],vertical,"(890.0, 262.0)",1.5,nan,0,13779.488,0,0.0,same
0,823,invalid_adjacent_other_bar,"[(1134, 782)]",[],[1],[0.5666666666666667],horizontal,"(390.0, 262.0)",1.1166666666666667,0.533,1,13785.205,1,0.0,other
0,824,valid,"[(1143, 781)]",[],[1],[0.55],vertical,"(390.0, 262.0)",1.3333333333333333,0.506,1,13790.646,1,0.0,same
0,825,catch,"[(1165, 749), (1115, 800)]",[],"[0, 1]",[],vertical,"(390.0, 262.0)",1.7,nan,1,13796.066,1,0.0,same
0,826,catch,"[(1164, 792)]",[],[1],[],horizontal,"(890.0, 262.0)",1.7,nan,1,13802.831,2,0.0,same
0,827,valid,"[(1163, 795)]",[],[1],[0.55],horizontal,"(390.0, 762.0)",1.55,0.509,1,13808.538,2,0.0,same
0,828,valid,"[(1141, 786)]",[],[1],[0.85],vertical,"(390.0, 762.0)",0.7,nan,0,13814.977,0,0.0,same
0,829,invalid_adjacent_other_bar,"[(1096, 769)]",[],[1],[0.5333333333333333],vertical,"(390.0, 762.0)",1.35,0.495,1,13819.811,1,0.0,other
0,830,catch,"[(1169, 771)]",[],[1],[],horizontal,"(390.0, 262.0)",1.7,nan,1,13825.179,1,0.0,same
0,831,catch,"[(1165, 780)]",[],[1],[],horizontal,"(390.0, 762.0)",1.7,nan,1,13830.431,1,0.0,same
0,832,catch,"[(1140, 781)]",[],[1],[],vertical,"(890.0, 762.0)",1.7,nan,1,13836.256,2,0.0,same
0,833,invalid_adjacent_other_bar,"[(1140, 790)]",[],[1],[0.7166666666666667],horizontal,"(390.0, 762.0)",1.15,0.672,1,13841.921,2,0.0,other
0,834,valid,"[(1141, 788)]",[],[1],[0.85],horizontal,"(890.0, 762.0)",1.1333333333333333,nan,0,13848.038,0,0.0,same
0,835,valid,"[(1140, 790)]",[],[1],[0.48333333333333334],vertical,"(890.0, 262.0)",1.45,0.447,1,13853.436,1,0.0,same
0,836,valid,"[(1160, 791)]",[],[1],[],horizontal,"(390.0, 262.0)",,"('cti', 0.999)",0,13858.606,0,0.0,same
0,837,valid,"[(1081, 790)]",[],[1],[0.5],vertical,"(890.0, 262.0)",1.5333333333333332,0.458,1,13863.139,1,0.0,same
0,838,valid,"[(1163, 786)]",[],[1],[0.5166666666666666],vertical,"(890.0, 762.0)",1.2,0.472,1,13868.67,1,0.0,same
0,839,invalid_adjacent_other_bar,"[(1140, 776)]",[],[1],[0.55],vertical,"(390.0, 762.0)",0.5166666666666666,0.514,1,13873.572,1,0.0,other
0,840,catch,"[(1135, 765)]",[],[1],[],vertical,"(390.0, 762.0)",1.7,nan,1,13878.522,2,0.0,same
0,841,valid,"[(1165, 787)]",[],[1],[0.5],vertical,"(890.0, 262.0)",1.1,0.46,1,13884.196,2,0.0,same
0,842,catch,"[(1121, 799)]",[],[1],[],horizontal,"(890.0, 262.0)",1.7,nan,1,13889.288,2,0.0,same
0,843,valid,"[(1160, 775)]",[],[1],[0.55],vertical,"(890.0, 262.0)",1.0333333333333332,0.505,1,13895.355,3,0.0,same
0,844,invalid_same_bar,"[(1138, 795)]",[],[1],[0.5666666666666667],horizontal,"(890.0, 262.0)",1.2666666666666666,0.527,1,13901.172,3,0.0,same
0,845,valid,"[(1155, 775)]",[],[1],[0.55],vertical,"(390.0, 262.0)",0.9166666666666666,0.511,1,13907.154,3,0.0,same
0,846,catch,"[(1160, 775)]",[],[1],[],horizontal,"(890.0, 762.0)",1.7,nan,1,13912.855,3,0.0,same
0,847,invalid_same_bar,"[(1144, 793)]",[],[1],[0.6333333333333333],vertical,"(390.0, 762.0)",1.3166666666666667,0.592,1,13918.985,3,0.0,same
0,848,valid,"[(1154, 747), (1139, 796)]",[],"[0, 1]",[0.5333333333333333],horizontal,"(890.0, 762.0)",1.4666666666666666,0.492,1,13925.448,3,0.0,same
0,849,valid,"[(1135, 776)]",[],[1],[0.5666666666666667],horizontal,"(390.0, 762.0)",0.75,0.521,1,13933.06,3,0.0,same
0,850,valid,"[(1134, 773)]",[],[1],[0.5666666666666667],horizontal,"(890.0, 762.0)",1.4333333333333333,0.529,1,13938.705,3,0.0,same
0,851,invalid_same_bar,"[(1161, 772)]",[],[1],[0.5666666666666667],horizontal,"(390.0, 762.0)",0.48333333333333334,0.52,1,13945.073,3,0.0,same
0,852,valid,"[(1165, 770)]",[],[1],[0.5333333333333333],vertical,"(390.0, 762.0)",0.43333333333333335,0.494,1,13950.671,3,0.0,same
0,853,valid,"[(1140, 794)]",[],[1],[0.55],vertical,"(890.0, 762.0)",1.1166666666666667,0.512,1,13956.174,3,0.0,same
0,854,valid,"[(1168, 782)]",[],[1],[0.5666666666666667],vertical,"(390.0, 262.0)",0.7333333333333333,0.525,1,13962.249,3,0.0,same
0,855,valid,"[(1169, 781)]",[],[1],[0.5833333333333334],vertical,"(390.0, 762.0)",1.3333333333333333,0.537,1,13967.688,3,0.0,same
0,856,valid,"[(1134, 800)]",[],[1],[0.55],horizontal,"(890.0, 762.0)",1.0666666666666667,0.505,1,13974.238,3,0.0,same
0,857,catch,"[(1166, 779)]",[],[1],[],horizontal,"(390.0, 762.0)",1.7,nan,1,13980.038,3,0.0,same
0,858,catch,"[(1161, 786)]",[],[1],[],horizontal,"(890.0, 762.0)",1.7,nan,1,13986.506,3,0.0,same
0,859,valid,"[(1169, 781)]",[],[1],[0.6666666666666666],horizontal,"(390.0, 262.0)",0.7166666666666667,0.62,1,13992.796,3,0.0,same
0,860,valid,"[(1165, 768)]",[],[1],[0.85],vertical,"(890.0, 762.0)",1.1166666666666667,nan,0,13998.738,0,0.0,same
