block,trial,trial_type,taps_start_loc_during_fix,taps_end_loc_during_fix,taps_on_lever_during_fix,taps_on_lever_s_during_fix,bar_orientation,target_xy,cti,rt,acc,time,pulses,fa_rate_recent100,p_catch
0,1,catch,"[(1088, 876)]",[],[1],[],vertical,"(390.0, 762.0)",1.7,nan,1,0.433,1,0.0,0.25
0,2,target,"[(1124, 830)]",[],[1],[0.85],horizontal,"(390.0, 262.0)",0.35,nan,0,62.337,0,0.0,0.25
0,3,target,"[(1123, 834)]",[],[1],[0.85],horizontal,"(390.0, 262.0)",0.7,nan,0,66.994,0,0.0,0.25
0,4,target,"[(1116, 813)]","[(1082, 840)]",[1],[0.3333333333333333],horizontal,"(890.0, 262.0)",,"('bar', 0.351)",0,76.385,0,0.0,0.25
0,5,target,"[(1097, 836)]",[],[1],[0.3833333333333333],horizontal,"(390.0, 762.0)",0.48333333333333334,0.345,1,79.257,1,0.0,0.25
0,6,target,"[(1111, 841)]",[],[1],[0.65],horizontal,"(890.0, 262.0)",1.2166666666666666,0.612,1,90.797,1,0.0,0.25
0,7,catch,"[(1175, 811)]",[],[1],[],vertical,"(390.0, 262.0)",1.7,nan,1,147.542,1,0.0,0.25
0,8,target,"[(1150, 804)]",[],[1],[0.55],vertical,"(890.0, 762.0)",1.1333333333333333,0.516,1,152.709,2,0.0,0.25
0,9,target,"[(1146, 807)]",[],[1],[0.4166666666666667],vertical,"(390.0, 762.0)",1.35,0.379,1,158.855,2,0.0,0.25
0,10,target,"[(1150, 791)]",[],[1],[0.36666666666666664],vertical,"(890.0, 762.0)",1.0666666666666667,0.327,1,164.617,2,0.0,0.25
0,11,catch,"[(1120, 834)]",[],[1],[],horizontal,"(390.0, 762.0)",,"('cti', 1.609),nan",0,169.976,0,0.09090909090909091,0.25
0,12,catch,"[(1116, 842)]",[],[1],[],horizontal,"(390.0, 262.0)",1.7,nan,1,254.622,1,0.08333333333333333,0.25
0,13,target,"[(1151, 815)]",[],[1],[0.48333333333333334],vertical,"(890.0, 262.0)",0.7666666666666666,0.446,1,259.856,1,0.07692307692307693,0.25
0,14,target,"[(1156, 800)]",[],[1],[0.85],vertical,"(890.0, 262.0)",1.2,nan,0,264.472,0,0.07142857142857142,0.25
0,15,target,"[(1146, 844)]",[],[1],[0.5666666666666667],horizontal,"(890.0, 262.0)",0.8833333333333333,0.527,1,269.872,1,0.06666666666666667,0.25
0,16,catch,"[(1159, 779)]",[],[1],[],vertical,"(390.0, 762.0)",1.7,nan,1,274.653,1,0.0625,0.25
0,17,catch,"[(1157, 791)]",[],[1],[],horizontal,"(890.0, 762.0)",1.7,nan,1,279.939,1,0.058823529411764705,0.25
0,18,catch,"[(1155, 808)]",[],[1],[],horizontal,"(390.0, 262.0)",,"('cti', 1.239),nan",0,285.256,0,0.1111111111111111,0.25
0,19,target,"[(1149, 808)]",[],[1],[0.85],horizontal,"(390.0, 262.0)",0.65,nan,0,289.971,0,0.10526315789473684,0.25
0,20,target,"[(1112, 806)]",[],[1],[0.7166666666666667],horizontal,"(890.0, 762.0)",0.6333333333333333,0.676,1,294.488,1,0.1,0.25
0,21,target,"[(1146, 802)]",[],[1],[0.5333333333333333],vertical,"(390.0, 262.0)",0.35,0.497,1,299.556,1,0.09523809523809523,0.25
0,22,catch,"[(1155, 804)]",[],[1],[],horizontal,"(890.0, 762.0)",1.7,nan,1,303.804,1,0.09090909090909091,0.25
0,23,target,"[(1117, 809)]",[],[1],[0.4666666666666667],vertical,"(390.0, 762.0)",1.4333333333333333,0.431,1,309.295,2,0.08695652173913043,0.25
0,24,target,"[(1150, 799)]",[],[1],[0.85],vertical,"(890.0, 262.0)",0.48333333333333334,nan,0,315.523,0,0.08333333333333333,0.25
0,25,target,"[(1165, 815)]","[(1146, 839)]",[1],[0.5166666666666666],horizontal,"(390.0, 262.0)",,"('bar', 0.535)",0,319.912,0,0.08,0.25
0,26,target,"[(1141, 794)]",[],[1],[0.43333333333333335],vertical,"(890.0, 762.0)",1.4666666666666666,0.397,1,322.677,1,0.07692307692307693,0.25
0,27,catch,"[(1161, 781)]",[],[1],[],horizontal,"(890.0, 262.0)",1.7,nan,1,327.864,1,0.07407407407407407,0.25
0,28,target,"[(1161, 782)]",[],[1],[0.5833333333333334],horizontal,"(890.0, 262.0)",1.05,0.543,1,333.103,1,0.07142857142857142,0.25
0,29,target,"[(1161, 788)]",[],[1],[0.5666666666666667],vertical,"(390.0, 262.0)",1.3666666666666667,0.529,1,338.022,2,0.06896551724137931,0.25
0,30,catch,"[(1176, 790)]",[],[1],[],vertical,"(890.0, 262.0)",,"('cti', 1.675),nan",0,343.771,0,0.1,0.25
0,31,target,"[(1131, 813)]",[],[1],[0.65],vertical,"(390.0, 262.0)",0.48333333333333334,0.606,1,348.664,1,0.0967741935483871,0.25
0,32,target,"[(1142, 806)]",[],[1],[0.65],horizontal,"(390.0, 762.0)",0.8166666666666667,0.609,1,352.953,1,0.09375,0.25
0,33,target,"[(1157, 805)]",[],[1],[0.5166666666666666],vertical,"(890.0, 762.0)",0.55,0.474,1,358.172,1,0.09090909090909091,0.25
0,34,target,"[(1161, 788)]",[],[1],[0.6],vertical,"(390.0, 262.0)",1.3833333333333333,0.562,1,363.132,2,0.08823529411764706,0.25
0,35,target,"[(1158, 790)]",[],[1],[0.6166666666666667],vertical,"(890.0, 262.0)",0.5,0.594,1,369.014,2,0.08571428571428572,0.25
0,36,catch,"[(1161, 798)]",[],[1],[],vertical,"(890.0, 762.0)",1.7,nan,1,374.117,2,0.08333333333333333,0.25
0,37,catch,"[(1154, 792)]",[],[1],[],vertical,"(390.0, 762.0)",1.7,nan,1,379.667,2,0.08108108108108109,0.25
0,38,target,"[(1159, 787)]",[],[1],[0.85],vertical,"(890.0, 262.0)",0.5833333333333334,nan,0,385.299,0,0.07894736842105263,0.25
0,39,catch,"[(1150, 835)]",[],[1],[],horizontal,"(390.0, 762.0)",1.7,nan,1,389.868,1,0.07692307692307693,0.25
0,40,target,"[(1156, 770)]",[],[1],[],horizontal,"(390.0, 262.0)",,"('fix', 0.256)",0,395.937,0,0.075,0.25
0,41,target,"[(1114, 833)]",[],[1],[0.7666666666666666],horizontal,"(390.0, 262.0)",0.7333333333333333,0.721,1,397.791,1,0.07317073170731707,0.25
0,42,catch,"[(1134, 787)]",[],[1],[],horizontal,"(390.0, 262.0)",1.7,nan,1,402.89,1,0.07142857142857142,0.25
0,43,target,"[(1154, 789)]",[],[1],[0.55],vertical,"(890.0, 762.0)",1.35,0.507,1,407.939,1,0.06976744186046512,0.25
0,44,target,"[(1159, 772)]",[],[1],[0.5833333333333334],horizontal,"(890.0, 762.0)",0.9166666666666666,0.546,1,413.288,2,0.06818181818181818,0.25
0,45,target,"[(1142, 802)]",[],[1],[0.55],horizontal,"(890.0, 262.0)",0.7666666666666666,0.509,1,418.973,2,0.06666666666666667,0.25
0,46,target,"[(1162, 782)]",[],[1],[0.6666666666666666],vertical,"(890.0, 262.0)",0.6666666666666666,0.627,1,424.489,2,0.06521739130434782,0.25
0,47,target,"[(1157, 802)]",[],[1],[0.85],horizontal,"(390.0, 262.0)",1.0333333333333332,nan,0,429.797,0,0.06382978723404255,0.25
0,48,target,"[(1146, 818)]",[],[1],[0.85],vertical,"(390.0, 262.0)",0.5,nan,0,434.688,0,0.0625,0.25
0,49,target,"[(1136, 807)]",[],[1],[0.85],horizontal,"(890.0, 762.0)",0.6333333333333333,nan,0,439.339,0,0.061224489795918366,0.25
0,50,target,"[(1138, 789)]",[],[1],[0.1],horizontal,"(890.0, 762.0)",1.5,0.067,0,443.656,0,0.06,0.25
0,51,target,"[(1136, 814)]",[],[1],[0.55],horizontal,"(890.0, 262.0)",0.9,0.509,1,448.79,1,0.06,0.25
0,52,catch,"[(1144, 798)]",[],[1],[],vertical,"(390.0, 262.0)",1.7,nan,1,453.817,1,0.06,0.25
0,53,target,"[(1182, 781)]",[],[1],[0.55],horizontal,"(890.0, 262.0)",0.9,0.512,1,459.267,1,0.06,0.25
0,54,target,"[(1171, 784)]",[],[1],[0.5],horizontal,"(390.0, 262.0)",0.8,0.467,1,464.218,2,0.06,0.25
0,55,catch,"[(1151, 779)]",[],[1],[],vertical,"(390.0, 762.0)",1.7,nan,1,469.673,2,0.06,0.25
0,56,target,"[(1157, 807)]",[],[1],[0.5166666666666666],vertical,"(390.0, 762.0)",0.9,0.48,1,475.332,2,0.06,0.25
0,57,target,"[(1166, 802)]",[],[1],[0.5666666666666667],vertical,"(390.0, 262.0)",0.7666666666666666,0.523,1,480.776,2,0.06,0.25
0,58,target,"[(1157, 772)]",[],[1],[0.85],horizontal,"(890.0, 762.0)",0.4166666666666667,nan,0,486.092,0,0.06,0.25
0,59,target,"[(1111, 807)]",[],[1],[0.5833333333333334],horizontal,"(890.0, 762.0)",0.6,0.549,1,490.628,1,0.06,0.25
0,60,target,"[(1136, 780)]",[],[1],[0.85],horizontal,"(390.0, 762.0)",1.0166666666666666,nan,0,495.346,0,0.06,0.25
0,61,catch,"[(1132, 816)]",[],[1],[],horizontal,"(390.0, 262.0)",1.7,nan,1,500.162,1,0.04,0.25
0,62,target,"[(1160, 795)]",[],[1],[0.6666666666666666],vertical,"(890.0, 262.0)",1.05,0.635,1,505.743,1,0.04,0.25
0,63,target,"[(1166, 808)]",[],[1],[0.25],vertical,"(890.0, 262.0)",1.5166666666666666,0.217,1,510.972,1,0.04,0.25
0,64,target,"[(1156, 807)]",[],[1],[0.6166666666666667],horizontal,"(890.0, 262.0)",1.1333333333333333,0.585,1,516.758,2,0.04,0.25
0,65,target,"[(1082, 843)]",[],[1],[0.85],horizontal,"(390.0, 262.0)",1.1166666666666667,nan,0,522.556,0,0.04,0.25
0,66,target,"[(1130, 829)]",[],[1],[0.7166666666666667],vertical,"(390.0, 762.0)",1.25,0.667,1,766.527,1,0.04,0.25
0,67,target,"[(1155, 801)]",[],[1],[0.85],vertical,"(890.0, 762.0)",1.35,nan,0,772.622,0,0.04,0.25
0,68,catch,"[(1133, 848)]",[],[1],[],horizontal,"(390.0, 262.0)",1.7,nan,1,777.573,1,0.02,0.25
0,69,catch,"[(1131, 846)]",[],[1],[],horizontal,"(390.0, 262.0)",1.7,nan,1,784.317,1,0.02,0.25
0,70,target,"[(1133, 811)]",[],[1],[0.5333333333333333],vertical,"(390.0, 262.0)",0.9166666666666666,0.489,1,789.702,1,0.02,0.25
0,71,target,"[(1136, 792)]",[],[1],[0.85],horizontal,"(890.0, 762.0)",1.25,nan,0,794.59,0,0.02,0.25
0,72,target,"[(1131, 816)]",[],[1],[0.85],vertical,"(390.0, 262.0)",0.5166666666666666,nan,0,799.634,0,0.02,0.25
0,73,target,"[(1138, 826)]",[],[1],[0.85],horizontal,"(390.0, 262.0)",0.8,nan,0,804.223,0,0.02,0.25
0,74,target,"[(1125, 814)]",[],[1],[0.6333333333333333],vertical,"(890.0, 762.0)",0.6333333333333333,0.594,1,808.89,1,0.02,0.25
0,75,target,"[(1130, 823)]",[],[1],[0.48333333333333334],vertical,"(890.0, 762.0)",1.4833333333333334,0.446,1,814.074,1,0.02,0.25
0,76,target,"[(1116, 768)]",[],[1],[0.5333333333333333],vertical,"(890.0, 262.0)",0.5166666666666666,0.495,1,819.779,1,0.02,0.25
0,77,target,"[(1159, 792)]",[],[1],[0.65],horizontal,"(890.0, 762.0)",1.3666666666666667,0.611,1,824.589,2,0.02,0.25
0,78,catch,"[(1163, 798)]",[],[1],[],vertical,"(390.0, 762.0)",1.7,nan,1,830.291,2,0.02,0.25
0,79,target,"[(1160, 786)]",[],[1],[0.5666666666666667],vertical,"(890.0, 262.0)",1.0833333333333333,0.529,1,835.675,2,0.02,0.25
0,80,target,"[(1160, 786)]",[],[1],[0.6166666666666667],vertical,"(390.0, 262.0)",0.65,0.576,1,841.414,2,0.0,0.25
0,81,catch,"[(1142, 790)]",[],[1],[],horizontal,"(890.0, 762.0)",1.7,nan,1,847.091,3,0.0,0.25
0,82,catch,"[(1131, 841)]",[],[1],[],horizontal,"(390.0, 262.0)",,"('cti', 1.628),nan",0,853.444,0,0.02,0.25
0,83,target,"[(1136, 802)]",[],[1],[0.5666666666666667],vertical,"(890.0, 262.0)",1.3,0.529,1,858.395,1,0.02,0.25
0,84,target,"[(1159, 787)]",[],[1],[0.85],vertical,"(890.0, 762.0)",0.5333333333333333,nan,0,864.084,0,0.02,0.25
0,85,target,"[(1127, 810)]",[],[1],[0.5166666666666666],vertical,"(890.0, 762.0)",0.4166666666666667,0.479,1,868.863,1,0.02,0.25
0,86,target,"[(1159, 788)]",[],[1],[0.85],horizontal,"(890.0, 762.0)",0.8666666666666667,nan,0,873.088,0,0.02,0.25
0,87,target,"[(1127, 798)]",[],[1],[0.5666666666666667],horizontal,"(390.0, 262.0)",1.1333333333333333,0.526,1,879.073,1,0.02,0.25
0,88,target,"[(1148, 796)]",[],[1],[0.6166666666666667],vertical,"(390.0, 262.0)",1.0166666666666666,0.574,1,886.557,1,0.02,0.25
0,89,target,"[(1160, 793)]",[],[1],[],horizontal,"(890.0, 262.0)",,"('fix', 0.167)",0,892.407,0,0.02,0.25
0,90,target,"[(1138, 829)]",[],[1],[0.65],horizontal,"(390.0, 262.0)",1.0666666666666667,0.612,1,893.973,1,0.02,0.25
0,91,target,"[(1155, 800)]",[],[1],[0.55],horizontal,"(890.0, 762.0)",0.95,0.517,1,899.707,1,0.02,0.25
0,92,target,"[(1165, 779)]",[],[1],[0.4666666666666667],horizontal,"(890.0, 762.0)",1.4666666666666666,0.424,1,904.674,1,0.02,0.25
0,93,target,"[(1160, 794)]",[],[1],[0.36666666666666664],vertical,"(890.0, 762.0)",1.3333333333333333,0.332,1,910.451,2,0.02,0.25
0,94,catch,"[(1162, 801)]",[],[1],[],vertical,"(390.0, 262.0)",1.7,nan,1,916.507,2,0.02,0.25
0,95,catch,"[(1165, 798)]",[],[1],[],vertical,"(890.0, 762.0)",1.7,nan,1,922.199,2,0.02,0.25
0,96,catch,"[(1165, 790)]",[],[1],[],horizontal,"(390.0, 762.0)",1.7,nan,1,927.573,2,0.02,0.25
0,97,target,"[(1179, 812)]",[],[1],[0.85],vertical,"(390.0, 762.0)",0.48333333333333334,nan,0,933.572,0,0.02,0.25
0,98,catch,"[(1151, 808)]",[],[1],[],horizontal,"(890.0, 262.0)",1.7,nan,1,938.191,1,0.02,0.25
0,99,target,"[(1178, 799)]",[],[1],[0.5833333333333334],vertical,"(890.0, 262.0)",0.6,0.55,1,943.975,1,0.02,0.25
0,100,target,"[(1154, 813)]",[],[1],[0.5166666666666666],vertical,"(890.0, 762.0)",1.2166666666666666,0.482,1,948.983,1,0.02,0.25
0,101,target,"[(1156, 791)]",[],[1],[0.6166666666666667],vertical,"(890.0, 262.0)",0.65,0.585,1,960.869,2,0.02,0.25
0,102,target,"[(1157, 807)]",[],[1],[0.5166666666666666],horizontal,"(890.0, 262.0)",0.7833333333333333,0.483,1,966.075,2,0.02,0.25
0,103,catch,"[(1160, 774)]",[],[1],[],vertical,"(890.0, 262.0)",1.7,nan,1,971.074,2,0.02,0.25
0,104,catch,"[(1177, 799)]",[],[1],[],vertical,"(390.0, 762.0)",1.7,nan,1,976.759,2,0.02,0.25
0,105,target,"[(1160, 798)]",[],[1],[0.55],vertical,"(890.0, 762.0)",0.35,0.511,1,982.715,3,0.02,0.25
0,106,target,"[(1160, 803)]",[],[1],[0.48333333333333334],horizontal,"(890.0, 262.0)",0.6833333333333333,0.452,1,987.996,3,0.02,0.25
0,107,target,"[(1102, 839)]",[],[1],[0.5333333333333333],horizontal,"(390.0, 262.0)",0.5333333333333333,0.495,1,993.574,3,0.02,0.25
0,108,target,"[(1142, 796)]",[],[1],[0.55],horizontal,"(890.0, 762.0)",1.3666666666666667,0.511,1,999.774,3,0.02,0.25
0,109,catch,"[(1157, 806)]",[],[1],[],horizontal,"(890.0, 262.0)",,"('cti', 1.59),nan",0,1006.058,0,0.04,0.25
0,110,target,"[(1129, 817)]",[],[1],[0.55],vertical,"(390.0, 262.0)",0.5333333333333333,0.515,1,1011.192,1,0.04,0.25
0,111,target,"[(1152, 801)]",[],[1],[0.55],vertical,"(390.0, 262.0)",0.9,0.509,1,1015.614,1,0.04,0.25
0,112,catch,"[(1170, 804)]",[],[1],[],vertical,"(890.0, 762.0)",1.7,nan,1,1020.73,1,0.04,0.25
0,113,catch,"[(1144, 793)]",[],[1],[],vertical,"(890.0, 262.0)",1.7,nan,1,1026.356,2,0.04,0.25
0,114,target,"[(1153, 806)]",[],[1],[0.5166666666666666],horizontal,"(390.0, 262.0)",1.3166666666666667,0.476,1,1032.257,2,0.04,0.25
0,115,target,"[(1175, 809)]",[],[1],"[0.85, 0.85]",vertical,"(890.0, 262.0)",1.0666666666666667,"0.81,nan",0,1038.207,0,0.04,0.25
0,116,target,"[(1145, 807)]",[],[1],[0.7],horizontal,"(390.0, 762.0)",0.65,0.66,1,1043.057,1,0.04,0.25
0,117,target,"[(1162, 801)]",[],[1],[0.6],vertical,"(890.0, 762.0)",1.2166666666666666,0.561,1,1047.635,1,0.04,0.25
0,118,catch,"[(1131, 792)]",[],[1],[],vertical,"(390.0, 262.0)",1.7,nan,1,1052.849,1,0.04,0.25
0,119,target,"[(1171, 798)]",[],[1],[0.5166666666666666],vertical,"(390.0, 762.0)",1.4,0.475,1,1057.901,2,0.04,0.25
0,120,catch,"[(1157, 796)]",[],[1],[],vertical,"(890.0, 262.0)",1.7,nan,1,1063.665,2,0.04,0.25
0,121,target,"[(1156, 802)]",[],[1],[0.6166666666666667],vertical,"(890.0, 762.0)",1.2833333333333332,0.582,1,1069.131,2,0.04,0.25
0,122,target,"[(1160, 802)]",[],[1],[0.6833333333333333],vertical,"(890.0, 762.0)",1.25,0.643,1,1075.007,2,0.04,0.25
0,123,target,"[(1156, 817)]",[],[1],[0.65],horizontal,"(390.0, 762.0)",0.65,0.611,1,1080.652,3,0.04,0.25
0,124,target,"[(1159, 802)]",[],[1],[0.6],horizontal,"(890.0, 262.0)",1.1666666666666667,0.56,1,1086.24,3,0.04,0.25
0,125,target,"[(1162, 800)]",[],[1],[0.5666666666666667],vertical,"(390.0, 762.0)",1.2333333333333334,0.525,1,1092.618,3,0.04,0.25
0,126,target,"[(1156, 797)]",[],[1],[0.5],vertical,"(890.0, 762.0)",0.5,0.457,1,1098.936,3,0.04,0.25
0,127,target,"[(1157, 798)]",[],[1],[0.5166666666666666],vertical,"(890.0, 262.0)",0.95,0.484,1,1103.873,3,0.04,0.25
0,128,catch,"[(1159, 812)]",[],[1],[],horizontal,"(390.0, 262.0)",1.7,nan,1,1109.494,3,0.04,0.25
0,129,target,"[(1157, 803)]",[],[1],[0.85],vertical,"(390.0, 262.0)",0.4166666666666667,nan,0,1115.653,0,0.04,0.25
0,130,target,"[(1139, 816)]",[],[1],[0.7666666666666666],horizontal,"(890.0, 762.0)",0.5833333333333334,0.72,1,1119.791,1,0.04,0.25
0,131,target,"[(1156, 802)]",[],[1],[0.6],vertical,"(890.0, 262.0)",0.9333333333333333,0.559,1,1124.653,1,0.04,0.25
0,132,target,"[(1086, 791)]",[],[1],[0.6166666666666667],vertical,"(890.0, 262.0)",0.7833333333333333,0.581,1,1129.539,1,0.02,0.25
0,133,target,"[(1173, 811)]",[],[1],[0.6666666666666666],vertical,"(390.0, 262.0)",0.7833333333333333,0.632,1,1134.45,2,0.02,0.25
0,134,catch,"[(1160, 807)]",[],[1],[],vertical,"(390.0, 762.0)",1.7,nan,1,1140.03,2,0.02,0.25
0,135,target,"[(1146, 812)]",[],[1],[0.6],horizontal,"(890.0, 762.0)",1.5,0.56,1,1145.741,2,0.02,0.25
0,136,catch,"[(1170, 795)]",[],[1],[],horizontal,"(890.0, 762.0)",1.7,nan,1,1151.968,2,0.02,0.25
0,137,target,"[(1115, 829)]",[],[1],[0.65],horizontal,"(390.0, 762.0)",1.0666666666666667,0.606,1,1157.77,3,0.02,0.25
0,138,target,"[(1161, 808)]",[],[1],[0.5333333333333333],vertical,"(390.0, 262.0)",0.7,0.494,1,1165.658,3,0.02,0.25
0,139,target,"[(1151, 798)]",[],[1],[0.5],vertical,"(890.0, 262.0)",0.7166666666666667,0.46,1,1171.046,3,0.02,0.25
0,140,target,"[(1162, 787)]",[],[1],[0.55],horizontal,"(390.0, 762.0)",1.25,0.507,1,1176.73,3,0.02,0.25
0,141,catch,"[(1151, 794)]",[],[1],[],vertical,"(890.0, 262.0)",1.7,nan,1,1182.485,3,0.02,0.25
0,142,catch,"[(1156, 788)]",[],[1],[],horizontal,"(390.0, 262.0)",1.7,nan,1,1188.709,3,0.02,0.25
0,143,target,"[(1151, 778)]",[],[1],[0.55],horizontal,"(390.0, 762.0)",1.3666666666666667,0.508,1,1194.725,3,0.02,0.25
0,144,target,"[(1161, 807)]",[],[1],[0.8166666666666667],vertical,"(890.0, 762.0)",0.8833333333333333,0.775,1,1200.832,3,0.02,0.25
0,145,target,"[(1165, 800)]",[],[1],[0.5],vertical,"(890.0, 262.0)",0.35,0.46,1,1206.969,3,0.02,0.25
0,146,target,"[(1146, 808)]",[],[1],[0.3],vertical,"(390.0, 262.0)",1.5166666666666666,0.263,1,1212.268,3,0.02,0.25
0,147,target,"[(1155, 802)]",[],[1],[0.5666666666666667],vertical,"(390.0, 262.0)",1.0833333333333333,0.533,1,1218.593,3,0.02,0.25
0,148,target,"[(1162, 812)]",[],[1],[0.5166666666666666],vertical,"(390.0, 262.0)",1.4833333333333334,0.479,1,1224.226,3,0.02,0.25
0,149,target,"[(1162, 807)]",[],[1],[0.5166666666666666],vertical,"(390.0, 762.0)",1.3666666666666667,0.486,1,1230.267,3,0.02,0.25
0,150,target,"[(1162, 803)]",[],[1],[0.6333333333333333],horizontal,"(890.0, 262.0)",1.1666666666666667,0.599,1,1236.514,3,0.02,0.25
0,151,target,"[(1174, 802)]",[],[1],[0.5666666666666667],vertical,"(390.0, 762.0)",1.0833333333333333,0.529,1,1242.559,3,0.02,0.25
0,152,catch,"[(1165, 809)]",[],[1],[],vertical,"(890.0, 262.0)",1.7,nan,1,1248.779,3,0.02,0.25
0,153,catch,"[(1160, 817)]",[],[1],[],vertical,"(890.0, 762.0)",1.7,nan,1,1254.683,3,0.02,0.25
0,154,target,"[(1156, 809)]",[],[1],[0.6166666666666667],horizontal,"(390.0, 262.0)",0.8833333333333333,0.579,1,1260.992,3,0.02,0.25
0,155,catch,"[(1161, 812)]",[],[1],[],horizontal,"(890.0, 262.0)",1.7,nan,1,1266.747,3,0.02,0.25
0,156,catch,"[(1151, 795)]",[],[1],[],vertical,"(890.0, 262.0)",1.7,nan,1,1272.959,3,0.02,0.25
0,157,target,"[(1167, 807)]",[],[1],[0.5666666666666667],horizontal,"(390.0, 262.0)",1.3833333333333333,0.523,1,1278.582,3,0.02,0.25
0,158,catch,"[(1167, 794)]",[],[1],[],vertical,"(890.0, 262.0)",1.7,nan,1,1284.553,3,0.02,0.25
0,159,target,"[(1170, 813)]",[],[1],[0.6166666666666667],horizontal,"(890.0, 762.0)",1.3833333333333333,0.577,1,1290.842,3,0.0,0.25
0,160,target,"[(1165, 810)]",[],[1],[0.85],vertical,"(390.0, 762.0)",0.65,nan,0,1297.11,0,0.0,0.25
0,161,target,"[(1131, 796)]",[],[1],[0.6],horizontal,"(390.0, 262.0)",1.3833333333333333,0.556,1,1301.66,1,0.0,0.25
0,162,target,"[(1167, 793)]",[],[1],[0.5666666666666667],horizontal,"(890.0, 762.0)",1.2166666666666666,0.535,1,1307.038,1,0.0,0.25
0,163,target,"[(1164, 822)]",[],[1],[0.85],vertical,"(390.0, 262.0)",0.6166666666666667,nan,0,1312.375,0,0.0,0.25
0,164,target,"[(1132, 815)]",[],[1],[0.6],horizontal,"(890.0, 262.0)",1.35,0.565,1,1316.993,1,0.0,0.25
0,165,target,"[(1155, 809)]",[],[1],[0.6166666666666667],vertical,"(890.0, 262.0)",0.8333333333333334,0.576,1,1322.785,1,0.0,0.25
0,166,catch,"[(1160, 814)]",[],[1],[],horizontal,"(890.0, 762.0)",1.7,nan,1,1327.528,1,0.0,0.25
0,167,target,"[(1159, 812)]",[],[1],[0.6],horizontal,"(890.0, 762.0)",1.2333333333333334,0.557,1,1332.818,2,0.0,0.25
0,168,catch,"[(1163, 820)]",[],[1],[],vertical,"(390.0, 262.0)",1.7,nan,1,1339.064,2,0.0,0.25
0,169,target,"[(1160, 803)]",[],[1],[0.5666666666666667],vertical,"(890.0, 762.0)",0.8166666666666667,0.526,1,1345.11,2,0.0,0.25
0,170,catch,"[(1165, 807)]",[],[1],[],horizontal,"(390.0, 762.0)",1.7,nan,1,1350.809,2,0.0,0.25
0,171,target,"[(1160, 813)]",[],[1],[0.5],vertical,"(390.0, 762.0)",1.4,0.463,1,1356.55,3,0.0,0.25
0,172,target,"[(1163, 803)]",[],[1],[0.5333333333333333],horizontal,"(390.0, 762.0)",1.1666666666666667,0.488,1,1362.905,3,0.0,0.25
0,173,target,"[(1161, 787)]",[],[1],[0.35],vertical,"(890.0, 762.0)",1.4166666666666667,0.317,1,1369.265,3,0.0,0.25
0,174,target,"[(1151, 797)]",[],[1],[0.5333333333333333],vertical,"(890.0, 262.0)",0.5166666666666666,0.492,1,1375.018,3,0.0,0.25
0,175,target,"[(1137, 794)]",[],[1],[0.31666666666666665],horizontal,"(890.0, 762.0)",1.45,0.282,1,1379.913,3,0.0,0.25
0,176,target,"[(1151, 806)]",[],[1],[0.45],horizontal,"(390.0, 262.0)",1.45,0.415,1,1386.077,3,0.0,0.25
0,177,target,"[(1161, 804)]",[],[1],[0.5666666666666667],vertical,"(390.0, 762.0)",1.1,0.529,1,1392.092,3,0.0,0.25
0,178,catch,"[(1146, 796)]",[],[1],[],horizontal,"(890.0, 762.0)",1.7,nan,1,1397.889,3,0.0,0.25
0,179,target,"[(1156, 796)]",[],[1],[0.45],vertical,"(890.0, 262.0)",1.4833333333333334,0.411,1,1403.866,3,0.0,0.25
0,180,target,"[(1165, 805)]",[],[1],[0.5833333333333334],vertical,"(890.0, 262.0)",1.3333333333333333,0.556,1,1409.893,3,0.0,0.25
0,181,target,"[(1165, 797)]",[],[1],[0.6166666666666667],vertical,"(890.0, 762.0)",1.3666666666666667,0.575,1,1415.892,3,0.0,0.25
0,182,target,"[(1180, 794)]",[],[1],[0.65],horizontal,"(390.0, 762.0)",0.45,0.61,1,1421.874,3,0.0,0.25
0,183,target,"[(1161, 808)]",[],[1],[0.55],vertical,"(390.0, 762.0)",1.4666666666666666,0.509,1,1427.259,3,0.0,0.25
0,184,catch,"[(1169, 814)]",[],[1],[],vertical,"(890.0, 762.0)",1.7,nan,1,1433.607,3,0.0,0.25
0,185,target,"[(1164, 800)]",[],[1],[0.6],horizontal,"(890.0, 762.0)",0.6166666666666667,0.561,1,1439.741,3,0.0,0.25
0,186,target,"[(1174, 807)]",[],[1],[0.48333333333333334],horizontal,"(890.0, 262.0)",0.75,0.445,1,1444.826,3,0.0,0.25
0,187,target,"[(1163, 781)]",[],[1],[0.5166666666666666],vertical,"(890.0, 262.0)",0.8166666666666667,0.475,1,1450.158,3,0.0,0.25
0,188,target,"[(1156, 807)]",[],[1],[0.48333333333333334],horizontal,"(890.0, 262.0)",0.35,0.446,1,1455.58,3,0.0,0.25
0,189,catch,"[(1151, 790)]",[],[1],[],vertical,"(890.0, 762.0)",,"('cti', 1.671),nan",0,1460.761,0,0.02,0.25
0,190,catch,"[(1139, 816)]",[],[1],[],horizontal,"(890.0, 762.0)",1.7,nan,1,1465.777,1,0.02,0.25
0,191,target,"[(1160, 815)]",[],[1],[0.5833333333333334],vertical,"(890.0, 762.0)",0.8,0.551,1,1471.232,1,0.02,0.25
0,192,catch,"[(1156, 795)]",[],[1],[],horizontal,"(890.0, 762.0)",1.7,nan,1,1475.86,1,0.02,0.25
0,193,target,"[(1164, 786)]",[],[1],[0.6833333333333333],vertical,"(390.0, 762.0)",1.4666666666666666,0.637,1,1481.41,2,0.02,0.25
0,194,target,"[(1144, 820)]",[],[1],[0.5666666666666667],horizontal,"(390.0, 262.0)",0.95,0.525,1,1487.327,2,0.02,0.25
0,195,target,"[(1160, 794)]",[],[1],[0.5333333333333333],horizontal,"(390.0, 762.0)",0.9,0.496,1,1493.444,2,0.02,0.25
0,196,target,"[(1171, 799)]",[],[1],[0.55],horizontal,"(390.0, 262.0)",0.45,0.515,1,1498.956,2,0.02,0.25
0,197,target,"[(1162, 826)]",[],[1],[0.7],horizontal,"(890.0, 262.0)",1.05,0.66,1,1503.751,3,0.02,0.25
0,198,target,"[(1171, 811)]",[],[1],[0.55],horizontal,"(390.0, 762.0)",1.0666666666666667,0.508,1,1509.959,3,0.02,0.25
0,199,catch,"[(1139, 798)]",[],[1],[],vertical,"(390.0, 262.0)",1.7,nan,1,1516.066,3,0.02,0.25
0,200,target,"[(1156, 789)]",[],[1],[0.5333333333333333],horizontal,"(390.0, 762.0)",0.9,0.494,1,1522.243,3,0.02,0.25
0,201,catch,"[(1158, 803)]",[],[1],[],vertical,"(890.0, 262.0)",1.7,nan,1,1528.192,3,0.02,0.25
0,202,target,"[(1166, 812)]",[],[1],[0.5333333333333333],vertical,"(390.0, 262.0)",0.36666666666666664,0.49,1,1534.349,3,0.02,0.25
0,203,target,"[(1164, 780)]",[],[1],[0.85],vertical,"(390.0, 762.0)",0.6666666666666666,nan,0,1539.378,0,0.02,0.25
0,204,catch,"[(1135, 807)]",[],[1],[],vertical,"(890.0, 262.0)",1.7,nan,1,1543.543,1,0.02,0.25
0,205,target,"[(1165, 788)]",[],[1],[0.85],horizontal,"(890.0, 762.0)",1.0,nan,0,1548.734,0,0.02,0.25
0,206,target,"[(1148, 802)]",[],[1],[0.05],horizontal,"(390.0, 262.0)",1.4666666666666666,0.02,0,1553.2,0,0.02,0.25
0,207,target,"[(1136, 835)]",[],[1],[0.55],vertical,"(390.0, 262.0)",0.6166666666666667,0.518,1,1558.226,1,0.02,0.25
0,208,target,"[(1165, 776)]",[],[1],[0.55],vertical,"(390.0, 262.0)",0.8833333333333333,0.512,1,1563.61,1,0.02,0.25
0,209,target,"[(1160, 817)]",[],[1],[0.6166666666666667],horizontal,"(390.0, 262.0)",1.0666666666666667,0.574,1,1568.661,1,0.02,0.25
0,210,catch,"[(1160, 793)]",[],[1],[],horizontal,"(890.0, 262.0)",,"('cti', 1.544),nan",0,1573.593,0,0.04,0.25
0,211,target,"[(1154, 809)]",[],[1],[0.7],horizontal,"(390.0, 762.0)",1.25,0.663,1,1578.661,1,0.04,0.25
0,212,target,"[(1169, 812)]",[],[1],[0.5333333333333333],vertical,"(890.0, 262.0)",0.8666666666666667,0.492,1,1583.684,1,0.04,0.25
0,213,catch,"[(1172, 812)]",[],[1],[],horizontal,"(390.0, 762.0)",1.7,nan,1,1588.408,1,0.04,0.25
0,214,catch,"[(1159, 804)]",[],[1],[],horizontal,"(390.0, 762.0)",1.7,nan,1,1593.858,2,0.04,0.25
0,215,catch,"[(1160, 808)]",[],[1],[],horizontal,"(390.0, 762.0)",1.7,nan,1,1600.21,2,0.04,0.25
0,216,target,"[(1186, 817)]",[],[1],[0.5],vertical,"(890.0, 262.0)",0.8166666666666667,0.461,1,1606.076,2,0.04,0.25
0,217,target,"[(1160, 816)]",[],[1],[0.5333333333333333],vertical,"(890.0, 762.0)",1.2166666666666666,0.49,1,1611.742,2,0.04,0.25
0,218,target,"[(1160, 808)]",[],[1],[0.6333333333333333],horizontal,"(390.0, 762.0)",0.7,0.589,1,1617.178,3,0.04,0.25
0,219,target,"[(1160, 798)]",[],[1],[0.5666666666666667],vertical,"(890.0, 762.0)",1.25,0.524,1,1622.71,3,0.04,0.25
0,220,catch,"[(1160, 812)]",[],[1],[],vertical,"(890.0, 262.0)",1.7,nan,1,1629.09,3,0.04,0.25
0,221,target,"[(1161, 800)]",[],[1],[0.5333333333333333],horizontal,"(890.0, 262.0)",1.1,0.492,1,1634.826,3,0.04,0.25
0,222,target,"[(1155, 777)]",[],[1],[0.5833333333333334],horizontal,"(390.0, 262.0)",0.7166666666666667,0.538,1,1640.576,3,0.04,0.25
0,223,catch,"[(1155, 793)]",[],[1],[],horizontal,"(890.0, 262.0)",1.7,nan,1,1646.527,3,0.04,0.25
0,224,target,"[(1139, 802)]",[],[1],[0.65],horizontal,"(390.0, 762.0)",0.8833333333333333,0.607,1,1652.778,3,0.04,0.25
0,225,target,"[(1165, 782)]",[],[1],[0.6333333333333333],horizontal,"(890.0, 762.0)",1.4666666666666666,0.596,1,1658.41,3,0.04,0.25
0,226,target,"[(1160, 800)]",[],[1],[0.5],horizontal,"(890.0, 262.0)",1.4666666666666666,0.46,1,1664.992,3,0.04,0.25
0,227,catch,"[(1146, 797)]",[],[1],[],vertical,"(390.0, 262.0)",1.7,nan,1,1670.993,3,0.04,0.25
0,228,target,"[(1139, 811)]",[],[1],[0.5333333333333333],vertical,"(890.0, 762.0)",0.8333333333333334,0.488,1,1677.109,3,0.04,0.25
0,229,target,"[(1160, 808)]",[],[1],[0.85],vertical,"(390.0, 762.0)",0.43333333333333335,nan,0,1682.785,0,0.04,0.25
0,230,target,"[(1160, 803)]",[],[1],[0.55],vertical,"(890.0, 762.0)",1.1,0.506,1,1687.278,1,0.04,0.25
0,231,target,"[(1165, 820)]",[],[1],[0.65],vertical,"(390.0, 262.0)",1.1333333333333333,0.612,1,1693.087,1,0.04,0.25
0,232,target,"[(1160, 817)]",[],[1],[0.55],horizontal,"(890.0, 262.0)",0.85,0.511,1,1698.233,1,0.04,0.25
0,233,target,"[(1159, 806)]",[],[1],[0.55],vertical,"(390.0, 762.0)",1.4166666666666667,0.511,1,1703.163,2,0.04,0.25
0,234,target,"[(1156, 802)]",[],[1],[0.55],horizontal,"(390.0, 262.0)",0.7166666666666667,0.512,1,1709.16,2,0.04,0.25
0,235,target,"[(1159, 809)]",[],[1],[0.7],vertical,"(390.0, 762.0)",0.8,0.657,1,1714.368,2,0.04,0.25
0,236,target,"[(1159, 821)]",[],[1],[0.7333333333333333],vertical,"(390.0, 762.0)",1.1166666666666667,0.688,1,1719.555,2,0.04,0.25
0,237,target,"[(1154, 811)]",[],[1],[0.85],vertical,"(390.0, 262.0)",0.45,nan,0,1725.549,0,0.04,0.25
0,238,target,"[(1148, 817)]",[],[1],[0.65],horizontal,"(890.0, 762.0)",1.2833333333333332,0.608,1,1730.328,1,0.04,0.25
0,239,target,"[(1140, 803)]",[],[1],[0.4],horizontal,"(390.0, 262.0)",1.4666666666666666,0.361,1,1735.66,1,0.02,0.25
0,240,catch,"[(1154, 802)]",[],[1],[],vertical,"(890.0, 262.0)",1.7,nan,1,1741.477,1,0.02,0.25
0,241,catch,"[(1139, 812)]",[],[1],[],vertical,"(390.0, 262.0)",1.7,nan,1,1746.651,2,0.02,0.25
0,242,target,"[(1160, 814)]",[],[1],[0.5],horizontal,"(890.0, 262.0)",1.2833333333333332,0.464,1,1752.511,2,0.02,0.25
0,243,catch,"[(1164, 808)]",[],[1],[],vertical,"(890.0, 262.0)",1.7,nan,1,1758.377,2,0.02,0.25
0,244,target,"[(1160, 810)]",[],[1],[0.5166666666666666],horizontal,"(890.0, 262.0)",1.1333333333333333,0.473,1,1764.134,2,0.02,0.25
0,245,target,"[(1160, 807)]",[],[1],[0.5333333333333333],horizontal,"(890.0, 262.0)",1.3333333333333333,0.495,1,1769.811,3,0.02,0.25
0,246,catch,"[(1160, 808)]",[],[1],[],horizontal,"(390.0, 762.0)",1.7,nan,1,1776.462,3,0.02,0.25
0,247,target,"[(1156, 800)]",[],[1],[0.5166666666666666],vertical,"(890.0, 762.0)",1.3666666666666667,0.474,1,1782.572,3,0.02,0.25
0,248,target,"[(1165, 810)]",[],[1],[0.5],vertical,"(390.0, 762.0)",0.8166666666666667,0.467,1,1788.627,3,0.02,0.25
0,249,target,"[(1159, 796)]",[],[1],[0.85],horizontal,"(390.0, 262.0)",0.3833333333333333,nan,0,1794.395,0,0.02,0.25
0,250,catch,"[(1158, 813)]",[],[1],[],horizontal,"(390.0, 262.0)",1.7,nan,1,1798.81,1,0.02,0.25
0,251,target,"[(1146, 807)]",[],[1],[0.6833333333333333],horizontal,"(390.0, 762.0)",0.4166666666666667,0.641,1,1804.221,1,0.02,0.25
0,252,target,"[(1160, 796)]",[],[1],[0.6333333333333333],vertical,"(390.0, 262.0)",0.4166666666666667,0.585,1,1808.311,1,0.02,0.25
0,253,target,"[(1159, 780)]",[],[1],[0.6166666666666667],horizontal,"(390.0, 762.0)",0.6333333333333333,0.574,1,1813.152,2,0.02,0.25
0,254,target,"[(1155, 799)]",[],[1],[0.45],vertical,"(390.0, 762.0)",1.4666666666666666,0.409,1,1818.582,2,0.02,0.25
0,255,target,"[(1161, 784)]",[],[1],[0.85],vertical,"(890.0, 262.0)",0.7,nan,0,1824.312,0,0.02,0.25
0,256,target,"[(1150, 812)]",[],[1],[0.6833333333333333],horizontal,"(890.0, 762.0)",0.9666666666666667,0.64,1,1828.797,1,0.02,0.25
0,257,target,"[(1136, 776)]",[],[1],[0.4],horizontal,"(390.0, 262.0)",1.45,0.359,1,1833.98,1,0.02,0.25
0,258,target,"[(1151, 790)]",[],[1],[0.75],vertical,"(890.0, 762.0)",0.9333333333333333,0.711,1,1839.249,1,0.02,0.25
0,259,target,"[(1162, 837)]",[],[1],[0.6166666666666667],vertical,"(890.0, 262.0)",0.9666666666666667,0.57,1,1844.709,2,0.02,0.25
0,260,target,"[(1164, 796)]",[],[1],[0.85],horizontal,"(390.0, 762.0)",0.7,nan,0,1850.196,0,0.0,0.25
0,261,target,"[(1147, 811)]",[],[1],[0.85],vertical,"(890.0, 762.0)",0.35,nan,0,1854.948,0,0.0,0.25
0,262,target,"[(1160, 834)]",[],[1],[0.85],horizontal,"(890.0, 262.0)",0.5166666666666666,nan,0,1859.045,0,0.0,0.25
0,263,target,"[(1148, 803)]",[],[1],[0.5166666666666666],horizontal,"(890.0, 262.0)",0.5,0.479,1,1864.184,1,0.0,0.25
0,264,catch,"[(1167, 797)]",[],[1],[],vertical,"(890.0, 762.0)",1.7,nan,1,1868.844,1,0.0,0.25
0,265,target,"[(1160, 797)]",[],[1],[0.85],vertical,"(890.0, 262.0)",0.5333333333333333,nan,0,1874.027,0,0.0,0.25
0,266,catch,"[(1134, 801)]",[],[1],[],horizontal,"(890.0, 262.0)",1.7,nan,1,1878.629,1,0.0,0.25
0,267,target,"[(1153, 803)]",[],[1],[0.5833333333333334],horizontal,"(390.0, 262.0)",1.2,0.544,1,1883.562,1,0.0,0.25
0,268,catch,"[(1160, 803)]",[],[1],[],horizontal,"(890.0, 262.0)",1.7,nan,1,1888.476,1,0.0,0.25
0,269,target,"[(1157, 809)]",[],[1],[0.5333333333333333],vertical,"(890.0, 762.0)",0.48333333333333334,0.501,1,1893.749,2,0.0,0.25
0,270,catch,"[(1159, 793)]",[],[1],[],vertical,"(890.0, 762.0)",1.7,nan,1,1898.594,2,0.0,0.25
0,271,target,"[(1159, 803)]",[],[1],[0.6],vertical,"(890.0, 762.0)",0.4,0.56,1,1904.527,2,0.0,0.25
0,272,target,"[(1164, 798)]",[],[1],[0.7],vertical,"(390.0, 762.0)",0.48333333333333334,0.656,1,1909.528,2,0.0,0.25
0,273,target,"[(1146, 817)]",[],[1],[0.7666666666666666],vertical,"(890.0, 762.0)",1.0833333333333333,0.728,1,1914.9,3,0.0,0.25
0,274,target,"[(1151, 797)]",[],[1],[0.5166666666666666],vertical,"(890.0, 762.0)",1.0,0.473,1,1921.13,3,0.0,0.25
0,275,catch,"[(1142, 803)]",[],[1],[],vertical,"(390.0, 262.0)",1.7,nan,1,1927.251,3,0.0,0.25
0,276,target,"[(1157, 793)]",[],[1],[0.4666666666666667],vertical,"(890.0, 262.0)",1.3333333333333333,0.423,1,1933.165,3,0.0,0.25
0,277,target,"[(1160, 800)]",[],[1],[0.55],vertical,"(390.0, 262.0)",0.6666666666666666,0.508,1,1939.577,3,0.0,0.25
0,278,target,"[(1165, 797)]",[],[1],[0.7],horizontal,"(890.0, 762.0)",1.3833333333333333,0.66,1,1944.761,3,0.0,0.25
0,279,catch,"[(1136, 780)]",[],[1],[],horizontal,"(390.0, 762.0)",1.7,nan,1,1950.94,3,0.0,0.25
0,280,target,"[(1160, 789)]",[],[1],[0.6166666666666667],horizontal,"(390.0, 762.0)",0.5166666666666666,0.574,1,1957.011,3,0.0,0.25
0,281,target,"[(1160, 788)]",[],[1],[0.6166666666666667],horizontal,"(890.0, 262.0)",0.7333333333333333,0.573,1,1962.011,3,0.0,0.25
0,282,catch,"[(1141, 803)]",[],[1],[],vertical,"(390.0, 762.0)",1.7,nan,1,1967.878,3,0.0,0.25
0,283,catch,"[(1164, 803)]",[],[1],[],vertical,"(390.0, 262.0)",1.7,nan,1,1974.022,3,0.0,0.25
0,284,catch,"[(1160, 789)]",[],[1],[],horizontal,"(390.0, 762.0)",1.7,nan,1,1979.642,3,0.0,0.25
0,285,target,"[(1162, 792)]",[],[1],[0.5333333333333333],horizontal,"(890.0, 762.0)",0.5333333333333333,0.499,1,1985.372,3,0.0,0.25
0,286,target,"[(1140, 796)]",[],[1],[0.6],vertical,"(890.0, 762.0)",0.7,0.558,1,1990.581,3,0.0,0.25
0,287,target,"[(1157, 794)]",[],[1],[0.5833333333333334],horizontal,"(390.0, 762.0)",1.0666666666666667,0.548,1,1995.861,3,0.0,0.25
0,288,target,"[(1161, 805)]",[],[1],[0.7666666666666666],vertical,"(890.0, 762.0)",1.2166666666666666,0.732,1,2001.594,3,0.0,0.25
0,289,catch,"[(1160, 803)]",[],[1],[],vertical,"(890.0, 262.0)",1.7,nan,1,2007.499,3,0.0,0.25
0,290,catch,"[(1161, 802)]",[],[1],[],horizontal,"(890.0, 262.0)",1.7,nan,1,2013.559,3,0.0,0.25
0,291,catch,"[(1172, 804)]",[],[1],[],horizontal,"(890.0, 762.0)",1.7,nan,1,2019.685,3,0.0,0.25
0,292,target,"[(1161, 803)]",[],[1],[0.5666666666666667],vertical,"(890.0, 262.0)",0.6,0.523,1,2025.912,3,0.0,0.25
0,293,catch,"[(1165, 797)]",[],[1],[],horizontal,"(390.0, 262.0)",1.7,nan,1,2031.211,3,0.0,0.25
0,294,target,"[(1165, 786)]",[],[1],[0.5833333333333334],vertical,"(390.0, 762.0)",1.3166666666666667,0.55,1,2037.26,3,0.0,0.25
0,295,target,"[(1170, 803)]",[],[1],[0.5166666666666666],vertical,"(390.0, 262.0)",0.7833333333333333,0.473,1,2043.631,3,0.0,0.25
0,296,target,"[(1159, 803)]",[],[1],[0.2],vertical,"(390.0, 262.0)",1.4666666666666666,0.168,0,2049.445,0,0.0,0.25
0,297,catch,"[(1135, 840)]",[],[1],[],horizontal,"(390.0, 262.0)",1.7,nan,1,2054.434,1,0.0,0.25
0,298,catch,"[(1136, 817)]",[],[1],[],vertical,"(890.0, 762.0)",1.7,nan,1,2102.079,1,0.0,0.25
0,299,target,"[(1157, 838)]",[],[1],[0.5666666666666667],horizontal,"(890.0, 762.0)",0.5166666666666666,0.526,1,2107.408,1,0.0,0.25
0,300,target,"[(1139, 803)]",[],[1],[0.5333333333333333],horizontal,"(890.0, 762.0)",0.6,0.492,1,2111.909,2,0.0,0.25
0,301,target,"[(1136, 807)]",[],[1],[0.6666666666666666],horizontal,"(390.0, 262.0)",1.3,0.625,1,2117.546,2,0.0,0.25
0,302,target,"[(1150, 807)]",[],[1],[0.4166666666666667],horizontal,"(390.0, 262.0)",1.4333333333333333,0.38,1,2123.578,2,0.0,0.25
0,303,target,"[(1162, 812)]",[],[1],[0.65],vertical,"(890.0, 262.0)",0.9666666666666667,0.629,1,2129.728,2,0.0,0.25
0,304,target,"[(1166, 820)]",[],[1],[0.6333333333333333],vertical,"(390.0, 762.0)",1.5,0.591,1,2135.411,3,0.0,0.25
0,305,target,"[(1149, 797)]",[],[1],[0.65],vertical,"(890.0, 762.0)",0.85,0.604,1,2142.045,3,0.0,0.25
0,306,catch,"[(1141, 805)]",[],[1],[],horizontal,"(890.0, 762.0)",1.7,nan,1,2147.58,3,0.0,0.25
0,307,catch,"[(1156, 786)]",[],[1],[],vertical,"(890.0, 762.0)",1.7,nan,1,2153.562,3,0.0,0.25
0,308,catch,"[(1154, 828)]",[],[1],[],horizontal,"(890.0, 762.0)",1.7,nan,1,2159.921,3,0.0,0.25
0,309,catch,"[(1157, 808)]",[],[1],[],horizontal,"(390.0, 262.0)",1.7,nan,1,2165.767,3,0.0,0.25
0,310,target,"[(1159, 782)]",[],[1],[0.4666666666666667],vertical,"(890.0, 762.0)",1.4833333333333334,0.435,1,2171.652,3,0.0,0.25
0,311,catch,"[(1138, 809)]",[],[1],[],vertical,"(390.0, 762.0)",1.7,nan,1,2177.831,3,0.0,0.25
0,312,catch,"[(1166, 786)]",[],[1],[],horizontal,"(890.0, 762.0)",1.7,nan,1,2183.462,3,0.0,0.25
0,313,target,"[(1149, 814)]",[],[1],[0.5166666666666666],horizontal,"(390.0, 262.0)",1.0333333333333332,0.487,1,2189.296,3,0.0,0.25
0,314,catch,"[(1170, 798)]",[],[1],[],vertical,"(390.0, 262.0)",1.7,nan,1,2195.689,3,0.0,0.25
0,315,catch,"[(1160, 807)]",[],[1],[],horizontal,"(890.0, 762.0)",1.7,nan,1,2201.501,3,0.0,0.25
0,316,target,"[(1163, 804)]",[],[1],[0.4],vertical,"(390.0, 762.0)",1.4333333333333333,0.364,1,2207.83,3,0.0,0.25
0,317,target,"[(1143, 796)]",[],[1],[0.85],vertical,"(390.0, 762.0)",0.48333333333333334,nan,0,2214.001,0,0.0,0.25
0,318,catch,"[(1145, 807)]",[],[1],[],horizontal,"(890.0, 762.0)",1.7,nan,1,2218.463,1,0.0,0.25
0,319,target,"[(1166, 795)]",[],[1],[0.5833333333333334],vertical,"(890.0, 262.0)",1.4166666666666667,0.541,1,2223.937,1,0.0,0.25
0,320,catch,"[(1175, 814)]",[],[1],[],vertical,"(890.0, 762.0)",1.7,nan,1,2229.22,1,0.0,0.25
0,321,catch,"[(1151, 779)]",[],[1],[],vertical,"(390.0, 762.0)",1.7,nan,1,2234.739,2,0.0,0.25
0,322,catch,"[(1164, 791)]",[],[1],[],vertical,"(390.0, 262.0)",,"('cti', 1.607),nan",0,2240.346,0,0.02,0.25
0,323,target,"[(1112, 850)]",[],[1],[0.6],vertical,"(390.0, 762.0)",1.2166666666666666,0.559,1,2245.414,1,0.02,0.25
0,324,catch,"[(1160, 787)]",[],[1],[],horizontal,"(390.0, 262.0)",,"('cti', 1.604),nan",0,2257.521,0,0.04,0.25
0,325,catch,"[(1142, 812)]",[],[1],[],vertical,"(890.0, 262.0)",1.7,nan,1,2262.527,1,0.04,0.25
0,326,target,"[(1157, 807)]",[],[1],[0.5833333333333334],horizontal,"(390.0, 762.0)",0.6333333333333333,0.545,1,2267.412,1,0.04,0.25
0,327,target,"[(1166, 786)]",[],[1],[0.5166666666666666],vertical,"(390.0, 762.0)",0.4666666666666667,0.484,1,2272.212,1,0.04,0.25
0,328,target,"[(1154, 817)]",[],[1],[0.5166666666666666],horizontal,"(890.0, 262.0)",0.75,0.481,1,2276.361,2,0.04,0.25
0,329,target,"[(1155, 804)]",[],[1],[0.5666666666666667],vertical,"(890.0, 762.0)",1.4,0.526,1,2281.911,2,0.04,0.25
0,330,target,"[(1167, 786)]",[],[1],[0.3],vertical,"(390.0, 262.0)",1.35,0.262,1,2287.363,2,0.04,0.25
0,331,target,"[(1165, 800)]",[],[1],[0.8166666666666667],horizontal,"(390.0, 762.0)",0.8,0.773,1,2292.942,2,0.04,0.25
0,332,target,"[(1170, 794)]",[],[1],[0.5833333333333334],horizontal,"(390.0, 762.0)",0.6333333333333333,0.539,1,2298.505,3,0.04,0.25
0,333,target,"[(1161, 797)]",[],[1],[0.5166666666666666],horizontal,"(890.0, 762.0)",1.0666666666666667,0.478,1,2304.403,3,0.04,0.25
0,334,target,"[(1170, 799)]",[],[1],[0.85],vertical,"(890.0, 762.0)",0.6166666666666667,nan,0,2310.035,0,0.04,0.25
0,335,target,"[(1143, 797)]",[],[1],[0.5333333333333333],vertical,"(890.0, 762.0)",0.9,0.492,1,2314.196,1,0.04,0.25
0,336,target,"[(1154, 794)]",[],[1],[0.85],vertical,"(390.0, 762.0)",0.8,nan,0,2319.18,0,0.04,0.25
0,337,target,"[(1148, 808)]",[],[1],[0.5166666666666666],horizontal,"(390.0, 762.0)",0.7666666666666666,0.479,1,2323.646,1,0.04,0.25
0,338,target,"[(1160, 806)]",[],[1],[0.7333333333333333],vertical,"(390.0, 262.0)",0.5,0.692,1,2328.537,1,0.04,0.25
0,339,catch,"[(1162, 774)]",[],[1],[],vertical,"(390.0, 262.0)",1.7,nan,1,2333.429,1,0.04,0.25
0,340,target,"[(1164, 802)]",[],[1],[0.5],horizontal,"(890.0, 762.0)",1.35,0.468,1,2338.689,2,0.04,0.25
0,341,catch,"[(1141, 832)]",[],[1],[],vertical,"(890.0, 262.0)",1.7,nan,1,2344.543,2,0.04,0.25
0,342,target,"[(1156, 788)]",[],[1],[0.5333333333333333],vertical,"(390.0, 762.0)",1.0,0.496,1,2350.54,2,0.04,0.25
0,343,target,"[(1165, 787)]",[],[1],[0.7166666666666667],vertical,"(890.0, 262.0)",0.4,0.677,1,2355.779,2,0.04,0.25
0,344,target,"[(1166, 812)]",[],[1],[0.5],vertical,"(890.0, 762.0)",1.4666666666666666,0.47,1,2360.996,3,0.04,0.25
0,345,target,"[(1142, 781)]",[],[1],[0.5],horizontal,"(390.0, 262.0)",0.8833333333333333,0.465,1,2367.447,3,0.04,0.25
0,346,target,"[(1138, 807)]",[],[1],[0.6166666666666667],horizontal,"(890.0, 762.0)",1.5333333333333332,0.576,1,2372.561,3,0.04,0.25
0,347,target,"[(1160, 815)]",[],[1],[0.6],vertical,"(890.0, 762.0)",1.3833333333333333,0.559,1,2378.863,3,0.04,0.25
0,348,target,"[(1154, 806)]",[],[1],[0.85],vertical,"(890.0, 762.0)",0.5666666666666667,nan,0,2385.268,0,0.04,0.25
0,349,target,"[(1135, 810)]",[],[1],[0.8166666666666667],vertical,"(890.0, 762.0)",0.8833333333333333,0.774,1,2389.846,1,0.04,0.25
0,350,target,"[(1132, 805)]",[],[1],[0.85],horizontal,"(390.0, 762.0)",0.45,nan,0,2395.362,0,0.04,0.25
0,351,target,"[(1138, 803)]",[],[1],[0.6166666666666667],vertical,"(390.0, 262.0)",0.6,0.579,1,2399.564,1,0.04,0.25
0,352,catch,"[(1164, 772)]",[],[1],[],horizontal,"(390.0, 762.0)",1.7,nan,1,2404.337,1,0.04,0.25
0,353,target,"[(1136, 773)]",[],[1],[0.5666666666666667],vertical,"(390.0, 262.0)",1.1833333333333333,0.529,1,2409.563,1,0.04,0.25
0,354,target,"[(1162, 786)]",[],[1],[0.5333333333333333],horizontal,"(890.0, 262.0)",1.2,0.492,1,2414.813,2,0.04,0.25
0,355,target,"[(1158, 779)]",[],[1],[0.55],horizontal,"(890.0, 262.0)",0.3833333333333333,0.511,1,2420.42,2,0.04,0.25
0,356,target,"[(1158, 807)]",[],[1],[0.85],vertical,"(890.0, 262.0)",0.6333333333333333,nan,0,2425.48,0,0.04,0.25
0,357,target,"[(1137, 802)]",[],[1],[0.55],horizontal,"(390.0, 762.0)",0.35,0.517,1,2430.011,1,0.04,0.25
0,358,target,"[(1154, 803)]",[],[1],[0.6166666666666667],vertical,"(890.0, 762.0)",0.35,0.576,1,2434.511,1,0.04,0.25
0,359,target,"[(1159, 797)]",[],[1],[0.5],vertical,"(890.0, 262.0)",0.4,0.47,1,2438.966,1,0.04,0.25
0,360,target,"[(1160, 800)]",[],[1],[0.5],vertical,"(390.0, 262.0)",1.4833333333333334,0.461,1,2443.746,2,0.04,0.25
0,361,catch,"[(1155, 795)]",[],[1],[],horizontal,"(390.0, 762.0)",1.7,nan,1,2449.578,2,0.04,0.25
0,362,target,"[(1175, 799)]",[],[1],[0.75],horizontal,"(890.0, 762.0)",0.85,0.703,1,2455.459,2,0.04,0.25
0,363,target,"[(1159, 805)]",[],[1],[0.5333333333333333],vertical,"(890.0, 762.0)",1.2833333333333332,0.495,1,2460.874,2,0.04,0.25
0,364,target,"[(1159, 806)]",[],[1],[0.5],vertical,"(890.0, 262.0)",1.0166666666666666,0.461,1,2466.772,3,0.04,0.25
0,365,target,"[(1146, 774)]",[],[1],[0.6166666666666667],vertical,"(890.0, 762.0)",1.3666666666666667,0.577,1,2472.585,3,0.04,0.25
0,366,target,"[(1160, 805)]",[],[1],[0.7],horizontal,"(390.0, 262.0)",1.0833333333333333,0.654,1,2478.733,3,0.04,0.25
0,367,target,"[(1164, 806)]",[],[1],[0.6],vertical,"(390.0, 262.0)",1.0666666666666667,0.559,1,2484.867,3,0.04,0.25
0,368,target,"[(1160, 796)]",[],[1],[0.6166666666666667],horizontal,"(390.0, 762.0)",0.7833333333333333,0.574,1,2491.163,3,0.04,0.25
0,369,target,"[(1166, 812)]",[],[1],[0.5],horizontal,"(890.0, 762.0)",0.9,0.461,1,2496.813,3,0.04,0.25
0,370,target,"[(1171, 789)]",[],[1],[0.7],horizontal,"(890.0, 762.0)",0.7166666666666667,0.654,1,2502.488,3,0.04,0.25
0,371,target,"[(1159, 799)]",[],[1],[0.48333333333333334],vertical,"(890.0, 262.0)",1.4666666666666666,0.439,1,2508.467,3,0.04,0.25
0,372,target,"[(1160, 806)]",[],[1],[0.45],vertical,"(390.0, 262.0)",1.5166666666666666,0.413,1,2514.697,3,0.02,0.25
0,373,target,"[(1164, 794)]",[],[1],[0.55],horizontal,"(390.0, 762.0)",1.5333333333333332,0.513,1,2521.016,3,0.02,0.25
0,374,target,"[(1150, 788)]",[],[1],[0.36666666666666664],horizontal,"(390.0, 262.0)",1.3666666666666667,0.331,1,2526.981,3,0.0,0.25
0,375,catch,"[(1161, 811)]",[],[1],[],horizontal,"(390.0, 762.0)",1.7,nan,1,2532.798,3,0.0,0.25
0,376,target,"[(1160, 794)]",[],[1],[0.5166666666666666],horizontal,"(390.0, 262.0)",0.35,0.483,1,2538.531,3,0.0,0.25
0,377,catch,"[(1171, 804)]",[],[1],[],vertical,"(890.0, 262.0)",1.7,nan,1,2544.114,3,0.0,0.25
0,378,target,"[(1163, 795)]",[],[1],[0.6166666666666667],horizontal,"(390.0, 762.0)",0.55,0.583,1,2549.915,3,0.0,0.25
0,379,target,"[(1158, 804)]",[],[1],[0.5666666666666667],vertical,"(390.0, 262.0)",1.2166666666666666,0.528,1,2555.548,3,0.0,0.25
0,380,catch,"[(1137, 798)]",[],[1],[],horizontal,"(890.0, 262.0)",1.7,nan,1,2561.794,3,0.0,0.25
0,381,catch,"[(1157, 807)]",[],[1],[],horizontal,"(390.0, 762.0)",1.7,nan,1,2567.864,3,0.0,0.25
0,382,target,"[(1157, 799)]",[],[1],[0.55],horizontal,"(890.0, 762.0)",1.3166666666666667,0.508,1,2573.648,3,0.0,0.25
0,383,target,"[(1163, 801)]",[],[1],[0.5166666666666666],vertical,"(390.0, 262.0)",1.05,0.475,1,2579.865,3,0.0,0.25
0,384,target,"[(1161, 806)]",[],[1],[0.48333333333333334],vertical,"(890.0, 762.0)",1.3666666666666667,0.445,1,2585.263,3,0.0,0.25
0,385,target,"[(1161, 803)]",[],[1],[0.5666666666666667],vertical,"(890.0, 262.0)",0.6166666666666667,0.534,1,2591.58,3,0.0,0.25
0,386,target,"[(1162, 797)]",[],[1],[0.85],horizontal,"(890.0, 762.0)",0.5,nan,0,2596.765,0,0.0,0.25
0,387,target,"[(1139, 807)]",[],[1],[0.6],vertical,"(890.0, 762.0)",0.7833333333333333,0.555,1,2601.231,1,0.0,0.25
0,388,target,"[(1170, 807)]",[],[1],[0.7166666666666667],horizontal,"(890.0, 762.0)",1.0333333333333332,0.673,1,2605.948,1,0.0,0.25
0,389,target,"[(1162, 806)]",[],[1],[0.6166666666666667],vertical,"(390.0, 762.0)",0.5833333333333334,0.581,1,2610.998,1,0.0,0.25
0,390,target,"[(1149, 787)]",[],[1],[0.65],vertical,"(390.0, 262.0)",0.6666666666666666,0.604,1,2615.716,2,0.0,0.25
0,391,target,"[(1160, 807)]",[],[1],[0.5],horizontal,"(390.0, 762.0)",1.2,0.462,1,2620.881,2,0.0,0.25
0,392,target,"[(1166, 797)]",[],[1],[0.85],horizontal,"(390.0, 762.0)",0.48333333333333334,nan,0,2626.464,0,0.0,0.25
0,393,catch,"[(1132, 816)]",[],[1],[0.03333333333333333],horizontal,"(890.0, 762.0)",1.7,"0.019,nan",0,2630.664,0,0.02,0.25
0,394,target,"[(1134, 831)]",[],[1],[0.5333333333333333],vertical,"(890.0, 262.0)",0.7833333333333333,0.494,1,2635.848,1,0.02,0.25
0,395,target,"[(1170, 829)]",[],[1],[0.35],vertical,"(890.0, 262.0)",1.4833333333333334,0.311,1,2656.147,1,0.02,0.25
0,396,catch,"[(1153, 783)]",[],[1],[0.03333333333333333],horizontal,"(390.0, 762.0)",1.7,"0.02,nan",0,2661.418,0,0.04,0.25
0,397,target,"[(1144, 808)]",[],[1],[0.55],vertical,"(390.0, 262.0)",1.2,0.503,1,2666.288,1,0.04,0.25
0,398,target,"[(1162, 801)]",[],[1],[0.4],horizontal,"(890.0, 262.0)",1.4333333333333333,0.368,1,2671.597,1,0.04,0.25
0,399,catch,"[(1136, 783)]",[],[1],[],vertical,"(390.0, 762.0)",1.7,nan,1,2676.561,1,0.04,0.25
0,400,target,"[(1170, 814)]",[],[1],[0.5166666666666666],vertical,"(390.0, 762.0)",1.45,0.482,1,2681.693,2,0.04,0.25
0,401,target,"[(1160, 783)]",[],[1],[0.5166666666666666],vertical,"(390.0, 762.0)",1.35,0.476,1,2687.681,2,0.04,0.25
0,402,target,"[(1142, 791)]",[],[1],[0.7166666666666667],vertical,"(390.0, 262.0)",1.2,0.673,1,2693.544,2,0.04,0.25
0,403,target,"[(1161, 817)]",[],[1],[0.5333333333333333],vertical,"(390.0, 762.0)",0.9333333333333333,0.493,1,2699.448,2,0.04,0.25
0,404,target,"[(1161, 797)]",[],[1],[0.65],vertical,"(890.0, 262.0)",0.6833333333333333,0.613,1,2704.816,3,0.04,0.25
0,405,catch,"[(1160, 803)]",[],[1],[],horizontal,"(890.0, 762.0)",1.7,nan,1,2710.362,3,0.04,0.25
0,406,target,"[(1158, 795)]",[],[1],[0.6166666666666667],vertical,"(890.0, 762.0)",1.1166666666666667,0.575,1,2716.048,3,0.04,0.25
0,407,target,"[(1161, 798)]",[],[1],[0.55],vertical,"(890.0, 262.0)",0.5,0.509,1,2722.447,3,0.04,0.25
0,408,catch,"[(1162, 775)]",[],[1],[],horizontal,"(890.0, 762.0)",,"('cti', 1.489),nan",0,2727.714,0,0.06,0.25
0,409,target,"[(1151, 795)]",[],[1],[0.65],vertical,"(890.0, 262.0)",0.8,0.603,1,2732.531,1,0.06,0.25
0,410,target,"[(1159, 792)]",[],[1],[0.65],vertical,"(390.0, 762.0)",1.1,0.607,1,2737.655,1,0.06,0.25
0,411,target,"[(1161, 803)]",[],[1],[0.43333333333333335],vertical,"(390.0, 762.0)",1.4833333333333334,0.396,1,2743.297,1,0.06,0.25
0,412,catch,"[(1141, 797)]",[],[1],[],horizontal,"(890.0, 262.0)",1.7,nan,1,2748.997,2,0.06,0.25
0,413,target,"[(1165, 796)]",[],[1],[0.5666666666666667],horizontal,"(390.0, 762.0)",0.7333333333333333,0.522,1,2754.672,2,0.06,0.25
0,414,target,"[(1176, 808)]",[],[1],[0.6166666666666667],vertical,"(890.0, 762.0)",0.7166666666666667,0.573,1,2759.899,2,0.06,0.25
0,415,target,"[(1151, 796)]",[],[1],[0.5666666666666667],vertical,"(390.0, 762.0)",1.3,0.527,1,2765.049,2,0.06,0.25
0,416,target,"[(1160, 807)]",[],[1],[0.5],vertical,"(390.0, 262.0)",1.0,0.455,1,2771.168,3,0.06,0.25
0,417,target,"[(1159, 805)]",[],[1],[0.6],vertical,"(390.0, 262.0)",0.9666666666666667,0.563,1,2776.702,3,0.06,0.25
0,418,target,"[(1171, 798)]",[],[1],[0.5166666666666666],horizontal,"(390.0, 762.0)",1.0,0.478,1,2782.621,3,0.06,0.25
0,419,catch,"[(1160, 807)]",[],[1],[],horizontal,"(890.0, 762.0)",1.7,nan,1,2788.313,3,0.06,0.25
0,420,target,"[(1156, 780)]",[],[1],[0.6333333333333333],vertical,"(390.0, 762.0)",0.5166666666666666,0.594,1,2794.077,3,0.06,0.25
0,421,target,"[(1168, 804)]",[],[1],[0.5166666666666666],vertical,"(890.0, 262.0)",0.55,0.479,1,2799.671,3,0.06,0.25
0,422,target,"[(1126, 807)]",[],[1],[0.65],vertical,"(890.0, 762.0)",0.5,0.61,1,2805.181,3,0.06,0.25
0,423,target,"[(1156, 824)]",[],[1],[0.7],vertical,"(390.0, 262.0)",1.15,0.649,1,2818.598,3,0.06,0.25
0,424,target,"[(1140, 816)]",[],[1],[0.5],horizontal,"(890.0, 262.0)",0.8666666666666667,0.461,1,2824.606,3,0.06,0.25
0,425,catch,"[(1155, 812)]",[],[1],[],vertical,"(390.0, 262.0)",1.7,nan,1,2830.296,3,0.06,0.25
0,426,target,"[(1161, 806)]",[],[1],[0.6333333333333333],horizontal,"(390.0, 262.0)",0.85,0.593,1,2836.598,3,0.06,0.25
0,427,target,"[(1157, 812)]",[],[1],[0.5333333333333333],vertical,"(390.0, 762.0)",1.25,0.494,1,2842.416,3,0.06,0.25
0,428,target,"[(1160, 798)]",[],[1],[0.7833333333333333],horizontal,"(390.0, 762.0)",0.7,0.748,1,2848.681,3,0.06,0.25
0,429,target,"[(1158, 816)]",[],[1],[0.5833333333333334],vertical,"(890.0, 262.0)",1.1333333333333333,0.542,1,2854.151,3,0.06,0.25
0,430,target,"[(1159, 808)]",[],[1],[0.55],horizontal,"(390.0, 762.0)",0.9166666666666666,0.511,1,2860.115,3,0.06,0.25
0,431,target,"[(1155, 792)]",[],[1],[0.6666666666666666],horizontal,"(890.0, 262.0)",1.2,0.626,1,2866.063,3,0.06,0.25
0,432,catch,"[(1159, 806)]",[],[1],[],horizontal,"(390.0, 762.0)",1.7,"('cti', 1.69),nan",0,2871.866,0,0.08,0.25
0,433,target,"[(1141, 808)]",[],[1],[0.5333333333333333],horizontal,"(890.0, 762.0)",0.9833333333333333,0.493,1,2876.798,1,0.08,0.25
0,434,target,"[(1157, 802)]",[],[1],[0.65],horizontal,"(890.0, 262.0)",1.2833333333333332,0.61,1,2881.819,1,0.08,0.25
0,435,target,"[(1161, 821)]",[],[1],[0.55],horizontal,"(890.0, 262.0)",0.9,0.511,1,2886.972,1,0.08,0.25
0,436,target,"[(1155, 815)]",[],[1],[0.85],vertical,"(390.0, 262.0)",0.5666666666666667,nan,0,2891.598,0,0.08,0.25
0,437,catch,"[(1142, 790)]",[],[1],[0.03333333333333333],vertical,"(390.0, 762.0)",1.7,"0.018,nan",0,2896.215,0,0.1,0.25
0,438,target,"[(1159, 807)]",[],[1],[0.5333333333333333],horizontal,"(890.0, 262.0)",1.05,0.494,1,2900.974,1,0.1,0.25
0,439,target,"[(1135, 798)]",[],[1],[0.6333333333333333],horizontal,"(390.0, 762.0)",0.36666666666666664,0.588,1,2905.848,1,0.1,0.25
0,440,catch,"[(1143, 829)]",[],[1],[],vertical,"(390.0, 762.0)",1.7,nan,1,2910.561,1,0.1,0.25
0,441,target,"[(1159, 804)]",[],[1],[0.6],horizontal,"(890.0, 762.0)",0.6833333333333333,0.554,1,2915.595,2,0.1,0.25
0,442,target,"[(1158, 807)]",[],[1],[0.6833333333333333],vertical,"(890.0, 262.0)",0.35,0.637,1,2920.978,2,0.1,0.25
0,443,target,"[(1161, 803)]",[],[1],[0.7],horizontal,"(890.0, 262.0)",1.0833333333333333,0.657,1,2926.181,2,0.08,0.25
0,444,target,"[(1155, 807)]",[],[1],[0.55],vertical,"(390.0, 762.0)",1.45,0.509,1,2931.861,2,0.08,0.25
0,445,target,"[(1170, 823)]",[],[1],[0.5],horizontal,"(890.0, 262.0)",0.35,0.467,1,2937.265,3,0.08,0.25
0,446,target,"[(1144, 799)]",[],[1],[0.6833333333333333],horizontal,"(390.0, 262.0)",0.8166666666666667,0.636,1,2942.349,3,0.06,0.25
0,447,target,"[(1171, 799)]",[],[1],[0.5166666666666666],vertical,"(890.0, 762.0)",1.45,0.473,1,2948.016,3,0.06,0.25
0,448,catch,"[(1167, 796)]",[],[1],[],horizontal,"(390.0, 262.0)",1.7,nan,1,2954.18,3,0.06,0.25
0,449,target,"[(1137, 827)]",[],[1],[0.55],horizontal,"(390.0, 762.0)",1.5166666666666666,0.512,1,2959.997,3,0.06,0.25
0,450,target,"[(1154, 801)]",[],[1],[0.65],vertical,"(390.0, 762.0)",0.6333333333333333,0.603,1,2966.322,3,0.06,0.25
0,451,target,"[(1145, 803)]",[],[1],[0.75],horizontal,"(890.0, 762.0)",1.0166666666666666,0.707,1,2972.266,3,0.06,0.25
0,452,target,"[(1161, 810)]",[],[1],[0.7],vertical,"(890.0, 762.0)",0.9833333333333333,0.66,1,2978.149,3,0.06,0.25
0,453,target,"[(1156, 804)]",[],[1],[0.65],vertical,"(890.0, 262.0)",0.55,0.613,1,2984.045,3,0.06,0.25
0,454,target,"[(1160, 802)]",[],[1],[0.6666666666666666],vertical,"(890.0, 262.0)",0.7666666666666666,0.625,1,2989.882,3,0.06,0.25
0,455,catch,"[(1157, 802)]",[],[1],[],vertical,"(390.0, 762.0)",1.7,nan,1,2995.282,3,0.06,0.25
0,456,target,"[(1157, 804)]",[],[1],[0.6166666666666667],horizontal,"(890.0, 762.0)",0.6166666666666667,0.576,1,3001.218,3,0.06,0.25
0,457,catch,"[(1160, 810)]",[],[1],[],vertical,"(390.0, 262.0)",1.7,nan,1,3006.715,3,0.06,0.25
0,458,catch,"[(1160, 797)]",[],[1],[],horizontal,"(890.0, 762.0)",,"('cti', 1.669),nan",0,3012.715,0,0.06,0.25
0,459,target,"[(1151, 804)]",[],[1],[0.6],horizontal,"(390.0, 262.0)",0.95,0.556,1,3017.825,1,0.06,0.25
0,460,target,"[(1157, 799)]",[],[1],[0.6833333333333333],horizontal,"(390.0, 762.0)",0.7833333333333333,0.648,1,3023.233,1,0.06,0.25
0,461,target,"[(1160, 805)]",[],[1],[0.85],vertical,"(890.0, 262.0)",0.5333333333333333,nan,0,3028.383,0,0.06,0.25
0,462,catch,"[(1144, 802)]",[],[1],[],horizontal,"(390.0, 262.0)",1.7,nan,1,3032.832,1,0.06,0.25
0,463,target,"[(1154, 807)]",[],[1],[0.48333333333333334],horizontal,"(890.0, 762.0)",1.45,0.451,1,3038.016,1,0.06,0.25
0,464,catch,"[(1163, 795)]",[],[1],[],vertical,"(890.0, 262.0)",1.7,nan,1,3043.722,1,0.06,0.25
0,465,target,"[(1160, 775)]",[],[1],[0.5666666666666667],vertical,"(890.0, 762.0)",0.9166666666666666,0.528,1,3049.066,2,0.06,0.25
0,466,target,"[(1170, 802)]",[],[1],[0.6666666666666666],horizontal,"(890.0, 262.0)",1.1833333333333333,0.63,1,3054.865,2,0.06,0.25
0,467,target,"[(1162, 801)]",[],[1],[0.65],vertical,"(390.0, 762.0)",0.4666666666666667,0.611,1,3060.564,2,0.06,0.25
0,468,catch,"[(1167, 792)]",[],[1],[],vertical,"(390.0, 262.0)",1.7,nan,1,3065.35,2,0.06,0.25
0,469,target,"[(1151, 831)]",[],[1],[0.5333333333333333],vertical,"(390.0, 262.0)",1.1333333333333333,0.493,1,3071.164,3,0.06,0.25
0,470,target,"[(1160, 797)]",[],[1],[0.2833333333333333],vertical,"(390.0, 762.0)",1.5,0.245,1,3077.383,3,0.06,0.25
0,471,target,"[(1157, 788)]",[],[1],[0.6166666666666667],horizontal,"(890.0, 762.0)",1.0833333333333333,0.576,1,3083.619,3,0.06,0.25
0,472,target,"[(1146, 803)]",[],[1],[0.5333333333333333],vertical,"(390.0, 262.0)",1.1166666666666667,0.505,1,3089.715,3,0.06,0.25
0,473,catch,"[(1160, 800)]",[],[1],[],horizontal,"(390.0, 762.0)",1.7,nan,1,3095.351,3,0.06,0.25
0,474,target,"[(1156, 798)]",[],[1],[0.5333333333333333],horizontal,"(390.0, 762.0)",0.9666666666666667,0.496,1,3101.024,3,0.06,0.25
0,475,catch,"[(1152, 793)]",[],[1],[],horizontal,"(390.0, 262.0)",1.7,nan,1,3106.395,3,0.06,0.25
0,476,target,"[(1155, 798)]",[],[1],[0.5833333333333334],horizontal,"(390.0, 262.0)",1.2166666666666666,0.542,1,3112.307,3,0.06,0.25
0,477,catch,"[(1149, 803)]",[],[1],[],horizontal,"(390.0, 262.0)",1.7,nan,1,3118.552,3,0.06,0.25
0,478,catch,"[(1156, 803)]",[],[1],[],vertical,"(890.0, 762.0)",,"('cti', 1.64),nan",0,3124.532,0,0.08,0.25
0,479,catch,"[(1128, 817)]",[],[1],[],vertical,"(390.0, 762.0)",1.7,nan,1,3129.528,1,0.08,0.25
0,480,catch,"[(1081, 827)]",[],[1],[],vertical,"(890.0, 262.0)",1.7,nan,1,3134.395,1,0.08,0.25
0,481,target,"[(1084, 822)]",[],[1],[0.65],horizontal,"(390.0, 762.0)",1.5333333333333332,0.607,1,3488.392,1,0.08,0.25
0,482,target,"[(1128, 819)]",[],[1],[0.7166666666666667],vertical,"(390.0, 762.0)",1.5166666666666666,0.676,1,4058.579,2,0.06,0.25
0,483,target,"[(1136, 802)]",[],[1],[0.5333333333333333],vertical,"(890.0, 262.0)",1.35,0.497,1,4064.453,2,0.06,0.25
0,484,target,"[(1158, 806)]","[(1141, 850)]",[1],[0.3333333333333333],horizontal,"(390.0, 262.0)",,"('bar', 0.343)",0,4069.95,0,0.06,0.25
0,485,target,"[(1130, 827)]",[],[1],[0.4166666666666667],horizontal,"(390.0, 762.0)",1.3833333333333333,0.375,1,4072.536,1,0.06,0.25
0,486,catch,"[(1160, 815)]",[],[1],[],horizontal,"(890.0, 262.0)",1.7,nan,1,4078.028,1,0.06,0.25
0,487,target,"[(1153, 798)]",[],[1],[0.6666666666666666],vertical,"(390.0, 262.0)",0.7,0.624,1,4083.588,1,0.04,0.25
0,488,catch,"[(1161, 796)]",[],[1],[],vertical,"(390.0, 762.0)",1.7,nan,1,4088.536,2,0.04,0.25
0,489,target,"[(1170, 812)]",[],[1],[0.85],vertical,"(390.0, 262.0)",0.6666666666666666,nan,0,4094.386,0,0.04,0.25
0,490,target,"[(1156, 773)]",[],[1],[0.5333333333333333],horizontal,"(890.0, 762.0)",0.7166666666666667,0.495,1,4098.585,1,0.04,0.25
0,491,target,"[(1170, 825)]",[],[1],[0.5333333333333333],vertical,"(890.0, 262.0)",0.5666666666666667,0.493,1,4103.837,1,0.04,0.25
0,492,target,"[(1151, 812)]",[],[1],[0.5333333333333333],horizontal,"(390.0, 262.0)",0.5,0.491,1,4108.953,1,0.04,0.25
0,493,target,"[(1142, 832)]",[],[1],[0.6],vertical,"(890.0, 262.0)",0.35,0.563,1,4113.717,2,0.04,0.25
0,494,target,"[(1175, 808)]",[],[1],[0.85],horizontal,"(390.0, 762.0)",0.45,nan,0,4119.06,0,0.04,0.25
0,495,target,"[(1132, 797)]",[],[1],[0.5333333333333333],vertical,"(890.0, 762.0)",1.2833333333333332,0.491,1,4123.253,1,0.04,0.25
0,496,target,"[(1177, 790)]",[],[1],[0.5333333333333333],horizontal,"(390.0, 262.0)",1.1166666666666667,0.491,1,4128.553,1,0.04,0.25
0,497,catch,"[(1155, 799)]",[],[1],[],horizontal,"(390.0, 762.0)",1.7,nan,1,4133.749,1,0.04,0.25
0,498,catch,"[(1160, 806)]",[],[1],[],vertical,"(390.0, 262.0)",1.7,nan,1,4138.952,2,0.04,0.25
0,499,catch,"[(1161, 812)]",[],[1],[],vertical,"(390.0, 262.0)",1.7,nan,1,4144.541,2,0.04,0.25
0,500,catch,"[(1163, 816)]",[],[1],[],horizontal,"(390.0, 262.0)",1.7,nan,1,4150.143,2,0.04,0.25
0,501,target,"[(1160, 799)]",[],[1],[0.5166666666666666],vertical,"(890.0, 762.0)",1.05,0.477,1,4156.112,2,0.04,0.25
0,502,catch,"[(1178, 805)]",[],[1],[],horizontal,"(390.0, 262.0)",1.7,nan,1,4161.633,3,0.04,0.25
0,503,catch,"[(1157, 783)]",[],[1],[],horizontal,"(390.0, 762.0)",,"('cti', 1.156),nan",0,4167.453,0,0.06,0.25
0,504,catch,"[(1157, 801)]",[],[1],[],vertical,"(390.0, 262.0)",1.7,nan,1,4171.522,1,0.06,0.25
0,505,target,"[(1140, 802)]",[],[1],[0.48333333333333334],horizontal,"(390.0, 262.0)",0.6666666666666666,0.436,1,4176.994,1,0.06,0.25
0,506,catch,"[(1155, 788)]",[],[1],[],vertical,"(890.0, 262.0)",,"('cti', 1.665),nan",0,4181.804,0,0.08,0.25
0,507,target,"[(1142, 797)]",[],[1],[0.5333333333333333],vertical,"(890.0, 262.0)",0.8666666666666667,0.487,1,4186.633,1,0.08,0.25
0,508,catch,"[(1171, 783)]",[],[1],[],vertical,"(390.0, 762.0)",1.7,nan,1,4191.417,1,0.06,0.25
0,509,catch,"[(1178, 786)]",[],[1],[],vertical,"(890.0, 762.0)",1.7,nan,1,4196.649,1,0.06,0.25
0,510,target,"[(1155, 788)]",[],[1],[0.5166666666666666],horizontal,"(390.0, 762.0)",0.8333333333333334,0.477,1,4202.036,2,0.06,0.25
0,511,target,"[(1164, 811)]",[],[1],[0.5833333333333334],vertical,"(390.0, 762.0)",0.45,0.545,1,4207.359,2,0.06,0.25
0,512,target,"[(1186, 807)]",[],[1],[0.6],horizontal,"(890.0, 762.0)",0.7166666666666667,0.56,1,4212.186,2,0.06,0.25
0,513,target,"[(1158, 802)]",[],[1],[0.7],horizontal,"(890.0, 762.0)",0.7666666666666666,0.659,1,4217.302,2,0.06,0.25
0,514,catch,"[(1170, 789)]",[],[1],[],horizontal,"(890.0, 762.0)",1.7,nan,1,4222.704,3,0.06,0.25
0,515,target,"[(1165, 790)]",[],[1],[0.6],vertical,"(890.0, 262.0)",0.5166666666666666,0.555,1,4228.953,3,0.06,0.25
0,516,target,"[(1170, 804)]",[],[1],[0.85],vertical,"(890.0, 762.0)",0.6666666666666666,nan,0,4234.671,0,0.06,0.25
0,517,target,"[(1136, 811)]",[],[1],[0.5833333333333334],vertical,"(890.0, 762.0)",0.75,0.54,1,4238.962,1,0.06,0.25
0,518,target,"[(1169, 821)]",[],[1],[0.5],vertical,"(390.0, 262.0)",1.4333333333333333,0.461,1,4243.837,1,0.06,0.25
0,519,target,"[(1161, 792)]",[],[1],[0.48333333333333334],vertical,"(390.0, 762.0)",1.35,0.444,1,4249.299,1,0.06,0.25
0,520,target,"[(1159, 800)]",[],[1],[0.5],horizontal,"(890.0, 262.0)",1.3166666666666667,0.458,1,4254.657,2,0.06,0.25
0,521,catch,"[(1171, 792)]",[],[1],[],horizontal,"(390.0, 762.0)",1.7,nan,1,4260.037,2,0.06,0.25
0,522,catch,"[(1179, 777)]",[],[1],[],horizontal,"(390.0, 262.0)",1.7,nan,1,4265.614,2,0.06,0.25
0,523,target,"[(1148, 806)]",[],[1],[0.5166666666666666],vertical,"(890.0, 762.0)",0.9833333333333333,0.475,1,4271.222,2,0.06,0.25
0,524,target,"[(1160, 802)]",[],[1],[0.36666666666666664],horizontal,"(390.0, 262.0)",1.25,0.324,1,4276.219,3,0.06,0.25
0,525,target,"[(1158, 789)]",[],[1],[0.4666666666666667],horizontal,"(390.0, 262.0)",1.35,0.433,1,4282.252,3,0.06,0.25
0,526,target,"[(1139, 788)]",[],[1],[0.5833333333333334],horizontal,"(390.0, 762.0)",0.7333333333333333,0.541,1,4288.419,3,0.06,0.25
0,527,target,"[(1157, 802)]",[],[1],[0.48333333333333334],vertical,"(890.0, 262.0)",0.8833333333333333,0.444,1,4294.453,3,0.06,0.25
0,528,target,"[(1158, 787)]",[],[1],[0.6166666666666667],vertical,"(390.0, 262.0)",0.5166666666666666,0.581,1,4299.772,3,0.04,0.25
0,529,target,"[(1157, 812)]",[],[1],[0.4166666666666667],horizontal,"(890.0, 762.0)",1.3,0.376,1,4305.154,3,0.04,0.25
0,530,target,"[(1137, 779)]",[],[1],[0.31666666666666665],horizontal,"(390.0, 762.0)",1.5,0.283,1,4311.287,3,0.04,0.25
0,531,catch,"[(1163, 806)]",[],[1],[],vertical,"(890.0, 262.0)",1.7,nan,1,4317.155,3,0.04,0.25
0,532,target,"[(1156, 790)]",[],[1],[0.6166666666666667],horizontal,"(890.0, 262.0)",0.9333333333333333,0.569,1,4323.07,3,0.04,0.25
0,533,target,"[(1180, 785)]",[],[1],[0.2],horizontal,"(390.0, 762.0)",1.4333333333333333,0.168,0,4328.487,0,0.04,0.25
0,534,catch,"[(1159, 790)]",[],[1],[],horizontal,"(890.0, 762.0)",1.7,nan,1,4332.737,1,0.04,0.25
0,535,target,"[(1155, 779)]",[],[1],[0.5166666666666666],horizontal,"(390.0, 762.0)",0.6166666666666667,0.476,1,4337.638,1,0.04,0.25
0,536,catch,"[(1155, 792)]",[],[1],[],horizontal,"(890.0, 262.0)",1.7,nan,1,4342.581,1,0.04,0.25
0,537,catch,"[(1161, 803)]",[],[1],[],horizontal,"(390.0, 762.0)",,"('cti', 1.657),nan",0,4347.54,0,0.06,0.25
0,538,catch,"[(1156, 810)]",[],[1],[0.03333333333333333],vertical,"(390.0, 762.0)",1.7,"0.019,nan",0,4352.454,0,0.08,0.25
0,539,target,"[(1155, 809)]",[],[1],[0.6333333333333333],horizontal,"(390.0, 762.0)",1.0166666666666666,0.594,1,4357.371,1,0.08,0.25
0,540,catch,"[(1171, 806)]",[],[1],[],horizontal,"(390.0, 262.0)",1.7,nan,1,4362.403,1,0.08,0.25
0,541,catch,"[(1166, 806)]",[],[1],[0.03333333333333333],vertical,"(390.0, 762.0)",1.7,"0.02,nan",0,4367.687,0,0.1,0.25
0,542,target,"[(1155, 797)]",[],[1],[0.5],horizontal,"(890.0, 762.0)",0.9166666666666666,0.464,1,4372.519,1,0.1,0.25
0,543,target,"[(1157, 794)]",[],[1],[0.6333333333333333],horizontal,"(890.0, 262.0)",1.2333333333333334,0.593,1,4377.399,1,0.1,0.25
0,544,catch,"[(1137, 783)]",[],[1],[],horizontal,"(390.0, 762.0)",1.7,nan,1,4382.838,1,0.1,0.25
0,545,catch,"[(1157, 813)]",[],[1],[],horizontal,"(390.0, 262.0)",1.7,nan,1,4387.683,2,0.1,0.25
0,546,target,"[(1165, 796)]",[],[1],[0.08333333333333333],horizontal,"(390.0, 262.0)",1.3833333333333333,0.05,0,4393.238,0,0.1,0.25
0,547,target,"[(1157, 817)]",[],[1],[0.7],vertical,"(890.0, 762.0)",1.1333333333333333,0.659,1,4398.025,1,0.1,0.25
0,548,target,"[(1145, 770)]",[],[1],[0.7833333333333333],vertical,"(390.0, 762.0)",0.4166666666666667,0.734,1,4403.604,1,0.1,0.25
0,549,target,"[(1166, 805)]",[],[1],[0.3833333333333333],horizontal,"(890.0, 262.0)",1.5166666666666666,0.346,1,4408.221,1,0.1,0.25
0,550,catch,"[(1157, 780)]",[],[1],[],horizontal,"(390.0, 762.0)",1.7,nan,1,4413.88,2,0.1,0.25
0,551,target,"[(1175, 803)]",[],[1],[0.5166666666666666],vertical,"(890.0, 262.0)",1.0333333333333332,0.477,1,4419.321,2,0.1,0.25
0,552,target,"[(1158, 798)]",[],[1],[0.5333333333333333],vertical,"(890.0, 762.0)",0.7666666666666666,0.494,1,4424.774,2,0.1,0.25
0,553,target,"[(1167, 820)]",[],[1],[0.65],horizontal,"(890.0, 762.0)",1.0833333333333333,0.602,1,4430.034,2,0.08,0.25
0,554,catch,"[(1134, 784)]",[],[1],[],vertical,"(390.0, 762.0)",1.7,nan,1,4435.721,3,0.08,0.25
0,555,target,"[(1143, 798)]",[],[1],[0.31666666666666665],vertical,"(390.0, 262.0)",0.7666666666666666,0.281,1,4441.787,3,0.08,0.25
0,556,catch,"[(1158, 807)]",[],[1],[0.03333333333333333],horizontal,"(890.0, 762.0)",1.7,"0.018,nan",0,4447.557,0,0.08,0.25
0,557,target,"[(1131, 800)]",[],[1],[0.7333333333333333],vertical,"(890.0, 762.0)",1.3333333333333333,0.693,1,4452.138,1,0.08,0.25
0,558,target,"[(1157, 792)]",[],[1],[0.48333333333333334],horizontal,"(890.0, 262.0)",0.95,0.445,1,4458.004,1,0.08,0.25
0,559,target,"[(1157, 787)]",[],[1],[0.5666666666666667],vertical,"(890.0, 262.0)",1.4333333333333333,0.521,1,4463.404,1,0.08,0.25
0,560,target,"[(1160, 790)]",[],[1],[0.5],vertical,"(890.0, 762.0)",0.4,0.46,1,4468.867,2,0.08,0.25
0,561,catch,"[(1154, 792)]",[],[1],[],vertical,"(890.0, 262.0)",1.7,nan,1,4473.303,2,0.08,0.25
0,562,catch,"[(1131, 813)]",[],[1],[],horizontal,"(390.0, 762.0)",,"('cti', 1.663),nan",0,4478.804,0,0.1,0.25
0,563,target,"[(1158, 813)]",[],[1],[0.5166666666666666],horizontal,"(890.0, 262.0)",1.4,0.475,1,4484.754,1,0.1,0.25
0,564,target,"[(1159, 785)]",[],[1],[0.6666666666666666],vertical,"(890.0, 262.0)",0.7,0.62,1,4490.35,1,0.1,0.25
0,565,catch,"[(1159, 778)]",[],[1],[],horizontal,"(890.0, 762.0)",1.7,nan,1,4495.105,1,0.1,0.25
0,566,catch,"[(1159, 793)]",[],[1],[],horizontal,"(890.0, 762.0)",1.7,nan,1,4500.487,2,0.1,0.25
0,567,target,"[(1144, 804)]",[],[1],[0.5666666666666667],horizontal,"(890.0, 262.0)",1.1333333333333333,0.527,1,4506.184,2,0.1,0.25
0,568,target,"[(1159, 812)]",[],[1],[0.65],horizontal,"(890.0, 762.0)",0.6166666666666667,0.607,1,4511.915,2,0.1,0.25
0,569,target,"[(1134, 782)]",[],[1],[0.7666666666666666],vertical,"(890.0, 762.0)",1.1666666666666667,0.725,1,4517.143,2,0.1,0.25
0,570,target,"[(1160, 792)]",[],[1],[0.6166666666666667],horizontal,"(390.0, 762.0)",0.45,0.575,1,4523.168,3,0.1,0.25
0,571,target,"[(1170, 792)]",[],[1],[0.6333333333333333],vertical,"(890.0, 762.0)",0.8166666666666667,0.589,1,4528.627,3,0.1,0.25
0,572,target,"[(1157, 802)]",[],[1],[0.48333333333333334],vertical,"(390.0, 262.0)",1.05,0.439,1,4533.768,3,0.1,0.25
0,573,target,"[(1174, 792)]",[],[1],[0.85],horizontal,"(890.0, 762.0)",0.35,nan,0,4539.69,0,0.1,0.25
0,574,catch,"[(1146, 824)]",[],[1],[],vertical,"(890.0, 762.0)",1.7,nan,1,4543.542,1,0.1,0.25
0,575,catch,"[(1166, 785)]",[],[1],[],horizontal,"(390.0, 262.0)",1.7,nan,1,4548.938,1,0.1,0.25
0,576,target,"[(1158, 781)]",[],[1],[0.2833333333333333],vertical,"(390.0, 262.0)",1.3666666666666667,0.247,1,4553.89,1,0.1,0.25
0,577,target,"[(1167, 795)]",[],[1],[0.5],vertical,"(390.0, 262.0)",0.5833333333333334,0.461,1,4559.354,2,0.1,0.25
0,578,target,"[(1157, 821)]",[],[1],[0.85],horizontal,"(890.0, 262.0)",0.7833333333333333,nan,0,4564.57,0,0.1,0.25
0,579,target,"[(1159, 795)]",[],[1],[0.5],horizontal,"(390.0, 262.0)",1.3833333333333333,0.461,1,4569.688,1,0.1,0.25
0,580,target,"[(1167, 763)]",[],[1],[0.65],vertical,"(890.0, 762.0)",0.7833333333333333,0.603,1,4575.056,1,0.1,0.25
0,581,catch,"[(1139, 786)]",[],[1],[],vertical,"(890.0, 762.0)",1.7,nan,1,4580.221,1,0.1,0.25
0,582,target,"[(1146, 788)]",[],[1],[0.85],vertical,"(890.0, 762.0)",0.6666666666666666,nan,0,4585.321,0,0.1,0.25
0,583,target,"[(1131, 803)]",[],[1],[0.5166666666666666],horizontal,"(390.0, 262.0)",0.48333333333333334,0.482,1,4590.221,1,0.1,0.25
0,584,target,"[(1131, 766)]",[],[1],[0.6666666666666666],horizontal,"(890.0, 262.0)",0.5,0.617,1,4594.932,1,0.1,0.25
0,585,target,"[(1147, 798)]",[],[1],[0.7166666666666667],vertical,"(890.0, 762.0)",0.8833333333333333,0.67,1,4599.422,1,0.1,0.25
0,586,target,"[(1156, 809)]",[],[1],[0.5666666666666667],vertical,"(890.0, 762.0)",0.65,0.528,1,4604.805,2,0.1,0.25
0,587,target,"[(1156, 814)]",[],[1],[0.6333333333333333],vertical,"(390.0, 762.0)",1.4833333333333334,0.591,1,4610.005,2,0.08,0.25
0,588,target,"[(1151, 807)]",[],[1],[0.5833333333333334],vertical,"(890.0, 762.0)",1.25,0.546,1,4615.705,2,0.06,0.25
0,589,target,"[(1175, 800)]",[],[1],[0.5833333333333334],vertical,"(390.0, 262.0)",0.3833333333333333,0.543,1,4622.211,2,0.06,0.25
0,590,target,"[(1169, 793)]",[],[1],[0.6],vertical,"(390.0, 762.0)",0.7166666666666667,0.554,1,4627.205,3,0.06,0.25
0,591,catch,"[(1145, 794)]",[],[1],[],vertical,"(390.0, 762.0)",1.7,nan,1,4633.212,3,0.04,0.25
0,592,target,"[(1159, 783)]",[],[1],[0.6333333333333333],vertical,"(390.0, 762.0)",1.0333333333333332,0.591,1,4639.139,3,0.04,0.25
0,593,target,"[(1133, 781)]",[],[1],[0.4],vertical,"(890.0, 762.0)",1.4,0.36,1,4645.289,3,0.04,0.25
0,594,target,"[(1164, 805)]",[],[1],[0.55],horizontal,"(390.0, 262.0)",0.65,0.515,1,4651.122,3,0.04,0.25
0,595,target,"[(1159, 787)]",[],[1],[0.55],vertical,"(890.0, 262.0)",0.5666666666666667,0.507,1,4656.464,3,0.04,0.25
0,596,target,"[(1159, 793)]",[],[1],[0.5833333333333334],horizontal,"(390.0, 262.0)",0.8333333333333334,0.537,1,4661.973,3,0.04,0.25
0,597,catch,"[(1151, 791)]",[],[1],[0.03333333333333333],horizontal,"(890.0, 762.0)",1.7,"0.018,nan",0,4667.687,0,0.06,0.25
0,598,target,"[(1157, 801)]",[],[1],[0.7833333333333333],horizontal,"(890.0, 762.0)",1.1,0.734,1,4672.737,1,0.06,0.25
0,599,target,"[(1148, 782)]",[],[1],[0.85],vertical,"(390.0, 762.0)",0.6666666666666666,nan,0,4677.905,0,0.06,0.25
0,600,target,"[(1158, 795)]",[],[1],[0.6166666666666667],horizontal,"(890.0, 262.0)",0.9333333333333333,0.575,1,4682.171,1,0.06,0.25
0,601,target,"[(1148, 804)]",[],[1],[],horizontal,"(890.0, 262.0)",,"('cti', 1.138)",0,4687.162,0,0.08,0.25
0,602,target,"[(1155, 812)]",[],[1],[0.6666666666666666],horizontal,"(890.0, 762.0)",0.4,0.621,1,4691.741,1,0.08,0.25
0,603,target,"[(1157, 805)]",[],[1],[0.5333333333333333],vertical,"(390.0, 762.0)",0.7166666666666667,0.495,1,4696.622,1,0.08,0.25
0,604,catch,"[(1159, 794)]",[],[1],[],horizontal,"(890.0, 262.0)",,"('cti', 1.676),nan",0,4701.274,0,0.1,0.25
0,605,target,"[(1157, 834)]",[],[1],[0.65],vertical,"(890.0, 762.0)",0.8,0.61,1,4706.286,1,0.1,0.25
0,606,target,"[(1161, 803)]",[],[1],[0.48333333333333334],horizontal,"(890.0, 762.0)",0.8833333333333333,0.451,1,4716.244,1,0.08,0.25
0,607,target,"[(1151, 789)]",[],[1],[0.5166666666666666],vertical,"(390.0, 762.0)",0.5333333333333333,0.479,1,4721.289,1,0.08,0.25
0,608,target,"[(1161, 788)]",[],[1],[0.15],vertical,"(890.0, 762.0)",1.4,0.118,0,4725.572,0,0.08,0.25
0,609,catch,"[(1119, 794)]",[],[1],[],vertical,"(890.0, 262.0)",1.7,nan,1,4730.362,1,0.08,0.25
0,610,target,"[(1180, 804)]",[],[1],[0.23333333333333334],horizontal,"(890.0, 262.0)",1.1166666666666667,0.2,1,4735.892,1,0.08,0.25
0,611,target,"[(1158, 783)]",[],[1],[0.6333333333333333],vertical,"(890.0, 262.0)",1.1833333333333333,0.593,1,4741.122,1,0.08,0.25
0,612,catch,"[(1157, 792)]",[],[1],[],vertical,"(390.0, 262.0)",1.7,"('cti', 1.691),nan",0,4746.655,0,0.08,0.25
0,613,target,"[(1158, 825)]",[],[1],[0.55],horizontal,"(390.0, 262.0)",0.48333333333333334,0.51,1,4751.223,1,0.08,0.25
0,614,target,"[(1161, 798)]",[],[1],[0.5833333333333334],vertical,"(390.0, 762.0)",1.1833333333333333,0.542,1,4766.704,1,0.08,0.25
0,615,target,"[(1142, 792)]",[],[1],[0.5333333333333333],horizontal,"(390.0, 262.0)",0.4166666666666667,0.491,1,4771.807,1,0.08,0.25
0,616,catch,"[(1145, 831)]",[],[1],[],horizontal,"(390.0, 262.0)",,"('cti', 1.668),nan",0,4776.771,0,0.1,0.25
0,617,catch,"[(1143, 794)]",[],[1],[],vertical,"(890.0, 762.0)",1.7,nan,1,4781.849,1,0.1,0.25
0,618,target,"[(1155, 809)]",[],[1],[0.6],horizontal,"(390.0, 762.0)",0.75,0.557,1,4787.275,1,0.1,0.25
0,619,target,"[(1155, 817)]",[],[1],[0.5666666666666667],horizontal,"(390.0, 762.0)",0.4166666666666667,0.528,1,4792.172,1,0.1,0.25
0,620,catch,"[(1132, 789)]",[],[1],[],vertical,"(890.0, 762.0)",1.7,nan,1,4796.521,2,0.1,0.25
0,621,target,"[(1134, 795)]",[],[1],[0.5333333333333333],horizontal,"(390.0, 262.0)",0.5666666666666667,0.496,1,4802.248,2,0.1,0.25
0,622,catch,"[(1136, 791)]",[],[1],[],vertical,"(390.0, 262.0)",1.7,nan,1,4806.882,2,0.1,0.25
0,623,target,"[(1154, 793)]",[],[1],[0.5],vertical,"(390.0, 762.0)",0.9333333333333333,0.458,1,4812.596,2,0.1,0.25
0,624,target,"[(1158, 785)]",[],[1],[0.5333333333333333],vertical,"(390.0, 762.0)",0.8833333333333333,0.501,1,4817.817,3,0.1,0.25
0,625,target,"[(1161, 800)]",[],[1],[0.6333333333333333],horizontal,"(390.0, 762.0)",0.6,0.588,1,4823.618,3,0.1,0.25
0,626,target,"[(1155, 792)]",[],[1],[0.6],vertical,"(890.0, 762.0)",0.8666666666666667,0.562,1,4829.123,3,0.1,0.25
0,627,target,"[(1157, 790)]",[],[1],[0.85],horizontal,"(890.0, 262.0)",0.75,nan,0,4834.558,0,0.1,0.25
0,628,target,"[(1132, 783)]",[],[1],[0.5166666666666666],horizontal,"(390.0, 762.0)",1.0166666666666666,0.471,1,4839.098,1,0.1,0.25
0,629,target,"[(1136, 852)]",[],[1],[0.85],vertical,"(390.0, 262.0)",1.1833333333333333,nan,0,4844.41,0,0.1,0.25
0,630,target,"[(1125, 837)]",[],[1],[0.85],horizontal,"(890.0, 262.0)",0.8166666666666667,nan,0,7021.798,0,0.1,0.25
0,631,target,"[(1127, 826)]",[],[1],[0.6166666666666667],horizontal,"(390.0, 262.0)",0.43333333333333335,0.574,1,7026.489,1,0.1,0.25
0,632,target,"[(1136, 792)]",[],[1],[0.6],vertical,"(890.0, 762.0)",1.4,0.557,1,7031.014,1,0.1,0.25
0,633,target,"[(1162, 816)]",[],[1],[0.7333333333333333],horizontal,"(390.0, 762.0)",0.9333333333333333,0.685,1,7036.464,1,0.1,0.25
0,634,target,"[(1154, 817)]",[],[1],[0.85],vertical,"(890.0, 762.0)",1.0666666666666667,nan,0,7041.891,0,0.1,0.25
0,635,target,"[(1134, 806)]",[],[1],[0.85],vertical,"(890.0, 762.0)",1.0333333333333332,nan,0,7046.556,0,0.1,0.25
0,636,catch,"[(1166, 839)]",[],[1],[],vertical,"(390.0, 762.0)",1.7,nan,1,7051.379,1,0.1,0.25
0,637,target,"[(1155, 810)]",[],[1],"[0.85, 0.85]",vertical,"(890.0, 762.0)",1.15,"0.795,nan",0,7057.739,0,0.1,0.25
0,638,target,"[(1160, 784)]",[],[1],[0.5666666666666667],vertical,"(390.0, 762.0)",0.9333333333333333,0.519,1,7062.6,1,0.1,0.25
0,639,target,"[(1158, 808)]",[],[1],[0.85],vertical,"(390.0, 262.0)",0.6666666666666666,nan,0,7067.37,0,0.1,0.25
0,640,catch,"[(1162, 804)]",[],[1],[],vertical,"(890.0, 262.0)",1.7,nan,1,7071.649,1,0.1,0.25
0,641,catch,"[(1131, 799)]",[],[1],[],horizontal,"(390.0, 762.0)",1.7,nan,1,7076.818,1,0.1,0.25
0,642,target,"[(1158, 789)]",[],[1],[0.5],horizontal,"(890.0, 762.0)",0.9,0.457,1,7082.531,1,0.1,0.25
0,643,target,"[(1159, 819)]",[],[1],[0.7],vertical,"(890.0, 762.0)",0.7,0.655,1,7087.424,2,0.1,0.25
0,644,target,"[(1159, 788)]",[],[1],[0.6],vertical,"(390.0, 762.0)",1.2666666666666666,0.555,1,7092.432,2,0.1,0.25
0,645,catch,"[(1132, 782)]",[],[1],[],horizontal,"(390.0, 262.0)",1.7,nan,1,7098.116,2,0.1,0.25
0,646,target,"[(1155, 802)]",[],[1],[0.85],horizontal,"(390.0, 762.0)",0.5333333333333333,nan,0,7103.64,0,0.1,0.25
0,647,target,"[(1143, 823)]",[],[1],[0.7333333333333333],vertical,"(390.0, 762.0)",0.4,0.686,1,7108.319,1,0.08,0.25
0,648,target,"[(1158, 792)]",[],[1],[],horizontal,"(890.0, 762.0)",,"('cti', 0.18)",0,7113.396,0,0.1,0.25
0,649,target,"[(1125, 812)]",[],[1],[0.35],vertical,"(890.0, 762.0)",1.5333333333333332,0.31,1,7116.18,1,0.1,0.25
0,650,target,"[(1137, 793)]",[],[1],[0.7166666666666667],vertical,"(390.0, 262.0)",1.05,0.674,1,7121.903,1,0.1,0.25
0,651,catch,"[(1156, 799)]",[],[1],[],vertical,"(390.0, 762.0)",1.7,nan,1,7126.982,1,0.08,0.25
0,652,target,"[(1154, 782)]",[],[1],[0.5666666666666667],vertical,"(390.0, 262.0)",1.0333333333333332,0.526,1,7131.865,2,0.08,0.25
0,653,target,"[(1159, 788)]",[],[1],[0.7166666666666667],horizontal,"(890.0, 762.0)",0.5,0.676,1,7137.065,2,0.08,0.25
0,654,target,"[(1116, 792)]","[(1146, 838)]",[1],[0.2],vertical,"(390.0, 262.0)",,"('bar', 0.211)",0,7142.458,0,0.06,0.25
0,655,target,"[(1132, 816)]",[],[1],[0.6166666666666667],vertical,"(390.0, 262.0)",0.6666666666666666,0.575,1,7144.916,1,0.06,0.25
0,656,target,"[(1159, 779)]",[],[1],[0.55],horizontal,"(890.0, 262.0)",0.4166666666666667,0.515,1,7150.204,1,0.06,0.25
0,657,target,"[(1158, 797)]",[],[1],[0.75],vertical,"(890.0, 262.0)",0.5,0.703,1,7154.892,1,0.06,0.25
0,658,catch,"[(1181, 799)]",[],[1],[],horizontal,"(890.0, 762.0)",1.7,nan,1,7159.958,2,0.06,0.25
0,659,target,"[(1154, 793)]",[],[1],[0.5666666666666667],vertical,"(890.0, 262.0)",0.6,0.52,1,7165.515,2,0.06,0.25
0,660,target,"[(1147, 791)]",[],[1],[0.5666666666666667],horizontal,"(390.0, 262.0)",0.7333333333333333,0.531,1,7170.683,2,0.06,0.25
0,661,catch,"[(1160, 789)]",[],[1],[],horizontal,"(390.0, 262.0)",1.7,nan,1,7175.927,2,0.06,0.25
0,662,catch,"[(1170, 790)]",[],[1],[],horizontal,"(390.0, 762.0)",1.7,nan,1,7181.548,3,0.04,0.25
0,663,target,"[(1141, 793)]",[],[1],[0.85],horizontal,"(890.0, 262.0)",0.36666666666666664,nan,0,7187.682,0,0.04,0.25
0,664,target,"[(1076, 800), (1121, 821)]","[(1121, 821)]","[1, 1]",[0.11666666666666667],horizontal,"(890.0, 762.0)",,"('bar', 0.134)",0,7191.513,0,0.04,0.25
0,665,catch,"[(1158, 824)]","[(1131, 865)]",[1],[0.6166666666666667],horizontal,"(890.0, 762.0)",,"('bar', 0.624),nan",0,7195.77,0,0.06,0.25
0,666,target,"[(1117, 792)]",[],[1],[0.5333333333333333],horizontal,"(890.0, 262.0)",0.9333333333333333,0.494,1,7198.782,1,0.04,0.25
0,667,target,"[(1157, 787)]",[],[1],[0.6666666666666666],vertical,"(390.0, 262.0)",0.45,0.628,1,7204.002,1,0.04,0.25
0,668,target,"[(1155, 803)]",[],[1],[0.85],horizontal,"(390.0, 262.0)",0.9666666666666667,nan,0,7208.641,0,0.04,0.25
0,669,catch,"[(1162, 804)]",[],[1],[],horizontal,"(890.0, 762.0)",,"('cti', 1.095),nan",0,7213.594,0,0.06,0.25
0,670,target,"[(1142, 809)]",[],[1],[0.5],horizontal,"(390.0, 262.0)",1.15,0.464,1,7218.183,1,0.06,0.25
0,671,target,"[(1136, 796)]",[],[1],[],horizontal,"(390.0, 762.0)",,"('cti', 0.051)",0,7223.583,0,0.08,0.25
0,672,target,"[(1131, 821)]",[],[1],[0.85],vertical,"(390.0, 262.0)",0.7,nan,0,7226.965,0,0.08,0.25
0,673,target,"[(1157, 811)]",[],[1],[0.25],vertical,"(390.0, 262.0)",1.3333333333333333,0.216,1,7231.331,1,0.08,0.25
0,674,target,"[(1172, 781)]",[],[1],[0.4666666666666667],horizontal,"(390.0, 262.0)",1.3,0.425,1,7236.482,1,0.08,0.25
0,675,target,"[(1159, 786)]",[],[1],[0.7333333333333333],vertical,"(390.0, 762.0)",0.75,0.69,1,7241.95,1,0.08,0.25
0,676,target,"[(1191, 790)]",[],[1],[0.75],horizontal,"(390.0, 762.0)",0.7666666666666666,0.699,1,7246.682,2,0.08,0.25
0,677,catch,"[(1163, 799)]",[],[1],[],vertical,"(890.0, 262.0)",1.7,nan,1,7252.155,2,0.08,0.25
0,678,catch,"[(1158, 775)]",[],[1],[],vertical,"(390.0, 262.0)",,"('fix', 0.07),nan",0,7257.833,0,0.1,0.25
0,679,target,"[(1131, 817)]",[],[1],[],horizontal,"(390.0, 262.0)",,"('cti', 1.32)",0,7259.616,0,0.12,0.25
0,680,target,"[(1137, 820)]",[],[1],[0.85],vertical,"(890.0, 262.0)",0.35,nan,0,7264.056,0,0.12,0.25
0,681,target,"[(1149, 793)]",[],[1],[0.55],horizontal,"(890.0, 762.0)",1.4,0.503,1,7268.132,1,0.12,0.25
0,682,target,"[(1155, 790)]",[],[1],[0.5166666666666666],vertical,"(890.0, 262.0)",0.5666666666666667,0.473,1,7273.615,1,0.12,0.25
0,683,target,"[(1151, 774)]",[],[1],[0.45],vertical,"(890.0, 262.0)",1.3,0.408,1,7277.915,1,0.12,0.25
0,684,target,"[(1159, 807)]",[],[1],[0.7],vertical,"(390.0, 262.0)",0.7166666666666667,0.663,1,7283.566,2,0.12,0.25
0,685,target,"[(1158, 798)]",[],[1],[0.5833333333333334],vertical,"(890.0, 262.0)",1.0666666666666667,0.555,1,7289.415,2,0.12,0.25
0,686,target,"[(1158, 793)]",[],[1],[0.5],vertical,"(890.0, 262.0)",1.25,0.458,1,7295.05,2,0.12,0.25
0,687,target,"[(1159, 796)]",[],[1],[0.5666666666666667],horizontal,"(390.0, 762.0)",1.0166666666666666,0.528,1,7300.832,2,0.12,0.25
0,688,target,"[(1156, 793)]",[],[1],[0.3833333333333333],horizontal,"(390.0, 762.0)",1.3166666666666667,0.343,1,7306.058,3,0.12,0.25
0,689,target,"[(1158, 782)]",[],[1],[0.55],horizontal,"(390.0, 262.0)",0.8666666666666667,0.509,1,7312.416,3,0.12,0.25
0,690,target,"[(1155, 789)]",[],[1],[0.85],horizontal,"(890.0, 762.0)",0.6833333333333333,nan,0,7318.149,0,0.12,0.25
0,691,target,"[(1131, 795)]",[],[1],[0.5833333333333334],horizontal,"(890.0, 262.0)",1.0833333333333333,0.537,1,7322.338,1,0.12,0.25
0,692,catch,"[(1180, 787)]",[],[1],[],vertical,"(390.0, 262.0)",1.7,nan,1,7327.358,1,0.12,0.25
0,693,target,"[(1134, 769)]",[],[1],[0.5166666666666666],horizontal,"(390.0, 262.0)",0.7166666666666667,0.474,1,7332.832,1,0.12,0.25
0,694,target,"[(1177, 792)]",[],[1],[0.48333333333333334],vertical,"(390.0, 262.0)",1.05,0.439,1,7337.288,2,0.12,0.25
0,695,catch,"[(1159, 809)]",[],[1],[],vertical,"(890.0, 262.0)",1.7,nan,1,7342.993,2,0.12,0.25
0,696,target,"[(1163, 784)]",[],[1],[0.6166666666666667],horizontal,"(390.0, 262.0)",0.35,0.575,1,7348.399,2,0.12,0.25
0,697,target,"[(1166, 786)]",[],[1],[0.4166666666666667],vertical,"(890.0, 262.0)",1.4333333333333333,0.377,1,7352.981,2,0.12,0.25
0,698,target,"[(1163, 778)]",[],[1],[0.6666666666666666],vertical,"(390.0, 262.0)",0.7333333333333333,0.621,1,7358.604,3,0.1,0.25
0,699,target,"[(1136, 786)]",[],[1],[0.5333333333333333],horizontal,"(390.0, 262.0)",1.25,0.493,1,7364.376,3,0.1,0.25
0,700,target,"[(1179, 807)]",[],[1],[0.65],horizontal,"(890.0, 762.0)",1.15,0.607,1,7370.232,3,0.1,0.25
0,701,catch,"[(1161, 816)]",[],[1],[],horizontal,"(390.0, 762.0)",1.7,nan,1,7376.464,3,0.1,0.25
0,702,catch,"[(1175, 800)]",[],[1],[],horizontal,"(390.0, 262.0)",1.7,nan,1,7382.267,3,0.1,0.25
0,703,catch,"[(1165, 816)]",[],[1],[],vertical,"(890.0, 262.0)",1.7,nan,1,7388.189,3,0.1,0.25
0,704,target,"[(1173, 787)]",[],[1],[],horizontal,"(890.0, 762.0)",,"('fix', 0.083)",0,7394.595,0,0.1,0.25
0,705,target,"[(1136, 808)]",[],[1],[0.5833333333333334],vertical,"(390.0, 762.0)",0.85,0.539,1,7395.979,1,0.1,0.25
0,706,catch,"[(1162, 790)]",[],[1],[],vertical,"(390.0, 762.0)",1.7,nan,1,7401.339,1,0.1,0.25
0,707,target,"[(1167, 782)]",[],[1],[0.5833333333333334],horizontal,"(890.0, 762.0)",1.2,0.539,1,7406.346,1,0.1,0.25
0,708,catch,"[(1176, 786)]",[],[1],[],horizontal,"(390.0, 762.0)",1.7,nan,1,7411.866,2,0.1,0.25
0,709,target,"[(1175, 786)]",[],[1],[0.6],vertical,"(890.0, 762.0)",1.0166666666666666,0.553,1,7417.478,2,0.1,0.25
0,710,target,"[(1166, 777)]",[],[1],[0.7666666666666666],vertical,"(890.0, 762.0)",0.5833333333333334,0.715,1,7423.083,2,0.1,0.25
0,711,target,"[(1131, 781)]",[],[1],[0.5166666666666666],horizontal,"(890.0, 262.0)",0.8666666666666667,0.471,1,7428.319,2,0.1,0.25
0,712,target,"[(1160, 782)]",[],[1],[0.4166666666666667],horizontal,"(890.0, 762.0)",1.3333333333333333,0.377,1,7433.75,3,0.1,0.25
0,713,target,"[(1175, 809)]",[],[1],[0.5833333333333334],horizontal,"(390.0, 762.0)",1.3,0.536,1,7439.802,3,0.1,0.25
0,714,catch,"[(1166, 797)]",[],[1],[],horizontal,"(390.0, 762.0)",,"('cti', 1.602),nan",0,7445.489,0,0.12,0.25
0,715,target,"[(1151, 800)]",[],[1],[0.55],horizontal,"(390.0, 262.0)",1.45,0.505,1,7450.348,1,0.1,0.25
0,716,target,"[(1162, 788)]",[],[1],[0.5166666666666666],horizontal,"(390.0, 262.0)",0.35,0.471,1,7455.673,1,0.1,0.25
0,717,target,"[(1159, 788)]",[],[1],[0.6333333333333333],vertical,"(390.0, 262.0)",0.8,0.589,1,7459.903,1,0.1,0.25
0,718,target,"[(1156, 790)]",[],[1],[0.6],vertical,"(390.0, 262.0)",0.95,0.557,1,7465.015,2,0.1,0.25
0,719,target,"[(1169, 792)]",[],[1],[0.6333333333333333],vertical,"(390.0, 262.0)",0.6166666666666667,0.606,1,7470.457,2,0.08,0.25
0,720,target,"[(1177, 799)]",[],[1],[0.6],vertical,"(390.0, 762.0)",1.0166666666666666,0.559,1,7475.384,2,0.08,0.25
0,721,catch,"[(1160, 836)]",[],[1],[],vertical,"(890.0, 262.0)",,"('cti', 1.569),nan",0,7480.621,0,0.08,0.25
0,722,target,"[(1140, 797)]",[],[1],[0.5166666666666666],vertical,"(390.0, 762.0)",0.9,0.483,1,7486.312,1,0.08,0.25
0,723,catch,"[(1159, 802)]",[],[1],[],vertical,"(390.0, 262.0)",1.7,nan,1,7491.118,1,0.08,0.25
0,724,target,"[(1126, 794)]",[],[1],[0.8],horizontal,"(390.0, 262.0)",0.4,0.749,1,7496.417,1,0.08,0.25
0,725,target,"[(1163, 806)]",[],[1],[0.6333333333333333],vertical,"(890.0, 262.0)",1.0,0.588,1,7501.784,2,0.08,0.25
0,726,catch,"[(1150, 816)]",[],[1],[],horizontal,"(390.0, 762.0)",,"('cti', 1.64),nan",0,7507.551,0,0.1,0.25
0,727,catch,"[(1163, 790)]",[],[1],[],vertical,"(890.0, 762.0)",1.7,nan,1,7512.767,1,0.1,0.25
0,728,target,"[(1159, 793)]",[],[1],[0.5333333333333333],vertical,"(890.0, 262.0)",0.9,0.493,1,7518.458,1,0.08,0.25
0,729,target,"[(1163, 788)]",[],[1],"[0.85, 0.85]",horizontal,"(890.0, 762.0)",0.5833333333333334,"0.8,nan",0,7523.273,0,0.06,0.25
0,730,target,"[(1165, 794)]",[],[1],[0.5833333333333334],horizontal,"(390.0, 262.0)",1.25,0.542,1,7527.4,1,0.06,0.25
0,731,catch,"[(1157, 828)]",[],[1],[],horizontal,"(890.0, 762.0)",1.7,nan,1,7532.917,1,0.06,0.25
0,732,target,"[(1159, 786)]",[],[1],[0.6],vertical,"(890.0, 262.0)",1.1,0.556,1,7540.732,1,0.06,0.25
0,733,target,"[(1164, 812)]",[],[1],[0.4666666666666667],vertical,"(390.0, 262.0)",1.4333333333333333,0.423,1,7545.95,2,0.06,0.25
0,734,target,"[(1128, 824)]",[],[1],[0.5833333333333334],horizontal,"(390.0, 262.0)",1.1,0.536,1,7551.886,2,0.06,0.25
0,735,target,"[(1176, 803)]",[],[1],[0.85],vertical,"(890.0, 762.0)",0.5333333333333333,nan,0,7557.832,0,0.06,0.25
0,736,target,"[(1131, 792)]",[],[1],[0.55],horizontal,"(390.0, 262.0)",0.95,0.509,1,7562.432,1,0.06,0.25
0,737,target,"[(1166, 777)]",[],[1],[0.55],horizontal,"(390.0, 762.0)",1.1666666666666667,0.504,1,7567.601,1,0.06,0.25
0,738,target,"[(1174, 793)]",[],[1],[0.5],vertical,"(890.0, 762.0)",1.0833333333333333,0.458,1,7572.883,1,0.06,0.25
0,739,target,"[(1175, 784)]",[],[1],[0.5333333333333333],vertical,"(390.0, 262.0)",0.35,0.497,1,7578.05,2,0.06,0.25
0,740,target,"[(1144, 786)]",[],[1],[0.3333333333333333],vertical,"(890.0, 762.0)",1.4833333333333334,0.296,1,7582.798,2,0.06,0.25
0,741,target,"[(1175, 802)]",[],[1],[0.6],horizontal,"(390.0, 762.0)",1.1833333333333333,0.555,1,7588.399,2,0.06,0.25
0,742,target,"[(1175, 808)]",[],[1],[0.5333333333333333],vertical,"(890.0, 262.0)",0.9166666666666666,0.494,1,7593.911,2,0.06,0.25
0,743,target,"[(1175, 785)]",[],[1],[0.5833333333333334],vertical,"(890.0, 262.0)",0.9666666666666667,0.542,1,7598.962,3,0.06,0.25
0,744,target,"[(1137, 804)]",[],[1],[0.5333333333333333],vertical,"(390.0, 762.0)",0.95,0.495,1,7604.933,3,0.06,0.25
0,745,target,"[(1160, 831)]",[],[1],[0.85],horizontal,"(390.0, 262.0)",0.5666666666666667,nan,0,7611.332,0,0.06,0.25
0,746,target,"[(1131, 808)]",[],[1],[0.48333333333333334],vertical,"(890.0, 762.0)",0.6166666666666667,0.445,1,7620.415,1,0.06,0.25
0,747,catch,"[(1148, 828)]",[],[1],[],vertical,"(890.0, 262.0)",1.7,nan,1,7625.796,1,0.06,0.25
0,748,target,"[(1160, 803)]",[],[1],[0.5166666666666666],vertical,"(890.0, 262.0)",1.0,0.474,1,7631.483,1,0.06,0.25
0,749,target,"[(1155, 835)]",[],[1],[0.5666666666666667],vertical,"(890.0, 262.0)",1.2166666666666666,0.525,1,7636.717,2,0.06,0.25
0,750,target,"[(1139, 853)]",[],[1],[0.5666666666666667],horizontal,"(890.0, 262.0)",1.1,0.522,1,7643.34,2,0.06,0.25
0,751,catch,"[(1159, 803)]",[],[1],[],vertical,"(890.0, 262.0)",1.7,nan,1,7649.035,2,0.06,0.25
0,752,catch,"[(1175, 770)]",[],[1],[0.03333333333333333],vertical,"(890.0, 762.0)",1.7,"0.019,nan",0,7654.657,0,0.08,0.25
0,753,target,"[(1136, 788)]",[],[1],[0.5166666666666666],vertical,"(390.0, 262.0)",0.8,0.473,1,7659.634,1,0.08,0.25
0,754,catch,"[(1160, 784)]",[],[1],[],vertical,"(890.0, 262.0)",1.7,nan,1,7664.419,1,0.08,0.25
0,755,catch,"[(1166, 786)]",[],[1],[],horizontal,"(390.0, 762.0)",1.7,nan,1,7670.226,1,0.08,0.25
0,756,target,"[(1155, 776)]",[],[1],[0.55],horizontal,"(390.0, 762.0)",0.8333333333333334,0.515,1,7675.218,2,0.08,0.25
0,757,target,"[(1162, 813)]",[],[1],[0.5666666666666667],horizontal,"(890.0, 262.0)",1.05,0.527,1,7680.384,2,0.08,0.25
0,758,target,"[(1159, 782)]",[],[1],[0.4],horizontal,"(390.0, 262.0)",1.4666666666666666,0.358,1,7686.636,2,0.08,0.25
0,759,target,"[(1176, 787)]",[],[1],[0.45],horizontal,"(390.0, 762.0)",1.3666666666666667,0.41,1,7692.334,2,0.08,0.25
0,760,target,"[(1158, 791)]",[],[1],[0.7],horizontal,"(890.0, 262.0)",0.5,0.658,1,7698.551,3,0.08,0.25
0,761,target,"[(1160, 807)]",[],[1],[0.5333333333333333],horizontal,"(390.0, 262.0)",0.3833333333333333,0.493,1,7703.844,3,0.08,0.25
0,762,catch,"[(1175, 782)]",[],[1],[],horizontal,"(390.0, 762.0)",,"('cti', 1.68),nan",0,7709.409,0,0.1,0.25
0,763,target,"[(1137, 806)]",[],[1],[0.7666666666666666],horizontal,"(890.0, 262.0)",0.4,0.719,1,7714.578,1,0.1,0.25
0,764,target,"[(1163, 799)]",[],[1],[0.5666666666666667],vertical,"(390.0, 762.0)",0.6333333333333333,0.524,1,7719.451,1,0.08,0.25
0,765,catch,"[(1157, 777)]",[],[1],[],horizontal,"(390.0, 262.0)",1.7,nan,1,7724.005,1,0.08,0.25
0,766,target,"[(1155, 806)]",[],[1],[0.5833333333333334],horizontal,"(390.0, 762.0)",0.8666666666666667,0.542,1,7729.576,2,0.08,0.25
0,767,target,"[(1154, 791)]",[],[1],[0.75],vertical,"(390.0, 262.0)",1.2166666666666666,0.703,1,7735.505,2,0.08,0.25
0,768,target,"[(1156, 799)]",[],[1],[0.65],horizontal,"(390.0, 262.0)",0.6166666666666667,0.609,1,7741.117,2,0.08,0.25
0,769,target,"[(1156, 803)]",[],[1],[0.85],vertical,"(390.0, 262.0)",0.9166666666666666,nan,0,7746.068,0,0.08,0.25
0,770,target,"[(1148, 795)]",[],[1],[0.5333333333333333],horizontal,"(390.0, 262.0)",0.6833333333333333,0.495,1,7750.534,1,0.08,0.25
0,771,target,"[(1152, 809)]",[],[1],[0.85],horizontal,"(390.0, 762.0)",1.4666666666666666,nan,0,7755.264,0,0.06,0.25
0,772,target,"[(1157, 789)]",[],[1],[0.75],vertical,"(390.0, 762.0)",1.1166666666666667,0.699,1,7760.972,1,0.06,0.25
0,773,catch,"[(1157, 780)]",[],[1],[],horizontal,"(390.0, 262.0)",1.7,nan,1,7766.587,1,0.06,0.25
0,774,catch,"[(1151, 793)]",[],[1],[],horizontal,"(890.0, 262.0)",1.7,nan,1,7771.651,1,0.06,0.25
0,775,target,"[(1146, 785)]",[],[1],[0.6166666666666667],horizontal,"(890.0, 262.0)",0.8833333333333333,0.575,1,7776.701,2,0.06,0.25
0,776,target,"[(1155, 816)]",[],[1],[0.6333333333333333],horizontal,"(890.0, 762.0)",1.2666666666666666,0.594,1,7782.152,2,0.04,0.25
0,777,target,"[(1122, 802)]",[],[1],[0.6833333333333333],horizontal,"(890.0, 262.0)",1.2833333333333332,0.638,1,7788.485,2,0.04,0.25
0,778,target,"[(1158, 800)]",[],[1],[0.5166666666666666],vertical,"(890.0, 762.0)",0.43333333333333335,0.474,1,7794.762,2,0.04,0.25
0,779,catch,"[(1157, 800)]",[],[1],[],horizontal,"(390.0, 262.0)",1.7,nan,1,7799.384,3,0.04,0.25
0,780,target,"[(1175, 787)]",[],[1],[0.55],horizontal,"(890.0, 262.0)",0.7166666666666667,0.506,1,7805.167,3,0.04,0.25
0,781,target,"[(1175, 796)]",[],[1],[0.7166666666666667],horizontal,"(390.0, 762.0)",1.0,0.673,1,7810.942,3,0.04,0.25
0,782,catch,"[(1159, 782)]",[],[1],[],horizontal,"(890.0, 262.0)",,"('cti', 1.63),nan",0,7817.138,0,0.06,0.25
0,783,catch,"[(1155, 798)]",[],[1],[],vertical,"(390.0, 762.0)",1.7,nan,1,7822.069,1,0.06,0.25
0,784,target,"[(1158, 778)]",[],[1],[0.55],horizontal,"(390.0, 262.0)",0.36666666666666664,0.509,1,7827.759,1,0.06,0.25
0,785,target,"[(1134, 778)]",[],[1],[0.6666666666666666],vertical,"(890.0, 262.0)",0.5333333333333333,0.621,1,7832.028,1,0.06,0.25
0,786,catch,"[(1161, 782)]",[],[1],[],horizontal,"(890.0, 762.0)",1.7,nan,1,7836.884,2,0.06,0.25
0,787,target,"[(1156, 797)]",[],[1],[0.85],vertical,"(390.0, 262.0)",1.3333333333333333,nan,0,7842.784,0,0.06,0.25
0,788,target,"[(1129, 795)]",[],[1],[0.6166666666666667],horizontal,"(390.0, 762.0)",0.75,0.572,1,7847.711,1,0.06,0.25
0,789,target,"[(1133, 820)]",[],[1],[0.5166666666666666],vertical,"(390.0, 762.0)",1.35,0.471,1,7852.802,1,0.06,0.25
0,790,catch,"[(1166, 787)]",[],[1],[0.03333333333333333],horizontal,"(890.0, 762.0)",1.7,"0.019,nan",0,7858.351,0,0.08,0.25
0,791,target,"[(1154, 804)]",[],[1],[0.85],vertical,"(890.0, 762.0)",0.7666666666666666,nan,0,7863.053,0,0.08,0.25
0,792,catch,"[(1131, 798)]",[],[1],[],vertical,"(890.0, 762.0)",1.7,nan,1,7867.803,1,0.08,0.25
0,793,target,"[(1159, 786)]",[],[1],[0.5166666666666666],vertical,"(390.0, 262.0)",0.9833333333333333,0.475,1,7873.334,1,0.08,0.25
0,794,target,"[(1155, 794)]",[],[1],[0.55],vertical,"(390.0, 762.0)",0.85,0.51,1,7877.817,1,0.08,0.25
0,795,target,"[(1165, 806)]",[],[1],[0.6333333333333333],vertical,"(890.0, 762.0)",0.8,0.589,1,7882.484,2,0.08,0.25
0,796,catch,"[(1159, 798)]",[],[1],[],vertical,"(390.0, 762.0)",1.7,nan,1,7888.353,2,0.08,0.25
0,797,target,"[(1159, 804)]",[],[1],[0.4],horizontal,"(890.0, 762.0)",1.4333333333333333,0.363,1,7893.733,2,0.08,0.25
0,798,target,"[(1158, 795)]",[],[1],[0.6166666666666667],vertical,"(390.0, 762.0)",1.2166666666666666,0.571,1,7899.744,2,0.08,0.25
0,799,catch,"[(1161, 805)]",[],[1],[],vertical,"(890.0, 262.0)",1.7,nan,1,7905.629,3,0.08,0.25
0,800,target,"[(1165, 792)]",[],[1],[0.5833333333333334],vertical,"(890.0, 762.0)",0.6166666666666667,0.541,1,7912.108,3,0.08,0.25
0,801,catch,"[(1161, 797)]",[],[1],[],horizontal,"(890.0, 262.0)",1.7,nan,1,7917.979,3,0.08,0.25
0,802,target,"[(1157, 773)]",[],[1],[0.5166666666666666],vertical,"(390.0, 762.0)",1.3166666666666667,0.479,1,7923.7,3,0.06,0.25
0,803,target,"[(1157, 768)]",[],[1],[0.85],horizontal,"(890.0, 762.0)",0.5833333333333334,nan,0,7929.956,0,0.06,0.25
0,804,target,"[(1116, 812)]",[],[1],[0.55],vertical,"(390.0, 762.0)",1.5,0.509,1,7934.425,1,0.06,0.25
0,805,target,"[(1156, 792)]",[],[1],[0.5],vertical,"(390.0, 262.0)",0.5,0.457,1,7940.018,1,0.06,0.25
0,806,target,"[(1134, 790)]",[],[1],[0.5],vertical,"(390.0, 262.0)",1.25,0.46,1,7944.417,1,0.06,0.25
0,807,target,"[(1132, 782)]",[],[1],[0.5333333333333333],horizontal,"(390.0, 762.0)",1.25,0.491,1,7949.402,2,0.06,0.25
0,808,target,"[(1158, 786)]",[],[1],[0.85],horizontal,"(390.0, 262.0)",0.8333333333333334,nan,0,7954.954,0,0.06,0.25
0,809,target,"[(1136, 789)]",[],[1],[0.5333333333333333],vertical,"(890.0, 262.0)",1.1,0.492,1,7959.352,1,0.06,0.25
0,810,target,"[(1146, 790)]",[],[1],[0.8],vertical,"(890.0, 762.0)",0.6666666666666666,0.759,1,7964.406,1,0.06,0.25
0,811,target,"[(1175, 798)]",[],[1],[0.6],vertical,"(890.0, 762.0)",1.15,0.553,1,7969.653,1,0.06,0.25
0,812,target,"[(1175, 794)]",[],[1],[0.6833333333333333],horizontal,"(890.0, 262.0)",1.1,0.643,1,7974.904,2,0.04,0.25
0,813,target,"[(1172, 800)]",[],[1],[0.31666666666666665],horizontal,"(390.0, 762.0)",1.5,0.283,1,7980.819,2,0.04,0.25
0,814,target,"[(1165, 791)]",[],[1],[0.43333333333333335],horizontal,"(890.0, 262.0)",1.3666666666666667,0.4,1,7986.687,2,0.04,0.25
0,815,catch,"[(1158, 778)]",[],[1],[],vertical,"(390.0, 762.0)",1.7,nan,1,7992.315,2,0.04,0.25
0,816,target,"[(1126, 807)]",[],[1],[0.5166666666666666],horizontal,"(890.0, 762.0)",1.5,0.472,1,7997.519,3,0.04,0.25
0,817,target,"[(1157, 802)]",[],[1],[0.5666666666666667],horizontal,"(890.0, 262.0)",0.8,0.525,1,8004.25,3,0.04,0.25
0,818,target,"[(1158, 795)]",[],[1],[0.6333333333333333],vertical,"(890.0, 262.0)",0.3833333333333333,0.591,1,8009.889,3,0.04,0.25
0,819,target,"[(1159, 810)]",[],[1],[0.85],horizontal,"(390.0, 262.0)",0.7166666666666667,nan,0,8015.124,0,0.04,0.25
0,820,target,"[(1116, 784)]",[],[1],[0.4666666666666667],vertical,"(890.0, 262.0)",1.2666666666666666,0.43,1,8019.67,1,0.04,0.25
0,821,target,"[(1154, 797)]",[],[1],[0.25],horizontal,"(890.0, 262.0)",1.4,0.22,1,8025.094,1,0.04,0.25
0,822,target,"[(1158, 804)]",[],[1],[0.6166666666666667],horizontal,"(890.0, 762.0)",0.9833333333333333,0.573,1,8030.444,1,0.04,0.25
0,823,catch,"[(1122, 790)]",[],[1],[],horizontal,"(390.0, 262.0)",,"('cti', 1.574),nan",0,8035.567,0,0.06,0.25
0,824,target,"[(1129, 857)]",[],[1],[0.55],horizontal,"(890.0, 262.0)",1.2166666666666666,0.511,1,8063.589,1,0.06,0.25
0,825,target,"[(1160, 799)]",[],[1],[0.7],vertical,"(390.0, 762.0)",0.7833333333333333,0.653,1,8071.272,1,0.06,0.25
0,826,target,"[(1160, 799)]",[],[1],[0.85],horizontal,"(390.0, 262.0)",0.8666666666666667,nan,0,8076.559,0,0.06,0.25
0,827,target,"[(1141, 799)]",[],[1],[0.5666666666666667],horizontal,"(890.0, 262.0)",0.6166666666666667,0.524,1,8081.403,1,0.06,0.25
0,828,target,"[(1137, 786)]",[],[1],[0.48333333333333334],horizontal,"(890.0, 262.0)",0.55,0.442,1,8085.999,1,0.06,0.25
0,829,target,"[(1175, 794)]",[],[1],[0.5333333333333333],vertical,"(390.0, 262.0)",0.5166666666666666,0.49,1,8090.552,1,0.06,0.25
0,830,catch,"[(1159, 795)]",[],[1],[],horizontal,"(390.0, 762.0)",1.7,nan,1,8095.352,2,0.06,0.25
0,831,catch,"[(1160, 780)]",[],[1],[],horizontal,"(390.0, 762.0)",1.7,nan,1,8100.885,2,0.06,0.25
0,832,target,"[(1166, 786)]",[],[1],[0.5666666666666667],vertical,"(390.0, 262.0)",0.9333333333333333,0.528,1,8106.426,2,0.04,0.25
0,833,target,"[(1158, 784)]",[],[1],[0.5666666666666667],horizontal,"(390.0, 762.0)",1.35,0.53,1,8111.485,2,0.04,0.25
0,834,target,"[(1152, 801)]",[],[1],[0.65],vertical,"(890.0, 262.0)",1.0833333333333333,0.604,1,8117.387,3,0.04,0.25
0,835,target,"[(1158, 817)]",[],[1],[0.6666666666666666],vertical,"(390.0, 762.0)",0.65,0.619,1,8123.62,3,0.04,0.25
0,836,target,"[(1163, 795)]",[],[1],[0.5],horizontal,"(890.0, 262.0)",0.4166666666666667,0.457,1,8129.644,3,0.04,0.25
0,837,catch,"[(1136, 792)]",[],[1],[],vertical,"(890.0, 762.0)",1.7,nan,1,8134.552,3,0.04,0.25
0,838,target,"[(1113, 798)]",[],[1],[0.55],vertical,"(890.0, 762.0)",1.0,0.505,1,8140.404,3,0.04,0.25
0,839,target,"[(1156, 788)]",[],[1],[0.5833333333333334],horizontal,"(890.0, 262.0)",1.2666666666666666,0.539,1,8146.07,3,0.04,0.25
0,840,target,"[(1164, 794)]",[],[1],[0.31666666666666665],horizontal,"(390.0, 262.0)",1.4,0.281,1,8151.763,3,0.02,0.25
0,841,target,"[(1137, 786)]",[],[1],[0.31666666666666665],horizontal,"(390.0, 262.0)",1.5,0.283,1,8157.695,3,0.02,0.25
0,842,catch,"[(1141, 786)]",[],[1],[],horizontal,"(890.0, 262.0)",1.7,nan,1,8163.512,3,0.02,0.25
0,843,target,"[(1126, 819)]",[],[1],[0.5333333333333333],horizontal,"(390.0, 262.0)",0.9666666666666667,0.49,1,8169.869,3,0.02,0.25
0,844,target,"[(1160, 789)]",[],[1],[0.85],vertical,"(390.0, 762.0)",0.3833333333333333,nan,0,8175.778,0,0.02,0.25
0,845,target,"[(1146, 797)]",[],[1],[0.5833333333333334],vertical,"(390.0, 262.0)",1.0833333333333333,0.545,1,8180.335,1,0.02,0.25
0,846,target,"[(1158, 783)]",[],[1],[0.85],vertical,"(390.0, 762.0)",0.8666666666666667,nan,0,8185.703,0,0.02,0.25
0,847,target,"[(1126, 804)]",[],[1],[0.31666666666666665],horizontal,"(890.0, 762.0)",1.5,0.282,1,8190.815,1,0.02,0.25
0,848,catch,"[(1144, 783)]",[],[1],[],horizontal,"(890.0, 262.0)",1.7,nan,1,8201.853,1,0.02,0.25
0,849,catch,"[(1156, 809)]",[],[1],[],vertical,"(390.0, 762.0)",1.7,nan,1,8207.388,1,0.02,0.25
0,850,catch,"[(1166, 792)]",[],[1],[],horizontal,"(890.0, 762.0)",1.7,nan,1,8213.052,2,0.02,0.25
0,851,target,"[(1160, 802)]",[],[1],[0.6333333333333333],horizontal,"(890.0, 762.0)",0.8833333333333333,0.586,1,8218.419,2,0.02,0.25
0,852,target,"[(1154, 802)]",[],[1],[0.5833333333333334],vertical,"(390.0, 262.0)",0.5,0.541,1,8224.054,2,0.02,0.25
0,853,target,"[(1155, 781)]",[],[1],[0.2833333333333333],vertical,"(890.0, 262.0)",1.2,0.248,1,8229.077,2,0.02,0.25
0,854,target,"[(1156, 794)]",[],[1],[0.6333333333333333],horizontal,"(890.0, 762.0)",0.9666666666666667,0.587,1,8234.734,3,0.02,0.25
0,855,target,"[(1134, 791)]",[],[1],[0.5333333333333333],horizontal,"(390.0, 262.0)",1.0333333333333332,0.488,1,8240.703,3,0.02,0.25
0,856,catch,"[(1136, 785)]",[],[1],[],vertical,"(390.0, 262.0)",1.7,nan,1,8246.554,3,0.02,0.25
0,857,catch,"[(1154, 778)]",[],[1],[],vertical,"(890.0, 262.0)",1.7,nan,1,8252.782,3,0.02,0.25
0,858,target,"[(1136, 782)]",[],[1],[0.48333333333333334],vertical,"(890.0, 262.0)",0.5,0.442,1,8258.437,3,0.02,0.25
0,859,target,"[(1157, 787)]",[],[1],[0.5166666666666666],vertical,"(890.0, 762.0)",0.5333333333333333,0.479,1,8263.373,3,0.02,0.25
0,860,target,"[(1151, 794)]",[],[1],[0.5666666666666667],vertical,"(890.0, 762.0)",1.1,0.521,1,8268.721,3,0.02,0.25
0,861,catch,"[(1155, 780)]",[],[1],[],horizontal,"(390.0, 262.0)",1.7,nan,1,8274.892,3,0.02,0.25
0,862,target,"[(1144, 765)]",[],[1],[0.5666666666666667],vertical,"(390.0, 762.0)",0.8833333333333333,0.525,1,8280.736,3,0.02,0.25
0,863,target,"[(1163, 812)]",[],[1],[0.48333333333333334],horizontal,"(890.0, 262.0)",1.2333333333333334,0.443,1,8286.343,3,0.02,0.25
0,864,target,"[(1165, 797)]",[],[1],[0.5166666666666666],vertical,"(890.0, 762.0)",0.85,0.478,1,8292.549,3,0.02,0.25
0,865,target,"[(1160, 778)]",[],[1],[0.5166666666666666],vertical,"(390.0, 262.0)",0.48333333333333334,0.476,1,8298.484,3,0.02,0.25
0,866,target,"[(1170, 773)]",[],[1],[0.85],horizontal,"(390.0, 762.0)",0.4666666666666667,nan,0,8303.686,0,0.02,0.25
0,867,catch,"[(1124, 798)]",[],[1],[],vertical,"(390.0, 762.0)",1.7,nan,1,8307.819,1,0.02,0.25
0,868,catch,"[(1157, 780)]",[],[1],[],vertical,"(890.0, 262.0)",1.7,nan,1,8313.367,1,0.02,0.25
0,869,target,"[(1157, 775)]",[],[1],[0.6],horizontal,"(890.0, 262.0)",0.7833333333333333,0.552,1,8318.353,1,0.02,0.25
0,870,target,"[(1141, 784)]",[],[1],[0.55],vertical,"(890.0, 762.0)",0.3833333333333333,0.504,1,8322.914,2,0.02,0.25
