block,trial,trial_type,taps_start_loc_during_fix,taps_end_loc_during_fix,taps_on_lever_during_fix,taps_on_lever_s_during_fix,bar_orientation,target_xy,cti,rt,acc,time,pulses
0,1,target,"[(1008, 827)]",[],[1],[0.85],horizontal,"(390.0, 762.0)",1.3666666666666667,nan,0,0.526,0
0,2,target,"[(1059, 818)]",[],[1],[0.85],horizontal,"(890.0, 262.0)",1.4333333333333333,nan,0,55.882,0
0,3,target,"[(1146, 840)]",[],[1],[0.36666666666666664],horizontal,"(890.0, 262.0)",0.9666666666666667,0.33,1,63.205,1
0,4,catch,"[(838, 687), (767, 622), (815, 839), (883, 697), (759, 633), (1071, 841)]",[],"[0, 0, 0, 0, 0, 1]",[],vertical,"(890.0, 762.0)",1.4666666666666666,nan,1,82.568,1
0,5,target,"[(1061, 816)]",[],[1],[0.5833333333333334],horizontal,"(890.0, 762.0)",0.65,0.54,1,129.337,1
0,6,target,"[(1079, 798)]",[],[1],[0.85],horizontal,"(890.0, 762.0)",1.3833333333333333,nan,0,133.819,0
0,7,target,"[(1065, 821)]",[],[1],[0.75],vertical,"(890.0, 762.0)",0.9666666666666667,0.724,1,139.421,1
0,8,target,"[(1086, 817)]",[],[1],[0.6],vertical,"(390.0, 762.0)",1.4833333333333334,0.57,1,144.486,1
0,9,target,"[(1083, 790)]",[],[1],[0.5666666666666667],vertical,"(390.0, 262.0)",0.6166666666666667,0.53,1,150.249,1
0,10,target,"[(1086, 790)]",[],[1],[0.85],vertical,"(890.0, 762.0)",0.6833333333333333,nan,0,154.791,0
0,11,target,"[(1064, 811)]",[],[1],[],vertical,"(390.0, 762.0)",,"('cti', 1.48)",0,159.93,0
0,12,catch,"[(975, 726), (1071, 819)]",[],"[0, 1]",[],horizontal,"(890.0, 762.0)",1.5833333333333333,nan,1,164.722,1
0,13,target,"[(1071, 817)]",[],[1],[0.85],vertical,"(890.0, 762.0)",1.3666666666666667,nan,0,174.206,0
0,14,target,"[(1075, 810)]",[],[1],[0.6833333333333333],horizontal,"(890.0, 762.0)",1.0833333333333333,0.633,1,179.698,1
0,15,target,"[(1080, 800)]",[],[1],[0.85],vertical,"(390.0, 762.0)",0.8333333333333334,nan,0,185.424,0
0,16,target,"[(1065, 832)]",[],[1],[0.3333333333333333],vertical,"(890.0, 262.0)",1.4333333333333333,0.292,1,190.237,1
0,17,target,"[(1075, 790)]",[],[1],[0.6333333333333333],vertical,"(390.0, 762.0)",0.9333333333333333,0.586,1,197.586,1
0,18,target,"[(1077, 819)]",[],[1],[0.85],horizontal,"(890.0, 762.0)",1.0,nan,0,202.807,0
0,19,target,"[(690, 738), (703, 737), (776, 964), (772, 970), (774, 971), (777, 816), (772, 822), (885, 886), (523, 181), (615, 663), (1035, 855)]",[],"[0, 0, 0, 0, 0, 0, 0, 0, 0, 0, 1]",[0.6333333333333333],horizontal,"(890.0, 762.0)",0.5333333333333333,0.588,1,207.942,1
0,20,catch,"[(1074, 829)]",[],[1],[],vertical,"(390.0, 762.0)",1.5,nan,1,276.693,1
0,21,target,"[(1072, 846)]",[],[1],[0.85],vertical,"(890.0, 262.0)",0.7166666666666667,nan,0,281.405,0
0,22,target,"[(1062, 818)]",[],[1],[0.6833333333333333],vertical,"(390.0, 262.0)",1.2166666666666666,0.644,1,286.48,1
0,23,target,"[(1076, 799)]",[],[1],[0.65],horizontal,"(890.0, 262.0)",0.7,0.602,1,291.539,1
0,24,target,"[(1076, 769)]",[],[1],[0.6166666666666667],horizontal,"(390.0, 262.0)",1.6,0.567,1,296.191,1
0,25,target,"[(1079, 816)]",[],[1],[0.8],horizontal,"(390.0, 762.0)",0.9833333333333333,0.75,1,301.83,2
0,26,target,"[(1080, 802)]",[],[1],[0.5],vertical,"(390.0, 262.0)",0.6,0.463,1,306.943,2
0,27,target,"[(1076, 796)]",[],[1],"[0.85, 0.85]",horizontal,"(390.0, 762.0)",0.7,"0.803,nan",0,312.326,0
0,28,target,"[(1065, 801)]",[],[1],[0.85],vertical,"(890.0, 762.0)",0.8,nan,0,316.724,0
0,29,target,"[(1077, 802)]",[],[1],[0.85],vertical,"(890.0, 762.0)",0.7666666666666666,nan,0,321.307,0
0,30,target,"[(1076, 805)]",[],[1],[0.43333333333333335],vertical,"(890.0, 762.0)",1.5,0.392,1,326.073,1
0,31,catch,"[(1060, 782)]",[],[1],[],vertical,"(890.0, 762.0)",1.7,nan,1,330.99,1
0,32,target,"[(1077, 806)]",[],[1],[0.5166666666666666],horizontal,"(890.0, 262.0)",1.35,0.473,1,335.904,1
0,33,target,"[(1075, 775)]",[],[1],[0.65],vertical,"(390.0, 762.0)",1.45,0.608,1,341.334,2
0,34,target,"[(1022, 786)]",[],[1],[0.85],horizontal,"(390.0, 762.0)",1.0,nan,0,347.004,0
0,35,target,"[(1069, 806)]",[],[1],[0.75],vertical,"(390.0, 262.0)",1.1333333333333333,0.706,1,351.827,1
0,36,target,"[(1075, 786)]",[],[1],[0.5833333333333334],horizontal,"(890.0, 762.0)",1.35,0.539,1,357.924,1
0,37,target,"[(1077, 778)]",[],[1],[0.6333333333333333],horizontal,"(390.0, 762.0)",0.5666666666666667,0.587,1,363.289,1
0,38,target,"[(1080, 782)]",[],[1],[],horizontal,"(890.0, 262.0)",,"('cti', 1.009)",0,368.173,0
0,39,target,"[(1058, 790)]",[],[1],[0.6833333333333333],horizontal,"(390.0, 762.0)",1.0833333333333333,0.647,1,372.538,1
0,40,target,"[(1066, 770)]",[],[1],[0.6833333333333333],vertical,"(890.0, 762.0)",1.2666666666666666,0.648,1,377.521,1
0,41,target,"[(1068, 815)]",[],[1],[0.7166666666666667],vertical,"(390.0, 762.0)",1.1333333333333333,0.682,1,382.931,1
0,42,target,"[(1086, 776)]",[],[1],[0.6],horizontal,"(390.0, 262.0)",0.9833333333333333,0.569,1,388.874,2
0,43,target,"[(1098, 778)]",[],[1],[0.6333333333333333],horizontal,"(390.0, 762.0)",1.15,0.6,1,394.238,2
0,44,target,"[(1093, 774)]",[],[1],[],horizontal,"(890.0, 262.0)",,"('cti', 1.274)",0,399.898,0
0,45,target,"[(1077, 801)]",[],[1],[0.6],horizontal,"(390.0, 762.0)",0.55,0.57,1,404.168,1
0,46,target,"[(1077, 801)]",[],[1],[0.5333333333333333],vertical,"(890.0, 262.0)",0.6,0.494,1,408.664,1
0,47,target,"[(1062, 791)]",[],[1],[0.6],vertical,"(390.0, 262.0)",0.8666666666666667,0.566,1,412.871,1
0,48,target,"[(1033, 801)]",[],[1],[0.6333333333333333],horizontal,"(890.0, 762.0)",1.05,0.606,1,418.425,2
0,49,target,"[(1081, 781)]",[],[1],[0.3333333333333333],vertical,"(390.0, 262.0)",1.6333333333333333,0.303,1,423.995,2
0,50,target,"[(1081, 783)]",[],[1],[0.85],horizontal,"(390.0, 762.0)",1.5166666666666666,nan,0,429.442,0
0,51,catch,"[(1075, 800)]",[],[1],[],horizontal,"(390.0, 262.0)",1.4666666666666666,nan,1,434.495,1
0,52,target,"[(1081, 773)]",[],[1],[0.5333333333333333],horizontal,"(390.0, 762.0)",1.5333333333333332,0.491,1,439.023,1
0,53,catch,"[(1086, 806)]",[],[1],[],vertical,"(390.0, 262.0)",1.3666666666666667,nan,1,444.706,1
0,54,target,"[(1070, 832)]",[],[1],[0.85],vertical,"(390.0, 762.0)",0.85,nan,0,449.256,0
0,55,catch,"[(1077, 818)]",[],[1],[],horizontal,"(390.0, 262.0)",1.6333333333333333,nan,1,533.023,1
0,56,target,"[(1070, 832)]",[],[1],[0.5833333333333334],vertical,"(390.0, 262.0)",1.1833333333333333,0.539,1,539.007,1
0,57,target,"[(1077, 806)]",[],[1],[0.85],vertical,"(390.0, 762.0)",0.8666666666666667,nan,0,584.992,0
0,58,target,"[(1105, 820)]",[],[1],[0.7666666666666666],horizontal,"(890.0, 262.0)",0.8666666666666667,0.723,1,589.458,1
0,59,target,"[(1086, 808)]",[],[1],[0.7666666666666666],vertical,"(390.0, 262.0)",1.15,0.726,1,596.373,1
0,60,target,"[(1082, 790)]",[],[1],[0.5666666666666667],vertical,"(890.0, 262.0)",1.6666666666666667,0.531,1,601.619,1
0,61,target,"[(1083, 795)]",[],[1],[0.55],horizontal,"(390.0, 262.0)",1.3,0.512,1,607.26,2
0,62,target,"[(1081, 795)]",[],[1],[0.7166666666666667],horizontal,"(390.0, 762.0)",1.0166666666666666,0.674,1,613.207,2
0,63,target,"[(1086, 782)]",[],[1],[0.65],horizontal,"(890.0, 262.0)",0.7166666666666667,0.608,1,618.546,2
0,64,target,"[(1084, 791)]",[],[1],[0.5],horizontal,"(390.0, 762.0)",1.45,0.463,1,623.398,2
0,65,catch,"[(1086, 793)]",[],[1],[],vertical,"(890.0, 762.0)",1.3833333333333333,nan,1,629.11,2
0,66,catch,"[(1063, 788)]",[],[1],[],vertical,"(890.0, 762.0)",1.5333333333333332,nan,1,634.057,3
0,67,target,"[(1082, 771)]",[],[1],[0.3],vertical,"(390.0, 262.0)",1.5833333333333333,0.266,1,640.074,3
0,68,target,"[(1079, 781)]",[],[1],[0.43333333333333335],vertical,"(890.0, 762.0)",1.45,0.406,1,645.705,3
0,69,target,"[(1107, 782)]",[],[1],[0.5666666666666667],vertical,"(890.0, 262.0)",1.4166666666666667,0.526,1,651.478,3
0,70,target,"[(1102, 769)]",[],[1],[0.85],horizontal,"(890.0, 762.0)",0.8,nan,0,657.46,0
0,71,target,"[(1084, 769)]",[],[1],[0.85],vertical,"(890.0, 262.0)",1.6833333333333333,nan,0,662.076,0
0,72,target,"[(764, 770), (1113, 816)]",[],"[0, 1]",[0.5166666666666666],vertical,"(890.0, 262.0)",0.8,0.478,1,667.742,1
0,73,target,"[(1081, 788)]",[],[1],[0.55],vertical,"(390.0, 762.0)",1.0,0.505,1,676.891,1
0,74,catch,"[(1061, 782)]",[],[1],[],horizontal,"(390.0, 262.0)",1.6166666666666667,nan,1,681.691,1
0,75,target,"[(1083, 787)]",[],[1],[0.5],vertical,"(390.0, 262.0)",1.4,0.46,1,686.859,2
0,76,target,"[(1071, 783)]",[],[1],[0.6166666666666667],vertical,"(890.0, 762.0)",0.5666666666666667,0.576,1,692.367,2
0,77,target,"[(1076, 784)]",[],[1],[0.5],vertical,"(890.0, 762.0)",0.9166666666666666,0.467,1,697.013,2
0,78,target,"[(1099, 760)]",[],[1],[0.3333333333333333],horizontal,"(390.0, 262.0)",1.5833333333333333,0.306,1,701.841,2
0,79,target,"[(1084, 777)]",[],[1],[0.6166666666666667],horizontal,"(890.0, 262.0)",1.1333333333333333,0.58,1,707.316,2
0,80,target,"[(1081, 763)]",[],[1],[],vertical,"(890.0, 762.0)",,"('cti', 1.518)",0,712.841,0
0,81,target,"[(1076, 781)]",[],[1],[0.5833333333333334],vertical,"(390.0, 762.0)",0.5833333333333334,0.542,1,717.909,1
0,82,target,"[(1079, 764)]",[],[1],[0.5333333333333333],vertical,"(890.0, 262.0)",0.9333333333333333,0.491,1,722.11,1
0,83,target,"[(1091, 782)]",[],[1],[0.5166666666666666],vertical,"(890.0, 262.0)",1.35,0.476,1,726.906,1
0,84,target,"[(1106, 781)]",[],[1],[0.4666666666666667],vertical,"(890.0, 262.0)",1.2,0.423,1,731.812,2
0,85,target,"[(1105, 788)]",[],[1],[0.85],horizontal,"(890.0, 262.0)",1.0166666666666666,nan,0,737.709,0
0,86,target,"[(1082, 781)]",[],[1],[0.55],horizontal,"(890.0, 262.0)",1.0833333333333333,0.51,1,742.375,1
0,87,target,"[(1089, 775)]",[],[1],[0.5666666666666667],horizontal,"(390.0, 262.0)",1.0666666666666667,0.526,1,747.309,1
0,88,target,"[(1088, 777)]",[],[1],[0.5166666666666666],vertical,"(890.0, 262.0)",0.75,0.476,1,752.576,1
0,89,target,"[(1095, 786)]",[],[1],[0.5333333333333333],horizontal,"(390.0, 262.0)",1.5166666666666666,0.488,1,757.409,2
0,90,catch,"[(1094, 768)]",[],[1],[],horizontal,"(890.0, 762.0)",1.5666666666666667,nan,1,763.443,2
0,91,target,"[(1090, 800)]",[],[1],[0.5833333333333334],vertical,"(390.0, 762.0)",1.3833333333333333,0.544,1,768.827,2
0,92,target,"[(1082, 781)]",[],[1],[0.5666666666666667],horizontal,"(390.0, 262.0)",0.8333333333333334,0.526,1,774.312,2
0,93,target,"[(1076, 777)]",[],[1],[0.85],vertical,"(390.0, 762.0)",0.7333333333333333,nan,0,779.426,0
0,94,catch,"[(1077, 800)]",[],[1],[],horizontal,"(390.0, 262.0)",1.5166666666666666,nan,1,783.828,1
0,95,catch,"[(1076, 798)]",[],[1],[],vertical,"(890.0, 262.0)",1.5166666666666666,nan,1,788.843,1
0,96,target,"[(1076, 795)]",[],[1],[0.55],horizontal,"(390.0, 762.0)",0.7666666666666666,0.511,1,793.565,1
0,97,target,"[(1090, 793)]",[],[1],[0.5666666666666667],vertical,"(390.0, 762.0)",1.2833333333333332,0.524,1,798.363,2
0,98,target,"[(1084, 781)]",[],[1],[0.5166666666666666],vertical,"(890.0, 262.0)",0.65,0.474,1,803.765,2
0,99,target,"[(1103, 784)]",[],[1],[0.43333333333333335],vertical,"(390.0, 262.0)",1.3833333333333333,0.392,1,808.752,2
0,100,target,"[(1081, 779)]",[],[1],[0.5166666666666666],vertical,"(890.0, 762.0)",0.9333333333333333,0.471,1,814.688,2
0,101,target,"[(1081, 775)]",[],[1],[0.5166666666666666],horizontal,"(390.0, 262.0)",0.6333333333333333,0.484,1,820.026,2
0,102,target,"[(1096, 790)]",[],[1],[0.35],horizontal,"(390.0, 762.0)",1.55,0.314,1,825.154,3
0,103,target,"[(1097, 762)]",[],[1],[0.6333333333333333],vertical,"(890.0, 262.0)",0.8166666666666667,0.589,1,830.933,3
0,104,target,"[(1082, 778)]",[],[1],[0.85],vertical,"(390.0, 262.0)",0.6333333333333333,nan,0,835.977,0
0,105,target,"[(1086, 793)]",[],[1],[0.6],horizontal,"(390.0, 762.0)",0.65,0.562,1,840.393,1
0,106,target,"[(1081, 765)]",[],[1],[0.85],vertical,"(390.0, 262.0)",0.7,nan,0,844.927,0
0,107,target,"[(1077, 781)]",[],[1],[0.6666666666666666],horizontal,"(890.0, 262.0)",0.7666666666666666,0.629,1,849.809,1
0,108,target,"[(1081, 773)]",[],[1],[0.5],vertical,"(890.0, 262.0)",1.3166666666666667,0.461,1,854.911,1
0,109,target,"[(1086, 783)]",[],[1],[0.55],vertical,"(890.0, 762.0)",1.1166666666666667,0.508,1,860.16,1
0,110,catch,"[(1077, 788)]",[],[1],[],vertical,"(390.0, 762.0)",1.3833333333333333,nan,1,865.377,2
0,111,target,"[(1077, 786)]",[],[1],[0.6833333333333333],vertical,"(390.0, 762.0)",0.9833333333333333,0.64,1,870.659,2
0,112,target,"[(1080, 786)]",[],[1],[0.5833333333333334],vertical,"(890.0, 262.0)",0.9166666666666666,0.538,1,876.327,2
0,113,catch,"[(1086, 791)]",[],[1],[],vertical,"(390.0, 262.0)",1.6,nan,1,881.496,2
0,114,target,"[(1077, 778)]",[],[1],[0.48333333333333334],horizontal,"(890.0, 262.0)",1.45,0.445,1,887.126,2
0,115,target,"[(1072, 785)]",[],[1],[0.6666666666666666],vertical,"(890.0, 262.0)",0.5,0.619,1,893.221,3
0,116,catch,"[(1081, 762)]",[],[1],[],vertical,"(890.0, 762.0)",1.55,nan,1,898.795,3
0,117,target,"[(1081, 771)]",[],[1],[0.3833333333333333],horizontal,"(390.0, 262.0)",1.4,0.346,1,904.368,3
0,118,target,"[(1105, 786)]",[],[1],[0.35],horizontal,"(890.0, 262.0)",1.35,0.312,1,910.215,3
0,119,catch,"[(1079, 781)]",[],[1],[],horizontal,"(890.0, 262.0)",1.6166666666666667,nan,1,916.335,3
0,120,target,"[(1096, 796)]",[],[1],[0.5],horizontal,"(890.0, 262.0)",0.55,0.461,1,921.842,3
0,121,target,"[(1077, 784)]",[],[1],[0.55],horizontal,"(390.0, 762.0)",1.15,0.505,1,927.359,3
0,122,target,"[(1083, 771)]",[],[1],[0.85],vertical,"(390.0, 262.0)",0.7666666666666666,nan,0,933.427,0
0,123,target,"[(1076, 773)]",[],[1],[0.35],horizontal,"(390.0, 262.0)",1.4333333333333333,0.31,1,938.089,1
0,124,target,"[(1073, 789)]",[],[1],[0.26666666666666666],vertical,"(390.0, 762.0)",1.6666666666666667,0.226,1,943.326,1
0,125,target,"[(1083, 800)]",[],[1],[0.31666666666666665],horizontal,"(890.0, 762.0)",1.4833333333333334,0.282,1,948.638,1
0,126,target,"[(1075, 764)]",[],[1],[0.6166666666666667],horizontal,"(390.0, 762.0)",0.5333333333333333,0.569,1,953.623,2
0,127,target,"[(1098, 774)]",[],[1],[0.55],horizontal,"(890.0, 762.0)",0.8166666666666667,0.511,1,958.526,2
0,128,target,"[(1091, 758)]",[],[1],[0.85],horizontal,"(390.0, 762.0)",0.9833333333333333,nan,0,963.745,0
0,129,target,"[(1064, 807)]",[],[1],[0.85],horizontal,"(890.0, 762.0)",0.55,nan,0,968.594,0
0,130,target,"[(1076, 807)]",[],[1],[0.6],horizontal,"(390.0, 762.0)",1.25,0.555,1,975.014,1
0,131,target,"[(1103, 787)]",[],[1],[0.85],horizontal,"(390.0, 262.0)",0.8666666666666667,nan,0,981.635,0
0,132,target,"[(1062, 811)]",[],[1],[0.85],vertical,"(390.0, 262.0)",1.0,nan,0,986.376,0
0,133,target,"[(1080, 800)]",[],[1],[0.5166666666666666],horizontal,"(890.0, 762.0)",1.5166666666666666,0.476,1,991.549,1
0,134,target,"[(1047, 795)]",[],[1],[0.3333333333333333],horizontal,"(890.0, 762.0)",1.4166666666666667,0.292,1,996.726,1
0,135,catch,"[(1068, 806)]",[],[1],[],vertical,"(890.0, 262.0)",1.4333333333333333,nan,1,1002.494,1
0,136,target,"[(1076, 789)]",[],[1],[0.3833333333333333],vertical,"(890.0, 762.0)",1.4,0.341,1,1007.443,2
0,137,target,"[(1079, 778)]",[],[1],[0.6],vertical,"(390.0, 262.0)",1.1833333333333333,0.556,1,1012.976,2
0,138,target,"[(1077, 774)]",[],[1],[0.3833333333333333],vertical,"(890.0, 762.0)",1.3333333333333333,0.344,1,1018.581,2
0,139,target,"[(1081, 781)]",[],[1],[0.6666666666666666],vertical,"(890.0, 262.0)",0.6,0.622,1,1024.026,2
0,140,target,"[(1079, 781)]",[],[1],[0.85],vertical,"(390.0, 762.0)",0.6166666666666667,nan,0,1028.526,0
0,141,target,"[(1066, 784)]",[],[1],[0.6333333333333333],horizontal,"(390.0, 762.0)",0.55,0.587,1,1033.142,1
0,142,target,"[(1047, 764)]",[],[1],[0.43333333333333335],vertical,"(890.0, 262.0)",1.5666666666666667,0.393,1,1037.727,1
0,143,target,"[(1081, 776)]",[],[1],[0.4166666666666667],vertical,"(890.0, 262.0)",1.45,0.381,1,1043.192,1
0,144,target,"[(1078, 793)]",[],[1],[0.5333333333333333],horizontal,"(890.0, 762.0)",0.55,0.495,1,1048.461,2
0,145,target,"[(1076, 795)]",[],[1],[0.5833333333333334],horizontal,"(390.0, 262.0)",1.0333333333333332,0.537,1,1053.257,2
0,146,catch,"[(1097, 782)]",[],[1],[],vertical,"(890.0, 762.0)",1.6333333333333333,nan,1,1058.477,2
0,147,catch,"[(1077, 782)]",[],[1],[],vertical,"(390.0, 762.0)",1.5333333333333332,nan,1,1063.747,2
0,148,target,"[(1080, 770)]",[],[1],[0.6],vertical,"(890.0, 262.0)",0.5333333333333333,0.559,1,1069.21,2
0,149,target,"[(1080, 761)]",[],[1],[0.5666666666666667],horizontal,"(890.0, 262.0)",0.5166666666666666,0.519,1,1074.04,3
0,150,target,"[(1081, 785)]",[],[1],[0.7166666666666667],vertical,"(390.0, 762.0)",1.1,0.669,1,1079.51,3
0,151,target,"[(1079, 784)]",[],[1],[0.6333333333333333],vertical,"(390.0, 262.0)",0.7333333333333333,0.589,1,1085.177,3
0,152,catch,"[(1085, 774)]",[],[1],[],vertical,"(890.0, 762.0)",,"('cti', 1.174),nan",0,1090.94,0
0,153,target,"[(1076, 778)]",[],[1],[0.31666666666666665],vertical,"(890.0, 262.0)",1.3666666666666667,0.281,1,1095.16,1
0,154,target,"[(1055, 787)]",[],[1],[0.18333333333333332],vertical,"(390.0, 762.0)",1.5833333333333333,0.147,0,1100.161,0
0,155,target,"[(1075, 774)]",[],[1],[0.3833333333333333],vertical,"(890.0, 762.0)",0.8666666666666667,0.342,1,1104.81,1
0,156,target,"[(1081, 762)]",[],[1],[0.85],vertical,"(390.0, 762.0)",0.5,nan,0,1109.493,0
0,157,target,"[(1047, 766)]",[],[1],[0.45],vertical,"(890.0, 762.0)",1.2666666666666666,0.409,1,1113.817,1
0,158,target,"[(1081, 765)]",[],[1],[0.5666666666666667],vertical,"(890.0, 762.0)",0.75,0.523,1,1119.11,1
0,159,target,"[(1081, 772)]",[],[1],[0.5666666666666667],horizontal,"(390.0, 262.0)",1.2,0.525,1,1123.644,1
0,160,target,"[(1083, 770)]",[],[1],[0.45],vertical,"(890.0, 762.0)",1.2166666666666666,0.411,1,1128.513,2
0,161,target,"[(1076, 776)]",[],[1],[0.4166666666666667],horizontal,"(890.0, 762.0)",1.2666666666666666,0.383,1,1133.761,2
0,162,target,"[(1090, 798)]",[],[1],[0.55],horizontal,"(390.0, 762.0)",1.0666666666666667,0.51,1,1138.961,2
0,163,target,"[(1084, 769)]",[],[1],[0.08333333333333333],horizontal,"(890.0, 262.0)",1.55,0.052,0,1144.629,0
0,164,catch,"[(1082, 766)]",[],[1],[],vertical,"(890.0, 762.0)",1.5833333333333333,nan,1,1149.257,1
0,165,target,"[(1067, 811)]",[],[1],[0.55],vertical,"(890.0, 762.0)",0.9833333333333333,0.509,1,1154.06,1
0,166,target,"[(1076, 811)]",[],[1],[0.85],horizontal,"(390.0, 762.0)",1.5833333333333333,"('cti', 1.568),nan",0,1159.377,0
0,167,catch,"[(1081, 794)]",[],[1],[],vertical,"(390.0, 262.0)",1.3833333333333333,nan,1,1165.019,1
0,168,target,"[(1072, 811)]",[],[1],[0.5333333333333333],horizontal,"(890.0, 762.0)",0.8166666666666667,0.492,1,1169.994,1
0,169,target,"[(1063, 768)]",[],[1],[0.4666666666666667],vertical,"(890.0, 762.0)",1.3166666666666667,0.428,1,1174.553,1
0,170,target,"[(1062, 786)]",[],[1],[0.18333333333333332],horizontal,"(390.0, 762.0)",1.6,0.147,0,1179.744,0
0,171,target,"[(1063, 781)]",[],[1],[0.5333333333333333],vertical,"(390.0, 262.0)",0.8833333333333333,0.491,1,1184.475,1
0,172,target,"[(1076, 788)]",[],[1],[0.6666666666666666],vertical,"(390.0, 762.0)",1.05,0.629,1,1189.447,1
0,173,target,"[(1081, 766)]",[],[1],[0.6166666666666667],horizontal,"(890.0, 262.0)",1.2333333333333334,0.574,1,1194.844,1
0,174,target,"[(1082, 775)]",[],[1],[0.55],horizontal,"(390.0, 762.0)",0.9166666666666666,0.512,1,1200.017,2
0,175,target,"[(1105, 779)]",[],[1],[0.5833333333333334],vertical,"(890.0, 762.0)",1.15,0.545,1,1204.878,2
0,176,target,"[(1072, 770)]",[],[1],[0.5333333333333333],vertical,"(890.0, 762.0)",0.55,0.489,1,1210.294,2
0,177,target,"[(1060, 780)]",[],[1],[],vertical,"(390.0, 262.0)",,"('cti', 0.505)",0,1215.127,0
0,178,target,"[(1063, 788)]",[],[1],[0.23333333333333334],horizontal,"(390.0, 762.0)",1.6833333333333333,0.197,0,1218.595,0
0,179,target,"[(1081, 767)]",[],[1],[0.55],vertical,"(890.0, 262.0)",0.8166666666666667,0.504,1,1223.562,1
0,180,target,"[(1084, 776)]",[],[1],[0.5666666666666667],vertical,"(390.0, 262.0)",1.1,0.529,1,1228.418,1
0,181,target,"[(1058, 780)]",[],[1],[0.6],vertical,"(890.0, 262.0)",1.2,0.562,1,1233.628,1
0,182,target,"[(1079, 772)]",[],[1],[0.45],horizontal,"(390.0, 262.0)",1.4833333333333334,0.413,1,1238.512,2
0,183,target,"[(1085, 774)]",[],[1],[0.31666666666666665],vertical,"(890.0, 262.0)",1.4333333333333333,0.28,1,1244.044,2
0,184,target,"[(1081, 756)]",[],[1],[0.5666666666666667],horizontal,"(890.0, 262.0)",0.5166666666666666,0.526,1,1249.477,2
0,185,target,"[(1081, 766)]",[],[1],[0.55],horizontal,"(890.0, 262.0)",0.5666666666666667,0.515,1,1254.144,2
0,186,target,"[(1086, 782)]",[],[1],[0.5166666666666666],horizontal,"(890.0, 262.0)",1.0666666666666667,0.484,1,1258.976,2
0,187,catch,"[(1078, 776)]",[],[1],[],horizontal,"(390.0, 262.0)",1.6666666666666667,nan,1,1264.361,3
0,188,target,"[(1085, 763)]",[],[1],[0.21666666666666667],horizontal,"(390.0, 762.0)",1.6,0.183,0,1270.255,0
0,189,target,"[(1068, 778)]",[],[1],[0.5666666666666667],vertical,"(890.0, 762.0)",0.7666666666666666,0.525,1,1275.067,1
0,190,catch,"[(1064, 783)]",[],[1],[],vertical,"(390.0, 262.0)",1.3833333333333333,nan,1,1279.663,1
0,191,target,"[(1061, 774)]",[],[1],[0.5833333333333334],vertical,"(890.0, 762.0)",1.0166666666666666,0.543,1,1284.695,1
0,192,target,"[(1062, 790)]",[],[1],[0.31666666666666665],vertical,"(890.0, 262.0)",1.6333333333333333,0.283,1,1289.512,2
0,193,target,"[(1075, 766)]",[],[1],[0.7166666666666667],vertical,"(390.0, 762.0)",1.3,0.674,1,1295.054,2
0,194,target,"[(1091, 782)]",[],[1],[0.5166666666666666],vertical,"(890.0, 762.0)",1.0333333333333332,0.479,1,1300.787,2
0,195,catch,"[(1084, 785)]",[],[1],[],vertical,"(890.0, 762.0)",1.6166666666666667,nan,1,1305.629,2
0,196,target,"[(1072, 766)]",[],[1],[0.5],horizontal,"(390.0, 262.0)",0.9833333333333333,0.468,1,1311.028,2
0,197,target,"[(1062, 782)]",[],[1],[0.65],vertical,"(890.0, 762.0)",0.5166666666666666,0.618,1,1316.065,3
0,198,target,"[(1054, 781)]",[],[1],[0.85],horizontal,"(390.0, 762.0)",0.55,nan,0,1321.079,0
0,199,target,"[(1063, 789)]",[],[1],[0.85],vertical,"(390.0, 762.0)",0.6166666666666667,nan,0,1325.358,0
0,200,target,"[(1062, 770)]",[],[1],[0.5333333333333333],horizontal,"(390.0, 262.0)",1.05,0.491,1,1330.147,1
0,201,target,"[(1081, 776)]",[],[1],[0.3833333333333333],horizontal,"(390.0, 762.0)",1.6166666666666667,0.35,1,1335.831,1
0,202,target,"[(1081, 787)]",[],[1],[0.5833333333333334],horizontal,"(890.0, 762.0)",1.1833333333333333,0.546,1,1341.061,1
0,203,target,"[(1080, 781)]",[],[1],[0.6166666666666667],horizontal,"(890.0, 762.0)",1.1166666666666667,0.569,1,1345.878,2
0,204,target,"[(1063, 781)]",[],[1],[0.6],vertical,"(890.0, 262.0)",0.7666666666666666,0.563,1,1351.145,2
0,205,target,"[(1062, 782)]",[],[1],[0.2833333333333333],horizontal,"(390.0, 262.0)",1.5,0.251,1,1356.272,2
0,206,target,"[(1079, 774)]",[],[1],[0.7],vertical,"(390.0, 762.0)",1.1666666666666667,0.661,1,1361.855,2
0,207,target,"[(1081, 791)]",[],[1],[0.5],vertical,"(890.0, 262.0)",1.5166666666666666,0.459,1,1367.379,2
0,208,target,"[(1077, 783)]",[],[1],[0.55],vertical,"(390.0, 262.0)",1.0,0.51,1,1373.141,3
0,209,target,"[(1064, 764)]",[],[1],[0.85],vertical,"(390.0, 262.0)",1.0166666666666666,nan,0,1378.833,0
0,210,target,"[(1086, 775)]",[],[1],[0.6],vertical,"(390.0, 262.0)",0.9666666666666667,0.559,1,1383.915,1
0,211,target,"[(1079, 777)]",[],[1],[0.6833333333333333],vertical,"(390.0, 762.0)",1.15,0.651,1,1388.69,1
0,212,target,"[(1038, 782)]",[],[1],[],horizontal,"(890.0, 262.0)",,"('cti', 0.736)",0,1393.577,0
0,213,target,"[(1077, 779)]",[],[1],[0.7],vertical,"(890.0, 762.0)",0.5333333333333333,0.661,1,1397.811,1
0,214,target,"[(1065, 786)]",[],[1],[0.55],vertical,"(390.0, 262.0)",0.8666666666666667,0.511,1,1402.412,1
0,215,catch,"[(1052, 795)]",[],[1],[],vertical,"(890.0, 762.0)",1.45,nan,1,1407.162,1
0,216,target,"[(1085, 784)]",[],[1],[0.5166666666666666],horizontal,"(890.0, 262.0)",0.8166666666666667,0.475,1,1412.944,2
0,217,target,"[(1077, 778)]",[],[1],[0.85],horizontal,"(390.0, 762.0)",0.55,nan,0,1417.757,0
0,218,target,"[(1063, 779)]",[],[1],[0.55],horizontal,"(890.0, 262.0)",0.7833333333333333,0.509,1,1422.244,1
0,219,target,"[(1043, 752), (1066, 797)]",[],"[0, 1]",[0.7],vertical,"(390.0, 762.0)",1.1166666666666667,0.668,1,1427.028,1
0,220,target,"[(1105, 787)]",[],[1],[0.6166666666666667],vertical,"(390.0, 262.0)",0.9666666666666667,0.574,1,1434.227,1
0,221,target,"[(1079, 765)]",[],[1],[],horizontal,"(890.0, 262.0)",,"('cti', 1.041)",0,1438.917,0
0,222,target,"[(1081, 773)]",[],[1],[0.5333333333333333],vertical,"(390.0, 262.0)",0.75,0.496,1,1443.53,1
0,223,target,"[(1072, 789)]",[],[1],[0.6666666666666666],vertical,"(890.0, 262.0)",1.25,0.625,1,1448.359,1
0,224,target,"[(1076, 791)]",[],[1],[0.21666666666666667],vertical,"(390.0, 262.0)",1.4833333333333334,0.183,0,1453.148,0
0,225,target,"[(1081, 786)]",[],[1],[0.85],vertical,"(390.0, 762.0)",0.7,nan,0,1457.992,0
0,226,target,"[(1045, 791)]",[],[1],[0.85],horizontal,"(390.0, 762.0)",0.5,nan,0,1462.363,0
0,227,target,"[(1062, 802)]",[],[1],[0.5333333333333333],vertical,"(890.0, 262.0)",0.6833333333333333,0.493,1,1467.082,1
0,228,target,"[(1067, 778)]",[],[1],[0.65],horizontal,"(890.0, 762.0)",0.8166666666666667,0.612,1,1471.896,1
0,229,target,"[(1042, 782)]",[],[1],[0.5833333333333334],vertical,"(390.0, 262.0)",0.6,0.541,1,1477.03,1
0,230,target,"[(1059, 779)]",[],[1],[0.5166666666666666],horizontal,"(890.0, 762.0)",0.7,0.486,1,1481.724,2
0,231,target,"[(1086, 781)]",[],[1],[0.5833333333333334],horizontal,"(890.0, 262.0)",0.5666666666666667,0.54,1,1486.763,2
0,232,catch,"[(1087, 785)]",[],[1],[],vertical,"(390.0, 262.0)",1.4333333333333333,nan,1,1491.486,2
0,233,target,"[(1078, 780)]",[],[1],[0.21666666666666667],vertical,"(390.0, 262.0)",1.35,0.182,0,1496.812,0
0,234,target,"[(1079, 792)]",[],[1],[0.43333333333333335],vertical,"(390.0, 262.0)",1.2,0.396,1,1501.642,1
0,235,target,"[(1062, 785)]",[],[1],[0.43333333333333335],horizontal,"(890.0, 762.0)",1.4166666666666667,0.392,1,1506.702,1
0,236,catch,"[(1057, 791)]",[],[1],[],horizontal,"(890.0, 262.0)",,"('cti', 0.619),nan",0,1511.832,0
0,237,target,"[(1081, 791)]",[],[1],[0.6],horizontal,"(890.0, 262.0)",0.75,0.562,1,1516.564,1
0,238,target,"[(1099, 768)]",[],[1],[0.6],vertical,"(390.0, 262.0)",1.2666666666666666,0.557,1,1520.812,1
0,239,target,"[(1062, 766)]",[],[1],[0.11666666666666667],horizontal,"(890.0, 262.0)",1.4666666666666666,0.085,0,1526.33,0
0,240,target,"[(1076, 771)]",[],[1],[0.16666666666666666],horizontal,"(390.0, 262.0)",1.4333333333333333,0.138,0,1530.946,0
0,241,target,"[(1064, 792)]",[],[1],[0.6166666666666667],horizontal,"(390.0, 262.0)",0.55,0.575,1,1535.327,1
0,242,target,"[(1076, 795)]",[],[1],[0.6],horizontal,"(390.0, 262.0)",1.3333333333333333,0.562,1,1539.934,1
0,243,catch,"[(1079, 782)]",[],[1],[],vertical,"(390.0, 762.0)",1.4666666666666666,nan,1,1545.369,1
0,244,target,"[(1072, 783)]",[],[1],[0.13333333333333333],vertical,"(890.0, 762.0)",1.5,0.101,0,1550.121,0
0,245,target,"[(1061, 762)]",[],[1],[0.18333333333333332],vertical,"(390.0, 762.0)",1.2333333333333334,0.146,0,1554.747,0
0,246,target,"[(1063, 768)]",[],[1],[0.4666666666666667],vertical,"(890.0, 762.0)",1.4166666666666667,0.424,1,1559.264,1
0,247,target,"[(1062, 786)]",[],[1],[0.5333333333333333],horizontal,"(890.0, 262.0)",0.9,0.493,1,1564.238,1
0,248,target,"[(1060, 775)]",[],[1],[0.4666666666666667],vertical,"(890.0, 262.0)",1.3666666666666667,0.424,1,1568.922,1
0,249,target,"[(1077, 778)]",[],[1],[0.5333333333333333],vertical,"(390.0, 762.0)",0.7166666666666667,0.488,1,1574.25,2
0,250,catch,"[(1082, 777)]",[],[1],[],horizontal,"(890.0, 762.0)",1.6166666666666667,nan,1,1578.912,2
0,251,target,"[(1086, 776)]",[],[1],[0.5166666666666666],horizontal,"(890.0, 262.0)",0.6333333333333333,0.475,1,1584.036,2
0,252,target,"[(1081, 776)]",[],[1],[0.6666666666666666],horizontal,"(890.0, 762.0)",0.6666666666666666,0.621,1,1589.114,2
0,253,target,"[(1086, 796)]",[],[1],[0.48333333333333334],horizontal,"(390.0, 762.0)",0.5833333333333334,0.443,1,1594.125,2
0,254,target,"[(1074, 775)]",[],[1],[0.85],vertical,"(390.0, 262.0)",1.4666666666666666,nan,0,1599.324,0
0,255,target,"[(1059, 778)]",[],[1],[0.7666666666666666],horizontal,"(390.0, 262.0)",1.3833333333333333,0.716,1,1604.398,1
0,256,catch,"[(1065, 780)]",[],[1],[],vertical,"(390.0, 762.0)",1.45,nan,1,1610.063,1
0,257,target,"[(1061, 777)]",[],[1],[0.65],vertical,"(890.0, 262.0)",1.25,0.602,1,1615.032,1
0,258,target,"[(1048, 774)]",[],[1],[0.3333333333333333],vertical,"(890.0, 762.0)",1.65,0.297,1,1620.45,2
0,259,target,"[(1062, 761)]",[],[1],[0.6],horizontal,"(890.0, 262.0)",0.8666666666666667,0.554,1,1626.28,2
0,260,target,"[(1067, 760)]",[],[1],[0.5],vertical,"(890.0, 262.0)",1.3666666666666667,0.46,1,1631.314,2
0,261,target,"[(1062, 769)]",[],[1],[0.6166666666666667],vertical,"(390.0, 762.0)",0.6833333333333333,0.568,1,1637.164,2
0,262,target,"[(1081, 773)]",[],[1],[0.48333333333333334],horizontal,"(390.0, 762.0)",1.3833333333333333,0.448,1,1641.844,2
0,263,target,"[(1066, 775)]",[],[1],[0.65],horizontal,"(390.0, 762.0)",1.05,0.605,1,1647.378,3
0,264,target,"[(1076, 780)]",[],[1],[0.5333333333333333],horizontal,"(890.0, 762.0)",0.8666666666666667,0.487,1,1653.317,3
0,265,target,"[(1080, 773)]",[],[1],[0.55],vertical,"(390.0, 762.0)",0.95,0.51,1,1658.376,3
0,266,target,"[(1079, 785)]",[],[1],[0.6166666666666667],vertical,"(890.0, 262.0)",0.5166666666666666,0.568,1,1663.778,3
0,267,target,"[(1081, 788)]",[],[1],[0.55],horizontal,"(890.0, 762.0)",0.5333333333333333,0.508,1,1668.88,3
0,268,target,"[(1086, 765)]",[],[1],[0.6833333333333333],horizontal,"(890.0, 762.0)",1.0166666666666666,0.636,1,1674.25,3
0,269,target,"[(1060, 782)]",[],[1],[0.45],horizontal,"(890.0, 262.0)",1.4833333333333334,0.413,1,1679.998,3
0,270,target,"[(1066, 769)]",[],[1],[0.5],horizontal,"(890.0, 762.0)",0.8333333333333334,0.461,1,1686.114,3
0,271,target,"[(1062, 773)]",[],[1],[0.4],horizontal,"(890.0, 262.0)",1.0,0.358,1,1691.79,3
0,272,target,"[(1076, 766)]",[],[1],[0.45],horizontal,"(390.0, 262.0)",1.2666666666666666,0.412,1,1697.596,3
0,273,target,"[(1045, 779)]",[],[1],[0.6833333333333333],horizontal,"(890.0, 762.0)",0.95,0.637,1,1703.558,3
0,274,target,"[(1089, 772)]",[],[1],[0.85],horizontal,"(390.0, 262.0)",0.7166666666666667,nan,0,1709.363,0
0,275,target,"[(1061, 781)]",[],[1],[0.7166666666666667],horizontal,"(390.0, 762.0)",1.2333333333333334,0.676,1,1713.897,1
0,276,target,"[(1049, 761)]",[],[1],[0.4],vertical,"(390.0, 762.0)",1.45,0.358,1,1718.873,1
0,277,target,"[(1081, 782)]",[],[1],[0.65],vertical,"(890.0, 262.0)",1.05,0.609,1,1723.966,1
0,278,target,"[(1062, 756)]",[],[1],[0.6],horizontal,"(390.0, 762.0)",1.15,0.567,1,1729.314,2
0,279,target,"[(1081, 762)]",[],[1],[0.5],vertical,"(390.0, 762.0)",1.2666666666666666,0.46,1,1734.647,2
0,280,target,"[(635, 490), (641, 494), (1052, 860)]",[],"[0, 0, 1]",[0.85],vertical,"(390.0, 762.0)",0.95,nan,0,1740.175,0
0,281,target,"[(1075, 830)]",[],[1],[0.6],vertical,"(890.0, 262.0)",0.8833333333333333,0.559,1,1794.814,1
0,282,catch,"[(1076, 778)]",[],[1],[],horizontal,"(890.0, 762.0)",1.5,nan,1,1800.22,1
0,283,target,"[(1083, 792)]",[],[1],[0.85],horizontal,"(390.0, 262.0)",0.7333333333333333,nan,0,1804.848,0
0,284,target,"[(1067, 800)]",[],[1],[0.85],horizontal,"(390.0, 262.0)",1.15,nan,0,1809.948,0
0,285,target,"[(1086, 808)]",[],[1],[0.85],vertical,"(390.0, 262.0)",0.5166666666666666,nan,0,1814.716,0
0,286,target,"[(1081, 800)]",[],[1],[0.85],vertical,"(890.0, 262.0)",0.95,nan,0,1818.814,0
0,287,target,"[(1079, 780)]",[],[1],[0.85],vertical,"(890.0, 762.0)",1.0666666666666667,nan,0,1824.025,0
0,288,target,"[(1071, 798)]",[],[1],[0.43333333333333335],horizontal,"(390.0, 262.0)",1.4666666666666666,0.396,1,1828.814,1
0,289,target,"[(1079, 761)]",[],[1],[0.85],vertical,"(890.0, 262.0)",0.95,nan,0,1834.069,0
0,290,catch,"[(1028, 822)]",[],[1],[],horizontal,"(890.0, 262.0)",1.4166666666666667,nan,1,1839.127,1
0,291,target,"[(1079, 769)]",[],[1],[0.6],vertical,"(390.0, 262.0)",1.0833333333333333,0.557,1,1846.771,1
0,292,target,"[(1084, 778)]",[],[1],[0.6],vertical,"(390.0, 262.0)",0.9833333333333333,0.56,1,1851.892,1
0,293,target,"[(1088, 771)]",[],[1],[0.6166666666666667],vertical,"(390.0, 262.0)",0.8333333333333334,0.571,1,1856.715,2
0,294,target,"[(1080, 789)]",[],[1],[0.3333333333333333],vertical,"(390.0, 762.0)",1.5166666666666666,0.295,1,1861.71,2
0,295,catch,"[(1072, 771)]",[],[1],[],horizontal,"(890.0, 762.0)",1.5666666666666667,nan,1,1867.156,2
0,296,target,"[(1079, 768)]",[],[1],[0.36666666666666664],vertical,"(390.0, 762.0)",1.55,0.327,1,1872.533,2
0,297,target,"[(1086, 786)]",[],[1],[0.85],vertical,"(390.0, 262.0)",0.75,nan,0,1878.448,0
0,298,target,"[(1082, 786)]",[],[1],[0.5166666666666666],vertical,"(890.0, 262.0)",1.15,0.474,1,1882.713,1
0,299,target,"[(1104, 772)]",[],[1],[0.5],horizontal,"(890.0, 762.0)",0.9,0.463,1,1887.681,1
0,300,target,"[(1081, 768)]",[],[1],[],horizontal,"(390.0, 262.0)",,"('cti', 1.101)",0,1892.296,0
0,301,target,"[(1079, 795)]",[],[1],[0.6833333333333333],vertical,"(390.0, 262.0)",1.25,0.643,1,1896.789,1
0,302,catch,"[(1128, 787)]",[],[1],[],vertical,"(390.0, 762.0)",1.5666666666666667,nan,1,1901.897,1
0,303,target,"[(1064, 770)]",[],[1],[0.6166666666666667],vertical,"(890.0, 262.0)",1.0333333333333332,0.576,1,1907.103,1
0,304,target,"[(1091, 766)]",[],[1],[0.2],horizontal,"(390.0, 762.0)",1.5833333333333333,0.163,0,1911.821,0
0,305,catch,"[(1060, 786)]",[],[1],[],horizontal,"(890.0, 762.0)",1.4833333333333334,nan,1,1916.658,1
0,306,target,"[(1070, 765)]",[],[1],[0.6333333333333333],horizontal,"(390.0, 762.0)",1.2333333333333334,0.587,1,1921.732,1
0,307,target,"[(1081, 786)]",[],[1],[0.6333333333333333],vertical,"(390.0, 262.0)",0.8833333333333333,0.592,1,1927.087,1
0,308,target,"[(1060, 776)]",[],[1],[0.05],horizontal,"(890.0, 262.0)",1.2,0.019,0,1931.849,0
0,309,target,"[(1076, 762)]",[],[1],[0.15],horizontal,"(890.0, 262.0)",1.65,0.117,0,1936.123,0
0,310,target,"[(1060, 777)]",[],[1],[0.55],horizontal,"(390.0, 262.0)",1.4333333333333333,0.51,1,1941.094,1
0,311,target,"[(1070, 785)]",[],[1],[0.55],vertical,"(890.0, 262.0)",1.3333333333333333,0.508,1,1946.354,1
0,312,target,"[(1063, 786)]",[],[1],[0.85],vertical,"(890.0, 762.0)",0.55,nan,0,1951.531,0
0,313,target,"[(1066, 776)]",[],[1],[0.4166666666666667],horizontal,"(890.0, 262.0)",1.3333333333333333,0.377,1,1956.086,1
0,314,target,"[(1082, 774)]",[],[1],[0.15],vertical,"(890.0, 262.0)",1.6666666666666667,0.118,0,1961.565,0
0,315,catch,"[(1073, 778)]",[],[1],[],vertical,"(890.0, 762.0)",1.35,nan,1,1966.204,1
0,316,target,"[(1065, 801)]",[],[1],[0.75],horizontal,"(890.0, 762.0)",0.95,0.71,1,1971.249,1
0,317,target,"[(1071, 781)]",[],[1],[0.23333333333333334],horizontal,"(390.0, 762.0)",1.5666666666666667,0.195,0,1976.226,0
0,318,target,"[(1066, 777)]",[],[1],[0.5833333333333334],horizontal,"(390.0, 262.0)",1.4,0.54,1,1981.214,1
0,319,target,"[(1062, 768)]",[],[1],[0.6666666666666666],vertical,"(890.0, 262.0)",0.9166666666666666,0.621,1,1986.746,1
0,320,catch,"[(1071, 770)]",[],[1],[],vertical,"(890.0, 262.0)",1.5833333333333333,nan,1,1991.564,1
0,321,target,"[(1081, 777)]",[],[1],[0.21666666666666667],vertical,"(890.0, 262.0)",1.5833333333333333,0.179,0,1996.888,0
0,322,target,"[(1064, 785)]",[],[1],[0.6666666666666666],vertical,"(890.0, 262.0)",1.4166666666666667,0.625,1,2001.333,1
0,323,target,"[(1063, 776)]",[],[1],[0.5333333333333333],vertical,"(890.0, 262.0)",1.1833333333333333,0.49,1,2007.582,1
0,324,target,"[(1081, 771)]",[],[1],[0.5166666666666666],horizontal,"(890.0, 262.0)",1.3333333333333333,0.478,1,2012.589,1
0,325,target,"[(1076, 768)]",[],[1],[0.85],vertical,"(390.0, 762.0)",0.8166666666666667,nan,0,2017.865,0
0,326,target,"[(1063, 766)]",[],[1],[0.5166666666666666],vertical,"(890.0, 262.0)",1.35,0.479,1,2022.689,1
0,327,target,"[(1075, 748), (1046, 788)]",[],"[0, 1]",[0.7333333333333333],vertical,"(890.0, 262.0)",0.9833333333333333,0.69,1,2028.101,1
0,328,target,"[(1090, 768)]",[],[1],[0.5],horizontal,"(890.0, 262.0)",0.5666666666666667,0.464,1,2034.164,1
0,329,target,"[(1063, 766)]",[],[1],[0.5666666666666667],vertical,"(390.0, 262.0)",0.65,0.525,1,2038.903,2
0,330,catch,"[(1050, 770)]",[],[1],[],horizontal,"(890.0, 262.0)",1.6833333333333333,nan,1,2043.933,2
0,331,catch,"[(1074, 778)]",[],[1],[],vertical,"(390.0, 262.0)",1.35,nan,1,2049.533,2
0,332,target,"[(1076, 786)]",[],[1],[0.85],horizontal,"(390.0, 762.0)",0.7333333333333333,nan,0,2054.665,0
0,333,target,"[(1055, 774)]",[],[1],[0.23333333333333334],vertical,"(390.0, 762.0)",1.5833333333333333,0.195,0,2059.149,0
0,334,target,"[(1079, 774)]",[],[1],[0.6666666666666666],horizontal,"(890.0, 262.0)",0.7,0.627,1,2064.098,1
0,335,target,"[(1075, 751), (1044, 777)]",[],"[0, 1]",[0.45],vertical,"(890.0, 762.0)",1.6,0.41,1,2068.682,1
0,336,target,"[(1060, 768)]",[],[1],[0.5333333333333333],vertical,"(890.0, 262.0)",1.1166666666666667,0.494,1,2075.965,1
0,337,target,"[(1078, 765)]",[],[1],[0.6166666666666667],vertical,"(890.0, 262.0)",0.8,0.581,1,2080.933,2
0,338,target,"[(1076, 742), (1062, 800)]",[],"[0, 1]",[0.6],vertical,"(390.0, 262.0)",1.3333333333333333,0.563,1,2085.899,2
0,339,target,"[(1076, 760)]",[],[1],[0.45],horizontal,"(390.0, 262.0)",1.5333333333333332,0.411,1,2092.932,2
0,340,target,"[(1084, 775)]",[],[1],[0.65],horizontal,"(890.0, 262.0)",1.2166666666666666,0.607,1,2098.496,2
0,341,target,"[(1079, 768)]",[],[1],[0.6333333333333333],vertical,"(890.0, 762.0)",0.5166666666666666,0.588,1,2103.821,2
0,342,target,"[(1088, 786)]",[],[1],[0.21666666666666667],vertical,"(890.0, 762.0)",1.6,0.182,0,2108.9,0
0,343,target,"[(1063, 786)]",[],[1],[0.65],vertical,"(890.0, 262.0)",0.5833333333333334,0.606,1,2113.46,1
0,344,target,"[(1058, 758)]",[],[1],[0.55],vertical,"(890.0, 262.0)",0.8,0.508,1,2117.966,1
0,345,target,"[(1073, 786)]",[],[1],[0.6666666666666666],horizontal,"(390.0, 262.0)",0.6,0.633,1,2122.465,1
0,346,target,"[(1081, 773)]",[],[1],[0.5333333333333333],vertical,"(890.0, 762.0)",0.9666666666666667,0.493,1,2126.626,2
0,347,target,"[(1072, 776)]",[],[1],[0.65],vertical,"(390.0, 762.0)",1.1333333333333333,0.614,1,2132.05,2
0,348,target,"[(1071, 790)]",[],[1],[0.25],horizontal,"(890.0, 762.0)",1.65,0.218,1,2137.179,2
0,349,target,"[(1062, 781)]",[],[1],[0.55],vertical,"(390.0, 762.0)",1.3,0.515,1,2142.609,2
0,350,catch,"[(1071, 757)]",[],[1],[],horizontal,"(890.0, 262.0)",1.5333333333333332,nan,1,2148.55,2
0,351,target,"[(1081, 783)]",[],[1],[0.6666666666666666],horizontal,"(890.0, 262.0)",0.7,0.629,1,2153.952,3
0,352,target,"[(1053, 786)]",[],[1],[0.85],horizontal,"(390.0, 762.0)",0.6666666666666666,nan,0,2159.63,0
0,353,target,"[(1085, 793)]",[],[1],[0.85],horizontal,"(390.0, 262.0)",1.0,nan,0,2164.591,0
0,354,target,"[(1057, 774)]",[],[1],[0.5333333333333333],horizontal,"(890.0, 762.0)",0.6,0.492,1,2169.279,1
0,355,target,"[(1043, 771)]",[],[1],[0.5],vertical,"(390.0, 262.0)",0.5833333333333334,0.465,1,2240.65,1
0,356,target,"[(1064, 776)]",[],[1],[0.3333333333333333],horizontal,"(390.0, 762.0)",1.5833333333333333,0.299,1,2245.467,1
0,357,target,"[(1046, 800)]",[],[1],[0.5166666666666666],vertical,"(890.0, 762.0)",0.95,0.475,1,2250.967,2
0,358,catch,"[(1076, 789)]",[],[1],[],horizontal,"(390.0, 762.0)",1.5333333333333332,nan,1,2257.117,2
0,359,target,"[(1076, 781)]",[],[1],[0.7666666666666666],horizontal,"(390.0, 762.0)",1.0833333333333333,0.721,1,2262.399,2
0,360,target,"[(1072, 783)]",[],[1],[0.55],vertical,"(390.0, 762.0)",0.85,0.51,1,2268.184,2
0,361,target,"[(1062, 776)]",[],[1],[0.48333333333333334],horizontal,"(890.0, 262.0)",1.5166666666666666,0.439,1,2273.766,2
0,362,target,"[(1090, 785)]",[],[1],[0.1],horizontal,"(890.0, 262.0)",0.5,0.066,0,2279.651,0
0,363,target,"[(1057, 772)]",[],[1],[0.65],vertical,"(890.0, 762.0)",1.4,0.6,1,2283.356,1
0,364,target,"[(1060, 773)]",[],[1],[0.85],horizontal,"(390.0, 762.0)",0.5833333333333334,nan,0,2288.5,0
0,365,target,"[(1058, 776)]",[],[1],[0.3],vertical,"(890.0, 262.0)",1.6666666666666667,0.265,1,2293.434,1
0,366,target,"[(1091, 767)]",[],[1],[0.5666666666666667],vertical,"(890.0, 262.0)",0.5333333333333333,0.523,1,2298.849,1
0,367,target,"[(1081, 780)]",[],[1],[0.31666666666666665],vertical,"(890.0, 262.0)",1.4833333333333334,0.283,1,2303.42,1
0,368,target,"[(1066, 765)]",[],[1],[0.4666666666666667],vertical,"(890.0, 262.0)",1.2,0.433,1,2308.61,2
0,369,target,"[(1085, 782)]",[],[1],[0.21666666666666667],horizontal,"(890.0, 762.0)",1.6166666666666667,0.182,0,2313.926,0
0,370,target,"[(1057, 767)]",[],[1],[0.6166666666666667],horizontal,"(390.0, 762.0)",0.8166666666666667,0.576,1,2319.021,1
0,371,target,"[(1081, 800)]",[],[1],[0.6666666666666666],vertical,"(390.0, 262.0)",0.5333333333333333,0.614,1,2323.459,1
0,372,target,"[(1076, 778)]",[],[1],[0.75],horizontal,"(390.0, 762.0)",1.1333333333333333,0.703,1,2328.067,1
0,373,target,"[(1067, 779)]",[],[1],[0.85],horizontal,"(390.0, 762.0)",0.55,nan,0,2333.434,0
0,374,target,"[(1058, 791)]",[],[1],[0.5666666666666667],horizontal,"(890.0, 262.0)",0.75,0.523,1,2337.551,1
0,375,target,"[(1047, 761)]",[],[1],[0.6333333333333333],horizontal,"(390.0, 762.0)",0.8333333333333334,0.588,1,2342.125,1
0,376,target,"[(1076, 741), (1076, 792)]",[],"[0, 1]",[0.85],vertical,"(390.0, 762.0)",1.4833333333333334,nan,0,2347.419,0
0,377,target,"[(1050, 750), (1074, 781)]",[],"[0, 1]",[0.6833333333333333],horizontal,"(890.0, 762.0)",1.0166666666666666,0.642,1,2353.883,1
0,378,catch,"[(1085, 786)]",[],[1],[],vertical,"(390.0, 762.0)",1.55,nan,1,2359.85,1
0,379,catch,"[(1076, 770)]",[],[1],[],vertical,"(890.0, 262.0)",1.4833333333333334,nan,1,2364.736,1
0,380,target,"[(1085, 765)]",[],[1],[0.6833333333333333],horizontal,"(890.0, 262.0)",0.6666666666666666,0.637,1,2369.412,2
0,381,target,"[(1086, 750), (1052, 796)]",[],"[0, 1]",[0.5833333333333334],horizontal,"(390.0, 262.0)",0.9333333333333333,0.535,1,2374.209,2
0,382,catch,"[(1068, 800)]",[],[1],[],horizontal,"(890.0, 262.0)",,"('cti', 1.264),nan",0,2380.968,0
0,383,target,"[(1058, 765)]",[],[1],[0.5666666666666667],vertical,"(390.0, 262.0)",0.6166666666666667,0.522,1,2386.118,1
0,384,target,"[(1110, 763)]",[],[1],[0.85],vertical,"(390.0, 762.0)",0.85,nan,0,2391.034,0
0,385,target,"[(1064, 756)]",[],[1],[0.6],vertical,"(390.0, 262.0)",1.3166666666666667,0.558,1,2395.383,1
0,386,target,"[(1057, 755)]",[],[1],[0.65],horizontal,"(390.0, 262.0)",1.3833333333333333,0.605,1,2400.865,1
0,387,target,"[(1083, 766)]",[],[1],[0.25],vertical,"(890.0, 762.0)",1.45,0.217,1,2405.926,1
0,388,target,"[(1096, 759)]",[],[1],[0.5333333333333333],horizontal,"(390.0, 262.0)",1.0333333333333332,0.495,1,2411.175,2
0,389,target,"[(1077, 775)]",[],[1],[0.35],horizontal,"(890.0, 262.0)",1.4,0.314,1,2416.746,2
0,390,target,"[(1066, 770)]",[],[1],[0.5666666666666667],horizontal,"(890.0, 762.0)",0.8666666666666667,0.521,1,2422.268,2
0,391,target,"[(1062, 772)]",[],[1],[0.25],horizontal,"(890.0, 762.0)",1.25,0.216,1,2427.767,2
0,392,target,"[(1086, 769)]",[],[1],[],vertical,"(890.0, 262.0)",,"('cti', 1.292)",0,2433.397,0
0,393,target,"[(1066, 781)]",[],[1],[0.4166666666666667],horizontal,"(390.0, 262.0)",1.5,0.377,1,2437.684,1
0,394,target,"[(1091, 768)]",[],[1],[0.5333333333333333],vertical,"(390.0, 762.0)",1.1,0.491,1,2443.161,1
0,395,target,"[(1089, 774)]",[],[1],[0.55],horizontal,"(890.0, 762.0)",1.2833333333333332,0.507,1,2447.949,1
0,396,target,"[(1087, 775)]",[],[1],[0.13333333333333333],vertical,"(890.0, 762.0)",1.6166666666666667,0.101,0,2453.451,0
0,397,target,"[(1050, 762)]",[],[1],[],horizontal,"(890.0, 762.0)",,"('cti', 1.284)",0,2458.118,0
0,398,target,"[(1087, 771)]",[],[1],[0.5333333333333333],vertical,"(390.0, 762.0)",0.7833333333333333,0.491,1,2463.851,1
0,399,target,"[(1064, 764)]",[],[1],[0.5833333333333334],vertical,"(390.0, 762.0)",0.9166666666666666,0.541,1,2468.733,1
0,400,target,"[(1073, 776)]",[],[1],[0.2833333333333333],horizontal,"(890.0, 262.0)",1.2833333333333332,0.245,1,2473.899,1
0,401,target,"[(1086, 771)]",[],[1],[0.5666666666666667],horizontal,"(890.0, 762.0)",1.1166666666666667,0.525,1,2478.903,2
0,402,target,"[(1082, 772)]",[],[1],[0.5166666666666666],vertical,"(890.0, 762.0)",1.0666666666666667,0.476,1,2484.034,2
0,403,target,"[(1084, 762)]",[],[1],[0.25],horizontal,"(890.0, 762.0)",1.2833333333333332,0.211,1,2489.652,2
0,404,target,"[(1057, 757)]",[],[1],[0.6333333333333333],vertical,"(890.0, 762.0)",0.7166666666666667,0.593,1,2495.283,2
0,405,target,"[(1082, 781)]",[],[1],[0.3833333333333333],horizontal,"(390.0, 262.0)",1.25,0.345,1,2499.964,2
0,406,target,"[(1082, 778)]",[],[1],[0.6833333333333333],horizontal,"(390.0, 262.0)",1.15,0.641,1,2505.459,3
0,407,target,"[(1081, 777)]",[],[1],[0.48333333333333334],horizontal,"(390.0, 262.0)",1.3833333333333333,0.449,1,2511.717,3
0,408,target,"[(1076, 782)]",[],[1],[0.5],horizontal,"(890.0, 262.0)",0.7666666666666666,0.46,1,2518.068,3
0,409,target,"[(1105, 762)]",[],[1],[0.85],vertical,"(390.0, 762.0)",1.0166666666666666,nan,0,2523.685,0
0,410,target,"[(1057, 781)]",[],[1],[0.5666666666666667],vertical,"(890.0, 262.0)",1.0166666666666666,0.527,1,2528.295,1
0,411,target,"[(1100, 773)]",[],[1],[0.2833333333333333],vertical,"(890.0, 762.0)",1.6666666666666667,0.245,1,2533.633,1
0,412,target,"[(1057, 761)]",[],[1],[0.2],vertical,"(390.0, 262.0)",1.65,0.163,0,2538.735,0
0,413,target,"[(1062, 761)]",[],[1],[0.6833333333333333],vertical,"(890.0, 262.0)",0.8,0.637,1,2543.817,1
0,414,target,"[(1074, 773)]",[],[1],[0.85],horizontal,"(390.0, 762.0)",0.6833333333333333,nan,0,2548.468,0
0,415,target,"[(1067, 775)]",[],[1],[0.5333333333333333],vertical,"(890.0, 262.0)",0.7333333333333333,0.493,1,2553.018,1
0,416,target,"[(1077, 776)]",[],[1],[0.5833333333333334],vertical,"(390.0, 762.0)",0.8,0.541,1,2558.118,1
0,417,target,"[(1085, 776)]",[],[1],[0.6166666666666667],vertical,"(390.0, 762.0)",1.0833333333333333,0.573,1,2562.702,1
0,418,target,"[(1084, 762)]",[],[1],[0.6],vertical,"(390.0, 262.0)",1.2833333333333332,0.558,1,2567.651,2
0,419,target,"[(1103, 765)]",[],[1],[0.5],vertical,"(890.0, 262.0)",0.8,0.46,1,2573.218,2
0,420,target,"[(1079, 783)]",[],[1],[0.55],vertical,"(390.0, 262.0)",0.6666666666666666,0.505,1,2578.399,2
0,421,target,"[(1062, 736), (1047, 791)]",[],"[0, 1]",[0.55],horizontal,"(890.0, 762.0)",1.1333333333333333,0.51,1,2583.252,2
0,422,target,"[(1053, 781)]",[],[1],[],horizontal,"(390.0, 762.0)",,"('cti', 0.544)",0,2590.034,0
0,423,target,"[(1062, 791)]",[],[1],[0.5],horizontal,"(390.0, 762.0)",1.2166666666666666,0.462,1,2594.611,1
0,424,target,"[(1066, 784)]",[],[1],[],vertical,"(890.0, 262.0)",,"('cti', 1.539)",0,2599.92,0
0,425,target,"[(1047, 756)]",[],[1],[0.5],vertical,"(890.0, 262.0)",1.0166666666666666,0.465,1,2604.09,1
0,426,target,"[(1072, 783)]",[],[1],[0.85],vertical,"(390.0, 762.0)",0.6166666666666667,nan,0,2610.709,0
0,427,target,"[(1049, 785)]",[],[1],[0.5833333333333334],vertical,"(390.0, 262.0)",1.5333333333333332,0.541,1,2615.252,1
0,428,target,"[(1057, 791)]",[],[1],[0.5333333333333333],vertical,"(390.0, 262.0)",0.8333333333333334,0.499,1,2620.568,1
0,429,target,"[(1066, 774)]",[],[1],[0.11666666666666667],vertical,"(890.0, 262.0)",1.5833333333333333,0.084,0,2625.166,0
0,430,target,"[(1062, 768)]",[],[1],[0.43333333333333335],vertical,"(890.0, 762.0)",1.3,0.402,1,2630.244,1
0,431,target,"[(1062, 769)]",[],[1],[0.5166666666666666],horizontal,"(890.0, 762.0)",0.9833333333333333,0.476,1,2635.201,1
0,432,target,"[(1078, 758)]",[],[1],[0.15],horizontal,"(390.0, 262.0)",1.6166666666666667,0.117,0,2640.167,0
0,433,target,"[(1062, 760)]",[],[1],[0.48333333333333334],vertical,"(390.0, 262.0)",1.4,0.441,1,2645.052,1
0,434,target,"[(1101, 777)]",[],[1],[0.5166666666666666],vertical,"(890.0, 262.0)",1.4833333333333334,0.475,1,2649.946,1
0,435,catch,"[(1072, 772)]",[],[1],[],horizontal,"(390.0, 762.0)",1.5833333333333333,nan,1,2655.333,1
0,436,catch,"[(1075, 756)]",[],[1],[],horizontal,"(890.0, 762.0)",1.5333333333333332,nan,1,2660.12,2
0,437,target,"[(1088, 765)]",[],[1],[0.43333333333333335],horizontal,"(390.0, 762.0)",1.45,0.395,1,2665.629,2
0,438,target,"[(1086, 782)]",[],[1],[0.5333333333333333],vertical,"(890.0, 762.0)",0.95,0.492,1,2671.277,2
0,439,target,"[(1072, 774)]",[],[1],[0.6],horizontal,"(390.0, 762.0)",1.3333333333333333,0.562,1,2676.723,2
0,440,target,"[(1067, 761)]",[],[1],[0.35],horizontal,"(390.0, 762.0)",1.6833333333333333,0.314,1,2682.444,2
0,441,target,"[(1072, 765)]",[],[1],[0.55],horizontal,"(390.0, 262.0)",1.05,0.505,1,2688.486,3
0,442,catch,"[(1105, 778)]",[],[1],[],horizontal,"(890.0, 262.0)",1.6166666666666667,"('cti', 1.616),nan",0,2694.533,0
0,443,catch,"[(1063, 766)]",[],[1],[],horizontal,"(390.0, 762.0)",1.35,nan,1,2699.568,1
0,444,target,"[(1055, 766)]",[],[1],[0.5333333333333333],vertical,"(890.0, 262.0)",0.8666666666666667,0.495,1,2704.486,1
0,445,target,"[(1103, 765)]",[],[1],[0.85],vertical,"(390.0, 262.0)",0.8333333333333334,nan,0,2710.285,0
0,446,catch,"[(1086, 789)]",[],[1],[],vertical,"(890.0, 262.0)",1.6,nan,1,2714.681,1
0,447,target,"[(1082, 752), (1057, 786)]",[],"[0, 1]",[0.6],vertical,"(890.0, 762.0)",0.65,0.564,1,2719.852,1
0,448,target,"[(1094, 785)]",[],[1],[0.85],horizontal,"(390.0, 762.0)",0.8,nan,0,2725.392,0
0,449,target,"[(1066, 775)]",[],[1],[0.55],horizontal,"(390.0, 262.0)",1.1666666666666667,0.511,1,2729.874,1
0,450,target,"[(1085, 776)]",[],[1],[0.4166666666666667],vertical,"(390.0, 762.0)",1.4333333333333333,0.377,1,2734.779,1
0,451,target,"[(1083, 785)]",[],[1],[0.4666666666666667],vertical,"(390.0, 262.0)",1.25,0.434,1,2740.043,1
0,452,target,"[(1069, 773)]",[],[1],[0.6166666666666667],horizontal,"(890.0, 762.0)",1.0166666666666666,0.573,1,2745.217,2
0,453,target,"[(1072, 783)]",[],[1],[0.4666666666666667],vertical,"(890.0, 262.0)",1.6166666666666667,0.427,1,2750.668,2
0,454,target,"[(1076, 775)]",[],[1],[0.65],horizontal,"(390.0, 762.0)",0.75,0.611,1,2756.652,2
0,455,target,"[(1068, 737), (1053, 781)]",[],"[0, 1]",[0.5333333333333333],horizontal,"(890.0, 262.0)",0.6,0.491,1,2761.684,2
0,456,target,"[(1087, 778)]",[],[1],[0.5333333333333333],horizontal,"(890.0, 262.0)",0.5666666666666667,0.489,1,2767.666,2
0,457,target,"[(1067, 765)]",[],[1],[0.55],horizontal,"(890.0, 262.0)",0.9,0.509,1,2772.852,3
0,458,target,"[(1069, 762)]",[],[1],[0.5],vertical,"(890.0, 762.0)",1.2,0.458,1,2778.069,3
0,459,target,"[(1061, 765)]",[],[1],[0.85],vertical,"(390.0, 762.0)",1.0,nan,0,2784.002,0
0,460,target,"[(1067, 780)]",[],[1],[0.6666666666666666],vertical,"(390.0, 762.0)",0.7,0.625,1,2789.186,1
0,461,target,"[(1078, 756)]",[],[1],[0.85],horizontal,"(390.0, 262.0)",0.9,nan,0,2794.22,0
0,462,target,"[(1095, 781)]",[],[1],[0.6],vertical,"(390.0, 762.0)",0.8333333333333334,0.561,1,2799.12,1
0,463,target,"[(1083, 764)]",[],[1],[],horizontal,"(390.0, 262.0)",,"('cti', 1.245)",0,2804.21,0
0,464,target,"[(1082, 779)]",[],[1],[0.48333333333333334],horizontal,"(890.0, 762.0)",1.3833333333333333,0.448,1,2808.836,1
0,465,target,"[(1076, 776)]",[],[1],[0.45],horizontal,"(890.0, 262.0)",1.4833333333333334,0.417,1,2814.135,1
0,466,target,"[(1084, 774)]",[],[1],[0.5833333333333334],vertical,"(390.0, 762.0)",0.9166666666666666,0.542,1,2819.67,1
0,467,target,"[(1109, 778)]",[],[1],[0.85],horizontal,"(390.0, 762.0)",0.9833333333333333,nan,0,2824.302,0
0,468,target,"[(1067, 781)]",[],[1],[0.5666666666666667],horizontal,"(390.0, 762.0)",1.2833333333333332,0.525,1,2829.452,1
0,469,catch,"[(1083, 753), (1048, 782)]",[],"[0, 1]",[],vertical,"(890.0, 762.0)",1.4333333333333333,nan,1,2834.972,1
0,470,target,"[(1082, 770)]",[],[1],[0.31666666666666665],vertical,"(390.0, 762.0)",1.5333333333333332,0.279,1,2840.837,1
0,471,target,"[(1105, 774)]",[],[1],[0.85],horizontal,"(390.0, 762.0)",1.2666666666666666,nan,0,2845.928,0
0,472,target,"[(1066, 774)]",[],[1],[0.25],vertical,"(390.0, 762.0)",1.65,0.211,1,2851.503,1
0,473,catch,"[(1086, 779)]",[],[1],[],vertical,"(890.0, 762.0)",1.6833333333333333,nan,1,2856.47,1
0,474,target,"[(1084, 772)]",[],[1],[0.21666666666666667],horizontal,"(890.0, 762.0)",1.6333333333333333,0.178,0,2861.719,0
0,475,catch,"[(1110, 751), (1062, 778)]",[],"[0, 1]",[],horizontal,"(890.0, 262.0)",1.45,nan,1,2866.617,1
0,476,target,"[(1063, 761)]",[],[1],[0.5833333333333334],horizontal,"(390.0, 262.0)",1.2,0.545,1,2873.173,1
0,477,target,"[(1076, 781)]",[],[1],[0.55],horizontal,"(890.0, 262.0)",1.6333333333333333,0.513,1,2878.47,1
0,478,catch,"[(1059, 769)]",[],[1],[],vertical,"(390.0, 262.0)",1.4833333333333334,nan,1,2884.021,2
0,479,target,"[(1085, 765)]",[],[1],[0.2833333333333333],horizontal,"(390.0, 262.0)",1.6333333333333333,0.246,1,2889.536,2
0,480,target,"[(1100, 772)]",[],[1],[0.45],vertical,"(890.0, 262.0)",1.3166666666666667,0.411,1,2895.439,2
0,481,catch,"[(1118, 779)]",[],[1],[],horizontal,"(890.0, 762.0)",1.3666666666666667,nan,1,2901.114,2
0,482,target,"[(1073, 750), (1066, 802)]",[],"[0, 1]",[0.85],horizontal,"(390.0, 762.0)",0.65,nan,0,2906.572,0
0,483,catch,"[(1052, 761)]",[],[1],[],vertical,"(890.0, 762.0)",1.45,nan,1,2912.402,1
0,484,target,"[(1084, 770)]",[],[1],[0.21666666666666667],horizontal,"(390.0, 262.0)",1.5833333333333333,0.179,0,2917.552,0
0,485,catch,"[(1086, 757)]",[],[1],[],vertical,"(390.0, 762.0)",1.5666666666666667,nan,1,2922.87,1
0,486,target,"[(1096, 804)]",[],[1],[0.8333333333333334],vertical,"(390.0, 762.0)",0.9666666666666667,0.784,1,2927.652,1
0,487,catch,"[(1090, 781)]",[],[1],[],vertical,"(390.0, 762.0)",1.5333333333333332,nan,1,2932.886,1
0,488,target,"[(1074, 772)]",[],[1],[0.23333333333333334],vertical,"(390.0, 762.0)",1.4666666666666666,0.197,0,2938.086,0
0,489,target,"[(1057, 781)]",[],[1],[0.5666666666666667],vertical,"(890.0, 262.0)",1.1333333333333333,0.52,1,2943.252,1
0,490,target,"[(1063, 762)]",[],[1],[0.5666666666666667],horizontal,"(390.0, 262.0)",0.7833333333333333,0.526,1,2948.054,1
0,491,target,"[(1081, 781)]",[],[1],[0.23333333333333334],horizontal,"(890.0, 762.0)",1.65,0.196,0,2953.088,0
0,492,target,"[(1081, 756)]",[],[1],[0.5833333333333334],horizontal,"(890.0, 262.0)",1.2833333333333332,0.535,1,2957.854,1
0,493,catch,"[(1079, 778)]",[],[1],[],vertical,"(390.0, 762.0)",1.6166666666666667,nan,1,2962.952,1
0,494,target,"[(1081, 772)]",[],[1],[0.7166666666666667],vertical,"(390.0, 762.0)",0.85,0.666,1,2967.986,1
0,495,target,"[(1054, 770)]",[],[1],[0.7833333333333333],horizontal,"(390.0, 762.0)",1.0666666666666667,0.731,1,2973.136,2
0,496,target,"[(1073, 767)]",[],[1],[0.6166666666666667],horizontal,"(390.0, 262.0)",1.2666666666666666,0.57,1,2978.727,2
0,497,target,"[(1079, 781)]",[],[1],[0.5166666666666666],vertical,"(890.0, 262.0)",1.15,0.473,1,2983.952,2
0,498,target,"[(1076, 781)]",[],[1],[0.48333333333333334],vertical,"(390.0, 762.0)",1.4833333333333334,0.444,1,2989.533,2
0,499,target,"[(1061, 774)]",[],[1],[0.5666666666666667],horizontal,"(890.0, 762.0)",1.1333333333333333,0.519,1,2995.538,2
0,500,target,"[(1096, 781)]",[],[1],[0.7333333333333333],vertical,"(390.0, 762.0)",1.0333333333333332,0.684,1,3001.204,3
0,501,target,"[(1076, 770)]",[],[1],[0.5333333333333333],horizontal,"(390.0, 262.0)",0.8833333333333333,0.496,1,3007.269,3
0,502,target,"[(1076, 761)]",[],[1],[0.85],vertical,"(390.0, 762.0)",1.05,nan,0,3013.087,0
0,503,target,"[(1071, 786)]",[],[1],[0.6333333333333333],vertical,"(890.0, 762.0)",0.6833333333333333,0.591,1,3017.888,1
0,504,target,"[(1066, 762)]",[],[1],[0.85],vertical,"(390.0, 762.0)",0.8,nan,0,3022.772,0
0,505,target,"[(1070, 774)]",[],[1],[0.43333333333333335],vertical,"(890.0, 262.0)",1.65,0.394,1,3027.103,1
0,506,catch,"[(1077, 752), (1069, 768)]",[],"[0, 1]",[],horizontal,"(890.0, 262.0)",1.6166666666666667,nan,1,3032.654,1
0,507,target,"[(1079, 756)]",[],[1],[0.4166666666666667],horizontal,"(390.0, 762.0)",1.3833333333333333,0.377,1,3039.703,1
0,508,target,"[(1075, 749), (1082, 787)]",[],"[0, 1]",[0.65],horizontal,"(390.0, 762.0)",1.2333333333333334,0.61,1,3044.991,2
0,509,target,"[(1105, 776)]",[],[1],[0.65],horizontal,"(390.0, 262.0)",0.7833333333333333,0.6,1,3051.802,2
0,510,target,"[(1077, 776)]",[],[1],[0.6],horizontal,"(890.0, 262.0)",0.7666666666666666,0.566,1,3056.736,2
0,511,target,"[(1086, 768)]",[],[1],[0.36666666666666664],vertical,"(890.0, 762.0)",1.3833333333333333,0.332,1,3061.903,2
0,512,target,"[(1084, 772)]",[],[1],[0.6],horizontal,"(890.0, 762.0)",0.65,0.561,1,3067.698,2
0,513,target,"[(1081, 785)]",[],[1],[0.6666666666666666],horizontal,"(390.0, 762.0)",1.05,0.622,1,3072.988,3
0,514,target,"[(1062, 779)]",[],[1],[0.36666666666666664],vertical,"(390.0, 262.0)",1.5,0.326,1,3078.936,3
0,515,catch,"[(1086, 770)]",[],[1],[],vertical,"(890.0, 262.0)",1.4833333333333334,nan,1,3085.12,3
0,516,target,"[(1081, 786)]",[],[1],[0.85],vertical,"(390.0, 762.0)",0.8833333333333333,nan,0,3091.058,0
0,517,target,"[(1062, 782)]",[],[1],[0.6166666666666667],vertical,"(890.0, 262.0)",0.7666666666666666,0.578,1,3096.053,1
0,518,target,"[(1084, 777)]",[],[1],[0.3833333333333333],vertical,"(890.0, 262.0)",1.2333333333333334,0.356,1,3100.502,1
0,519,target,"[(1068, 776)]",[],[1],[0.6166666666666667],horizontal,"(890.0, 262.0)",1.0166666666666666,0.573,1,3105.837,1
0,520,target,"[(1060, 776)]",[],[1],[0.35],vertical,"(890.0, 262.0)",1.4,0.314,1,3110.903,2
0,521,catch,"[(1087, 768)]",[],[1],[],horizontal,"(390.0, 262.0)",,"('cti', 1.224),nan",0,3116.105,0
0,522,target,"[(1018, 776)]",[],[1],[0.6],horizontal,"(890.0, 262.0)",1.5333333333333332,0.556,1,3120.66,1
0,523,target,"[(1060, 776)]",[],[1],[0.5],horizontal,"(390.0, 762.0)",0.8,0.462,1,3179.505,1
0,524,target,"[(1067, 757)]",[],[1],[0.4666666666666667],horizontal,"(890.0, 762.0)",1.2166666666666666,0.427,1,3184.303,1
0,525,target,"[(1076, 776)]",[],[1],[0.85],horizontal,"(890.0, 762.0)",1.6833333333333333,"('cti', 1.673),nan",0,3189.12,0
0,526,target,"[(1062, 795)]",[],[1],[0.5666666666666667],horizontal,"(890.0, 262.0)",1.1833333333333333,0.525,1,3195.121,1
0,527,target,"[(1110, 779)]",[],[1],[0.3333333333333333],horizontal,"(390.0, 262.0)",1.4666666666666666,0.295,1,3200.05,1
0,528,target,"[(1082, 777)]",[],[1],[0.4166666666666667],vertical,"(390.0, 262.0)",1.5,0.378,1,3205.369,1
0,529,target,"[(1057, 768)]",[],[1],[0.55],horizontal,"(390.0, 262.0)",1.4166666666666667,0.508,1,3210.384,2
0,530,target,"[(1082, 785)]",[],[1],[0.4166666666666667],vertical,"(890.0, 762.0)",1.4,0.379,1,3215.962,2
0,531,target,"[(1107, 776)]",[],[1],[0.06666666666666667],horizontal,"(890.0, 262.0)",1.65,0.037,0,3221.353,0
0,532,target,"[(1053, 769)]",[],[1],[0.48333333333333334],horizontal,"(890.0, 762.0)",1.35,0.438,1,3226.263,1
0,533,target,"[(1081, 770)]",[],[1],[0.85],horizontal,"(390.0, 762.0)",0.8333333333333334,nan,0,3231.772,0
0,534,target,"[(1086, 778)]",[],[1],[0.6333333333333333],vertical,"(890.0, 762.0)",1.0833333333333333,0.591,1,3236.122,1
0,535,target,"[(1081, 753), (1063, 803)]",[],"[0, 1]",[0.5833333333333334],horizontal,"(890.0, 262.0)",0.6333333333333333,0.538,1,3241.071,1
0,536,target,"[(1076, 759)]",[],[1],[0.55],horizontal,"(890.0, 262.0)",1.15,0.507,1,3247.355,1
0,537,target,"[(1086, 756)]",[],[1],[0.5166666666666666],vertical,"(890.0, 262.0)",0.9666666666666667,0.48,1,3252.837,2
0,538,catch,"[(1086, 757)]",[],[1],[],horizontal,"(890.0, 262.0)",1.5666666666666667,nan,1,3258.13,2
0,539,target,"[(1079, 773)]",[],[1],[0.5333333333333333],horizontal,"(390.0, 262.0)",0.7,0.492,1,3263.436,2
0,540,target,"[(1093, 753), (1066, 778)]",[],"[0, 1]",[0.55],horizontal,"(390.0, 762.0)",0.85,0.513,1,3268.505,2
0,541,target,"[(1084, 767)]",[],[1],[0.5],horizontal,"(890.0, 262.0)",1.1666666666666667,0.463,1,3275.171,2
0,542,target,"[(1062, 755)]",[],[1],[0.85],horizontal,"(390.0, 762.0)",0.55,nan,0,3280.605,0
0,543,target,"[(1057, 771)]",[],[1],[0.85],vertical,"(390.0, 762.0)",0.8,nan,0,3285.205,0
0,544,target,"[(1047, 760)]",[],[1],[0.55],horizontal,"(390.0, 762.0)",1.35,0.511,1,3290.103,1
0,545,target,"[(1105, 769)]",[],[1],[0.6833333333333333],vertical,"(890.0, 262.0)",0.65,0.644,1,3295.215,1
0,546,target,"[(1066, 756)]",[],[1],[0.35],vertical,"(890.0, 262.0)",1.3833333333333333,0.312,1,3300.121,1
0,547,catch,"[(1088, 760)]",[],[1],[],horizontal,"(890.0, 262.0)",1.35,nan,1,3305.055,2
0,548,target,"[(1058, 761)]",[],[1],[],vertical,"(890.0, 262.0)",,"('cti', 1.533)",0,3309.904,0
0,549,target,"[(1063, 769)]",[],[1],[0.5166666666666666],horizontal,"(890.0, 262.0)",1.5,0.48,1,3314.826,1
0,550,target,"[(1076, 743), (1062, 795)]",[],"[0, 1]",[0.5],horizontal,"(390.0, 262.0)",0.6333333333333333,0.459,1,3320.067,1
0,551,target,"[(1076, 768)]",[],[1],[0.5833333333333334],horizontal,"(390.0, 262.0)",1.35,0.545,1,3325.922,1
0,552,target,"[(1065, 756)]",[],[1],[0.65],vertical,"(890.0, 762.0)",0.65,0.612,1,3331.272,2
0,553,target,"[(1062, 759)]",[],[1],[0.65],horizontal,"(390.0, 262.0)",0.55,0.611,1,3336.422,2
0,554,target,"[(1079, 762)]",[],[1],[0.85],vertical,"(890.0, 762.0)",0.6833333333333333,nan,0,3341.472,0
0,555,target,"[(1082, 776)]",[],[1],[0.11666666666666667],horizontal,"(390.0, 762.0)",1.2666666666666666,0.088,0,3345.606,0
0,556,target,"[(1052, 771)]",[],[1],[0.16666666666666666],vertical,"(890.0, 762.0)",1.6333333333333333,0.138,0,3350.338,0
0,557,target,"[(1086, 776)]",[],[1],[0.85],vertical,"(390.0, 262.0)",1.3333333333333333,nan,0,3356.106,0
0,558,target,"[(1045, 766)]",[],[1],[0.6333333333333333],vertical,"(890.0, 762.0)",1.2333333333333334,0.592,1,3361.315,1
0,559,target,"[(1062, 751), (1062, 791)]",[],"[0, 1]",[0.45],vertical,"(390.0, 762.0)",1.1166666666666667,0.415,1,3367.508,1
0,560,target,"[(1081, 750), (1081, 774)]",[],"[0, 1]",[0.6333333333333333],vertical,"(890.0, 762.0)",0.5833333333333334,0.591,1,3374.072,1
0,561,target,"[(1075, 759)]",[],[1],[0.5833333333333334],vertical,"(390.0, 262.0)",1.4333333333333333,0.543,1,3380.755,2
0,562,target,"[(1100, 780)]",[],[1],[0.6333333333333333],horizontal,"(390.0, 262.0)",1.25,0.596,1,3386.122,2
0,563,target,"[(1082, 770)]",[],[1],[0.43333333333333335],vertical,"(390.0, 262.0)",1.5166666666666666,0.401,1,3391.985,2
0,564,catch,"[(1085, 780)]",[],[1],[],horizontal,"(890.0, 762.0)",1.6,nan,1,3397.584,2
0,565,target,"[(1093, 777)]",[],[1],[0.85],vertical,"(390.0, 762.0)",0.85,nan,0,3403.022,0
0,566,target,"[(1062, 766)]",[],[1],[0.5666666666666667],vertical,"(890.0, 262.0)",1.5166666666666666,0.528,1,3407.677,1
0,567,target,"[(1032, 785)]",[],[1],[0.08333333333333333],horizontal,"(390.0, 762.0)",0.6666666666666666,0.054,0,3413.005,0
0,568,catch,"[(1018, 800)]",[],[1],[],horizontal,"(390.0, 762.0)",1.65,nan,1,3417.102,1
0,569,target,"[(1077, 821)]",[],[1],[0.4],vertical,"(890.0, 262.0)",1.3333333333333333,0.364,1,4022.377,1
0,570,target,"[(1062, 783)]",[],[1],[0.08333333333333333],horizontal,"(890.0, 762.0)",1.6333333333333333,0.052,0,4028.041,0
0,571,target,"[(1085, 778)]",[],[1],[0.5666666666666667],horizontal,"(890.0, 262.0)",1.0666666666666667,0.528,1,4033.158,1
0,572,catch,"[(1105, 764)]",[],[1],[],horizontal,"(390.0, 762.0)",1.6333333333333333,nan,1,4038.658,1
0,573,catch,"[(1078, 781)]",[],[1],[],vertical,"(390.0, 762.0)",1.5333333333333332,nan,1,4043.735,1
0,574,target,"[(1061, 773)]",[],[1],[0.25],vertical,"(390.0, 262.0)",1.35,0.214,1,4048.659,2
0,575,target,"[(1090, 780)]",[],[1],[0.55],vertical,"(890.0, 762.0)",0.6,0.51,1,4054.43,2
0,576,target,"[(1086, 774)]",[],[1],[0.6166666666666667],vertical,"(890.0, 262.0)",0.7166666666666667,0.574,1,4059.6,2
0,577,target,"[(1086, 766)]",[],[1],[0.85],vertical,"(890.0, 262.0)",0.8,nan,0,4064.659,0
0,578,target,"[(1067, 782)]",[],[1],[0.3],vertical,"(890.0, 262.0)",1.6166666666666667,0.262,1,4069.526,1
0,579,target,"[(1086, 785)]",[],[1],[0.31666666666666665],vertical,"(890.0, 762.0)",1.6833333333333333,0.279,1,4074.924,1
0,580,target,"[(1081, 769)]",[],[1],[],vertical,"(890.0, 262.0)",,"('cti', 1.064)",0,4080.525,0
0,581,catch,"[(1082, 786)]",[],[1],[],horizontal,"(390.0, 762.0)",1.5333333333333332,nan,1,4085.193,1
0,582,target,"[(1081, 780)]",[],[1],[0.48333333333333334],horizontal,"(390.0, 262.0)",0.6833333333333333,0.441,1,4090.276,1
0,583,target,"[(1066, 756)]",[],[1],[0.5666666666666667],horizontal,"(890.0, 762.0)",1.0666666666666667,0.527,1,4094.742,1
0,584,target,"[(1085, 769)]",[],[1],[0.5833333333333334],vertical,"(390.0, 762.0)",1.3666666666666667,0.544,1,4099.893,2
0,585,target,"[(1077, 791)]",[],[1],[0.11666666666666667],vertical,"(890.0, 262.0)",1.5166666666666666,0.087,0,4105.56,0
0,586,target,"[(1037, 786)]",[],[1],[0.55],vertical,"(890.0, 262.0)",0.7,0.511,1,4110.76,1
0,587,target,"[(1081, 781)]",[],[1],[0.5333333333333333],horizontal,"(890.0, 262.0)",1.1,0.493,1,4123.703,1
0,588,target,"[(1078, 784)]",[],[1],[0.5666666666666667],vertical,"(890.0, 262.0)",0.9833333333333333,0.531,1,4129.061,1
0,589,target,"[(1058, 781)]",[],[1],[0.6333333333333333],horizontal,"(890.0, 262.0)",0.5,0.596,1,4134.043,2
0,590,target,"[(1071, 764)]",[],[1],[0.85],horizontal,"(390.0, 762.0)",1.1,nan,0,4139.426,0
0,591,target,"[(1062, 778)]",[],[1],[0.43333333333333335],horizontal,"(390.0, 262.0)",1.3666666666666667,0.393,1,4144.425,1
0,592,target,"[(1080, 781)]",[],[1],[0.55],vertical,"(390.0, 762.0)",1.0,0.516,1,4150.988,1
0,593,target,"[(1079, 756)]",[],[1],[0.5666666666666667],vertical,"(890.0, 762.0)",0.7666666666666666,0.525,1,4155.602,1
0,594,target,"[(1062, 765)]",[],[1],[0.5666666666666667],vertical,"(890.0, 762.0)",0.7833333333333333,0.529,1,4160.043,2
0,595,target,"[(1071, 782)]","[(1062, 796)]",[1],[0.18333333333333332],horizontal,"(390.0, 262.0)",,"('bar', 0.2)",0,4165.154,0
0,596,target,"[(1062, 776)]",[],[1],[0.5666666666666667],horizontal,"(890.0, 262.0)",1.15,0.528,1,4167.775,1
0,597,target,"[(1086, 766)]",[],[1],[0.6166666666666667],vertical,"(890.0, 262.0)",0.75,0.575,1,4172.984,1
0,598,target,"[(1105, 789)]",[],[1],[0.26666666666666666],horizontal,"(390.0, 762.0)",1.6166666666666667,0.23,1,4177.643,1
0,599,target,"[(1073, 765)]",[],[1],[0.21666666666666667],vertical,"(890.0, 262.0)",1.6166666666666667,0.182,0,4183.055,0
0,600,target,"[(1076, 749), (1057, 766)]",[],"[0, 1]",[0.55],horizontal,"(390.0, 262.0)",1.1166666666666667,0.505,1,4188.192,1
0,601,target,"[(1083, 752), (1068, 785)]",[],"[0, 1]",[0.48333333333333334],horizontal,"(390.0, 762.0)",1.6166666666666667,0.451,1,4194.45,1
0,602,target,"[(1062, 800)]",[],[1],[0.6],vertical,"(890.0, 762.0)",1.6333333333333333,0.564,1,4201.143,1
0,603,target,"[(994, 758), (1052, 797)]",[],"[0, 1]",[0.8166666666666667],horizontal,"(390.0, 762.0)",1.2166666666666666,0.773,1,4207.559,2
0,604,target,"[(1062, 778)]",[],[1],[0.5833333333333334],vertical,"(890.0, 762.0)",0.65,0.55,1,4214.818,2
0,605,target,"[(1072, 772)]",[],[1],[0.65],vertical,"(890.0, 762.0)",0.7833333333333333,0.61,1,4220.403,2
0,606,target,"[(1082, 759)]",[],[1],[0.5666666666666667],vertical,"(390.0, 262.0)",0.65,0.523,1,4225.343,2
0,607,target,"[(1061, 778)]",[],[1],[0.5333333333333333],horizontal,"(890.0, 262.0)",0.5,0.493,1,4230.309,2
0,608,target,"[(1076, 763)]",[],[1],"[0.85, 0.85]",vertical,"(390.0, 762.0)",1.0333333333333332,"0.801,nan",0,4235.96,0
0,609,target,"[(1064, 770)]",[],[1],[0.85],vertical,"(390.0, 262.0)",0.8333333333333334,nan,0,4241.064,0
0,610,target,"[(1060, 769)]",[],[1],[0.5833333333333334],horizontal,"(890.0, 262.0)",0.9,0.543,1,4245.659,1
0,611,target,"[(1068, 791)]",[],[1],[0.5166666666666666],horizontal,"(390.0, 262.0)",1.2166666666666666,0.484,1,4250.524,1
0,612,target,"[(1081, 746), (1041, 764)]",[],"[0, 1]",[0.65],horizontal,"(390.0, 262.0)",1.4166666666666667,0.612,1,4255.65,1
0,613,target,"[(1081, 765)]",[],[1],[0.55],horizontal,"(390.0, 262.0)",1.5,0.513,1,4262.342,2
0,614,catch,"[(1085, 782)]",[],[1],[],vertical,"(390.0, 262.0)",1.45,nan,1,4268.327,2
0,615,target,"[(1082, 772)]",[],[1],[0.6166666666666667],horizontal,"(890.0, 262.0)",0.7333333333333333,0.576,1,4273.344,2
0,616,target,"[(1057, 759)]",[],[1],[0.85],horizontal,"(390.0, 262.0)",0.5166666666666666,nan,0,4278.427,0
0,617,target,"[(1061, 755)]",[],[1],[0.5166666666666666],vertical,"(390.0, 262.0)",1.5166666666666666,0.475,1,4282.911,1
0,618,target,"[(1086, 761)]",[],[1],[0.5333333333333333],vertical,"(890.0, 262.0)",0.8833333333333333,0.488,1,4288.016,1
0,619,target,"[(1086, 770)]",[],[1],[0.6],vertical,"(890.0, 762.0)",1.1833333333333333,0.559,1,4292.81,1
0,620,target,"[(1096, 762)]",[],[1],[0.36666666666666664],vertical,"(390.0, 762.0)",1.3666666666666667,0.326,1,4297.627,2
0,621,target,"[(1073, 747), (1062, 776)]",[],"[0, 1]",[0.5833333333333334],vertical,"(890.0, 762.0)",1.1,0.537,1,4303.311,2
0,622,target,"[(1081, 765)]",[],[1],[0.7],horizontal,"(890.0, 262.0)",0.8833333333333333,0.651,1,4309.57,2
0,623,target,"[(1072, 761)]",[],[1],[0.13333333333333333],horizontal,"(890.0, 762.0)",1.6666666666666667,0.102,0,4315.06,0
0,624,target,"[(1067, 727), (1086, 777)]",[],"[0, 1]",[0.36666666666666664],horizontal,"(890.0, 762.0)",1.6166666666666667,0.328,1,4320.061,1
0,625,target,"[(1086, 760)]",[],[1],[0.85],vertical,"(390.0, 762.0)",1.3666666666666667,nan,0,4327.582,0
0,626,target,"[(1062, 766)]",[],[1],[0.5666666666666667],vertical,"(890.0, 262.0)",1.3166666666666667,0.526,1,4332.877,1
0,627,target,"[(1100, 758)]",[],[1],[0.5333333333333333],vertical,"(390.0, 262.0)",0.9833333333333333,0.49,1,4338.309,1
0,628,target,"[(1086, 748), (1063, 765)]",[],"[0, 1]",[0.6666666666666666],vertical,"(390.0, 762.0)",0.5666666666666667,0.618,1,4342.976,1
0,629,target,"[(1082, 765)]",[],[1],[0.5166666666666666],vertical,"(390.0, 762.0)",1.3666666666666667,0.476,1,4349.458,2
0,630,target,"[(1117, 782)]",[],[1],[0.5333333333333333],horizontal,"(890.0, 762.0)",0.9333333333333333,0.489,1,4355.179,2
0,631,target,"[(1094, 776)]",[],[1],[0.85],horizontal,"(390.0, 262.0)",1.15,nan,0,4360.422,0
0,632,target,"[(1061, 762)]",[],[1],[0.6],vertical,"(890.0, 762.0)",0.85,0.552,1,4365.325,1
0,633,target,"[(1091, 766)]",[],[1],[0.6166666666666667],vertical,"(390.0, 262.0)",1.05,0.569,1,4369.87,1
0,634,target,"[(1086, 779)]",[],[1],[0.6],horizontal,"(390.0, 262.0)",1.4333333333333333,0.557,1,4374.685,1
0,635,target,"[(1100, 754)]",[],[1],[0.8333333333333334],horizontal,"(390.0, 262.0)",1.1666666666666667,0.779,1,4380.107,2
0,636,target,"[(1083, 766)]",[],[1],[0.25],horizontal,"(890.0, 762.0)",1.6166666666666667,0.214,1,4385.888,2
0,637,target,"[(1086, 768)]",[],[1],[0.5666666666666667],vertical,"(390.0, 762.0)",1.3166666666666667,0.521,1,4391.344,2
0,638,target,"[(1066, 759)]","[(1062, 779)]",[1],[0.21666666666666667],horizontal,"(390.0, 262.0)",,"('bar', 0.229)",0,4396.778,0
0,639,target,"[(1057, 801)]",[],[1],[0.5833333333333334],horizontal,"(890.0, 262.0)",0.8166666666666667,0.539,1,4399.423,1
0,640,target,"[(1076, 770)]",[],[1],[0.5166666666666666],horizontal,"(890.0, 262.0)",1.25,0.476,1,4407.094,1
0,641,target,"[(1066, 784)]",[],[1],[0.21666666666666667],vertical,"(390.0, 762.0)",1.5166666666666666,0.179,0,4412.043,0
0,642,target,"[(1047, 783)]",[],[1],[0.3],vertical,"(390.0, 262.0)",1.5666666666666667,0.263,1,4417.443,1
0,643,target,"[(1103, 762)]",[],[1],[0.6],vertical,"(890.0, 262.0)",0.5666666666666667,0.56,1,4423.145,1
0,644,target,"[(1074, 781)]",[],[1],[0.5333333333333333],horizontal,"(390.0, 262.0)",1.15,0.493,1,4428.028,1
0,645,target,"[(1053, 767)]",[],[1],[0.85],horizontal,"(890.0, 762.0)",0.9166666666666666,nan,0,4433.194,0
0,646,target,"[(1067, 784)]",[],[1],[0.65],horizontal,"(890.0, 762.0)",0.9833333333333333,0.605,1,4437.999,1
0,647,target,"[(1023, 793)]",[],[1],[0.36666666666666664],horizontal,"(390.0, 762.0)",1.55,0.325,1,4443.088,1
0,648,target,"[(1092, 762)]",[],[1],[0.7166666666666667],vertical,"(390.0, 262.0)",1.2833333333333332,0.672,1,4450.227,1
0,649,target,"[(1072, 771)]",[],[1],[0.6166666666666667],horizontal,"(890.0, 762.0)",1.1833333333333333,0.576,1,4455.133,2
0,650,target,"[(1037, 785)]",[],[1],[0.3833333333333333],horizontal,"(390.0, 262.0)",1.4666666666666666,0.346,1,4461.126,2
0,651,target,"[(1081, 773)]",[],[1],[0.18333333333333332],horizontal,"(390.0, 262.0)",1.6166666666666667,0.148,0,4467.159,0
0,652,target,"[(1080, 780)]",[],[1],[0.5],vertical,"(390.0, 262.0)",1.2833333333333332,0.46,1,4472.294,1
0,653,catch,"[(58, 811), (1210, 767)]",[],"[0, 1]",[],horizontal,"(390.0, 262.0)",,"('fix', 0.068),nan",0,4477.377,0
0,654,target,"[(1216, 746), (1041, 806)]",[],"[0, 1]",[0.85],vertical,"(390.0, 762.0)",1.1833333333333333,nan,0,4805.369,0
0,655,target,"[(1017, 792)]",[],[1],[0.85],horizontal,"(390.0, 262.0)",0.7666666666666666,nan,0,5703.92,0
0,656,target,"[(1053, 801)]",[],[1],[0.4166666666666667],vertical,"(390.0, 762.0)",1.4666666666666666,0.375,1,5709.785,1
0,657,catch,"[(1056, 780)]",[],[1],[],vertical,"(390.0, 262.0)",1.6,nan,1,5715.813,1
0,658,target,"[(1079, 778)]",[],[1],[0.5333333333333333],horizontal,"(390.0, 262.0)",0.8166666666666667,0.491,1,5721.15,1
0,659,target,"[(1091, 778)]",[],[1],[0.6],horizontal,"(390.0, 762.0)",1.4,0.557,1,5726.242,2
0,660,target,"[(1099, 759)]",[],[1],[0.5166666666666666],horizontal,"(890.0, 262.0)",1.2666666666666666,0.475,1,5731.951,2
0,661,target,"[(1085, 757)]",[],[1],[],horizontal,"(890.0, 762.0)",,"('fix', 0.479)",0,5737.062,0
0,662,target,"[(1008, 775)]",[],[1],[0.85],horizontal,"(890.0, 762.0)",0.6166666666666667,nan,0,5738.853,0
0,663,target,"[(1043, 785)]",[],[1],[],vertical,"(390.0, 262.0)",,"('cti', 1.093)",0,5749.218,0
0,664,target,"[(1043, 809)]",[],[1],[0.6166666666666667],vertical,"(890.0, 262.0)",0.9666666666666667,0.569,1,5754.044,1
0,665,target,"[(1072, 778)]",[],[1],[0.5666666666666667],vertical,"(890.0, 762.0)",0.6166666666666667,0.519,1,5759.267,1
0,666,target,"[(1100, 781)]",[],[1],[0.6],horizontal,"(390.0, 762.0)",0.8166666666666667,0.555,1,5764.367,1
0,667,target,"[(1065, 766)]",[],[1],[0.15],vertical,"(390.0, 762.0)",1.6,0.116,0,5769.045,0
0,668,target,"[(1079, 776)]",[],[1],[0.55],horizontal,"(890.0, 262.0)",1.1666666666666667,0.504,1,5774.034,1
0,669,target,"[(1085, 762)]",[],[1],[0.6166666666666667],horizontal,"(390.0, 762.0)",0.6,0.575,1,5779.209,1
0,670,catch,"[(1103, 764)]",[],[1],[],vertical,"(890.0, 262.0)",1.5,nan,1,5784.055,1
0,671,target,"[(1045, 772)]",[],[1],[0.85],horizontal,"(390.0, 762.0)",0.5,nan,0,5788.538,0
0,672,target,"[(1073, 773)]",[],[1],[0.6333333333333333],vertical,"(890.0, 762.0)",0.5666666666666667,0.586,1,5792.834,1
0,673,target,"[(1062, 786)]",[],[1],[0.3333333333333333],vertical,"(890.0, 762.0)",1.4166666666666667,0.299,1,5797.696,1
0,674,target,"[(1088, 764)]",[],[1],[0.5166666666666666],horizontal,"(890.0, 262.0)",0.9833333333333333,0.47,1,5802.467,1
0,675,target,"[(1084, 776)]",[],[1],[0.5333333333333333],vertical,"(890.0, 762.0)",1.5833333333333333,0.494,1,5807.484,2
0,676,catch,"[(1083, 765)]",[],[1],[],horizontal,"(390.0, 762.0)",1.5666666666666667,nan,1,5812.935,2
0,677,target,"[(1096, 760)]",[],[1],[0.6333333333333333],horizontal,"(890.0, 262.0)",0.5833333333333334,0.59,1,5818.571,2
0,678,target,"[(1082, 767)]",[],[1],[0.45],horizontal,"(890.0, 262.0)",0.7666666666666666,0.41,1,5823.634,2
0,679,target,"[(1063, 743), (1066, 770)]",[],"[0, 1]",[0.5333333333333333],horizontal,"(390.0, 262.0)",1.1,0.49,1,5828.596,2
0,680,target,"[(1085, 764)]",[],[1],[0.5833333333333334],vertical,"(890.0, 262.0)",0.55,0.539,1,5834.884,3
0,681,target,"[(1083, 762)]",[],[1],[0.5166666666666666],horizontal,"(890.0, 262.0)",1.2666666666666666,0.474,1,5840.351,3
0,682,target,"[(1084, 769)]",[],[1],[0.3],horizontal,"(390.0, 762.0)",1.4,0.261,1,5845.768,3
0,683,target,"[(1057, 770)]",[],[1],[0.55],horizontal,"(890.0, 262.0)",0.5833333333333334,0.506,1,5851.562,3
0,684,target,"[(1060, 745), (1055, 780)]",[],"[0, 1]",[0.4666666666666667],vertical,"(890.0, 262.0)",1.2833333333333332,0.428,1,5856.83,3
0,685,target,"[(1104, 769)]",[],[1],[0.5833333333333334],horizontal,"(890.0, 262.0)",0.6666666666666666,0.535,1,5864.154,3
0,686,target,"[(1066, 756)]",[],[1],[0.65],vertical,"(890.0, 762.0)",0.9,0.604,1,5869.452,3
0,687,catch,"[(1082, 761)]",[],[1],[],vertical,"(890.0, 762.0)",1.55,nan,1,5875.401,3
0,688,catch,"[(1072, 756)]",[],[1],[],vertical,"(390.0, 762.0)",1.5333333333333332,nan,1,5881.485,3
0,689,target,"[(1089, 772)]",[],[1],[0.13333333333333333],vertical,"(890.0, 262.0)",1.4,0.105,0,5887.334,0
0,690,target,"[(1084, 782)]",[],[1],[0.6666666666666666],vertical,"(390.0, 762.0)",0.9833333333333333,0.619,1,5892.018,1
0,691,target,"[(1081, 767)]",[],[1],[0.55],vertical,"(390.0, 762.0)",0.7666666666666666,0.51,1,5897.147,1
0,692,target,"[(1082, 748), (1071, 792)]",[],"[0, 1]",[0.5666666666666667],horizontal,"(890.0, 262.0)",0.5166666666666666,0.526,1,5901.92,1
0,693,target,"[(1077, 762)]",[],[1],[0.5],vertical,"(890.0, 762.0)",1.3666666666666667,0.459,1,5907.666,2
0,694,target,"[(1094, 785)]",[],[1],[0.85],horizontal,"(890.0, 762.0)",0.55,nan,0,5913.401,0
0,695,target,"[(1082, 773)]",[],[1],[0.6333333333333333],horizontal,"(890.0, 262.0)",0.8,0.587,1,5918.197,1
0,696,target,"[(1105, 765)]",[],[1],[0.5666666666666667],vertical,"(890.0, 262.0)",1.2833333333333332,0.522,1,5923.19,1
0,697,target,"[(1085, 770)]",[],[1],[0.85],horizontal,"(890.0, 262.0)",1.45,"('cti', 1.437),nan",0,5928.074,0
0,698,target,"[(1084, 768)]",[],[1],[0.31666666666666665],horizontal,"(890.0, 262.0)",1.4666666666666666,0.28,1,5933.587,1
0,699,target,"[(1096, 760)]",[],[1],[0.6166666666666667],vertical,"(390.0, 262.0)",0.5166666666666666,0.576,1,5938.691,1
0,700,target,"[(1063, 753), (1062, 759)]",[],"[0, 1]",[0.4666666666666667],horizontal,"(890.0, 262.0)",1.2333333333333334,0.425,1,5943.129,1
0,701,target,"[(1071, 761)]",[],[1],[0.3],horizontal,"(890.0, 762.0)",1.5,0.262,1,5950.098,2
0,702,target,"[(1088, 767)]",[],[1],[0.5333333333333333],horizontal,"(890.0, 762.0)",0.8,0.497,1,5955.683,2
0,703,target,"[(1084, 752), (1062, 760)]",[],"[0, 1]",[0.5166666666666666],vertical,"(890.0, 262.0)",0.5666666666666667,0.479,1,5961.009,2
0,704,target,"[(1086, 756)]",[],[1],[0.6666666666666666],horizontal,"(390.0, 762.0)",1.1,0.632,1,5967.166,2
0,705,target,"[(1061, 749), (1063, 764)]",[],"[0, 1]",[0.5833333333333334],vertical,"(890.0, 762.0)",1.25,0.54,1,5972.451,2
0,706,target,"[(1079, 764)]",[],[1],[0.08333333333333333],vertical,"(390.0, 262.0)",1.4833333333333334,0.051,0,5979.225,0
0,707,target,"[(1077, 765)]",[],[1],[0.43333333333333335],vertical,"(890.0, 262.0)",1.3666666666666667,0.395,1,5983.839,1
0,708,target,"[(1062, 758)]",[],[1],[0.45],vertical,"(390.0, 262.0)",1.4833333333333334,0.412,1,5989.018,1
0,709,catch,"[(1106, 753), (1063, 767)]",[],"[0, 1]",[],horizontal,"(390.0, 762.0)",1.3833333333333333,nan,1,5994.252,1
0,710,target,"[(1082, 762)]",[],[1],[0.7],vertical,"(390.0, 762.0)",0.5833333333333334,0.658,1,6000.152,2
0,711,target,"[(1105, 759)]",[],[1],[0.06666666666666667],horizontal,"(890.0, 262.0)",1.6666666666666667,0.035,0,6004.934,0
0,712,target,"[(1064, 760)]",[],[1],[0.5833333333333334],vertical,"(390.0, 762.0)",0.9666666666666667,0.544,1,6009.152,1
0,713,target,"[(1105, 761)]",[],[1],[0.6166666666666667],vertical,"(390.0, 762.0)",1.3,0.574,1,6013.702,1
0,714,target,"[(1065, 795)]",[],[1],[0.5166666666666666],vertical,"(890.0, 262.0)",0.5666666666666667,0.481,1,6019.214,1
0,715,target,"[(1074, 789)]",[],[1],[0.55],vertical,"(890.0, 262.0)",0.7,0.508,1,6024.018,2
0,716,target,"[(1085, 756)]",[],[1],[0.5333333333333333],vertical,"(890.0, 262.0)",1.5,0.492,1,6028.838,2
0,717,target,"[(1127, 764)]",[],[1],[0.36666666666666664],horizontal,"(890.0, 762.0)",1.4166666666666667,0.329,1,6034.396,2
0,718,target,"[(1086, 769)]",[],[1],[0.26666666666666666],horizontal,"(390.0, 262.0)",1.5166666666666666,0.228,1,6039.436,2
0,719,target,"[(1088, 773)]",[],[1],[0.5833333333333334],vertical,"(890.0, 762.0)",0.95,0.549,1,6044.814,2
0,720,target,"[(1094, 778)]",[],[1],[0.43333333333333335],vertical,"(890.0, 262.0)",1.2166666666666666,0.399,1,6050.26,3
0,721,target,"[(1082, 759)]",[],[1],[0.5],vertical,"(390.0, 262.0)",1.3166666666666667,0.458,1,6056.136,3
0,722,target,"[(1087, 769)]",[],[1],[0.45],vertical,"(390.0, 262.0)",1.4166666666666667,0.407,1,6062.294,3
0,723,target,"[(1084, 774)]",[],[1],[0.5166666666666666],vertical,"(890.0, 262.0)",0.9333333333333333,0.478,1,6068.286,3
0,724,target,"[(1086, 751), (1057, 791)]",[],"[0, 1]",[0.85],horizontal,"(390.0, 262.0)",1.0833333333333333,nan,0,6073.488,0
0,725,target,"[(1084, 761)]",[],[1],[0.7333333333333333],horizontal,"(390.0, 262.0)",1.3166666666666667,0.69,1,6079.045,1
0,726,target,"[(1076, 760)]",[],[1],[0.85],vertical,"(390.0, 762.0)",1.35,nan,0,6084.253,0
0,727,target,"[(1062, 785)]",[],[1],[0.5833333333333334],horizontal,"(390.0, 762.0)",0.5833333333333334,0.546,1,6089.502,1
0,728,target,"[(1077, 796)]",[],[1],[0.7833333333333333],vertical,"(390.0, 762.0)",1.2666666666666666,0.737,1,6094.566,1
0,729,target,"[(1074, 771)]",[],[1],[0.6666666666666666],vertical,"(390.0, 762.0)",0.5,0.626,1,6100.002,1
0,730,target,"[(1087, 750), (1049, 767)]",[],"[0, 1]",[0.5],vertical,"(390.0, 262.0)",1.3166666666666667,0.46,1,6104.569,2
0,731,catch,"[(1077, 754)]",[],[1],[],horizontal,"(890.0, 762.0)",1.4666666666666666,nan,1,6111.303,2
0,732,target,"[(1084, 750), (1076, 769)]",[],"[0, 1]",[0.85],vertical,"(390.0, 262.0)",0.8166666666666667,nan,0,6116.303,0
0,733,target,"[(1062, 755)]",[],[1],[0.3333333333333333],vertical,"(390.0, 262.0)",1.4166666666666667,0.298,1,6122.753,1
0,734,target,"[(1096, 784)]",[],[1],[0.55],vertical,"(390.0, 262.0)",0.85,0.512,1,6128.119,1
0,735,target,"[(1082, 756)]",[],[1],[],horizontal,"(890.0, 762.0)",,"('cti', 1.58)",0,6133.014,0
0,736,catch,"[(1103, 762)]",[],[1],[],horizontal,"(390.0, 262.0)",1.5666666666666667,nan,1,6138.003,1
0,737,target,"[(1062, 791)]",[],[1],[0.85],vertical,"(390.0, 762.0)",0.65,nan,0,6142.58,0
0,738,target,"[(1052, 800)]",[],[1],[0.5833333333333334],vertical,"(390.0, 762.0)",0.9,0.541,1,6147.544,1
0,739,target,"[(1065, 750), (1062, 759)]",[],"[0, 1]",[0.2],vertical,"(390.0, 262.0)",1.6166666666666667,0.165,0,6152.568,0
0,740,catch,"[(1058, 808)]",[],[1],[],vertical,"(890.0, 262.0)",1.4833333333333334,nan,1,6159.053,1
0,741,target,"[(1093, 776)]","[(1070, 803)]",[1],[0.2833333333333333],horizontal,"(390.0, 262.0)",,"('bar', 0.295)",0,6164.539,0
0,742,target,"[(1085, 801)]",[],[1],[0.16666666666666666],horizontal,"(390.0, 262.0)",1.6666666666666667,0.134,0,6167.219,0
0,743,target,"[(1084, 777)]",[],[1],[0.55],horizontal,"(890.0, 262.0)",1.0,0.511,1,6172.121,1
0,744,target,"[(1101, 763)]",[],[1],[0.5666666666666667],vertical,"(890.0, 262.0)",0.9833333333333333,0.531,1,6177.003,1
0,745,target,"[(1086, 776)]",[],[1],[0.5666666666666667],horizontal,"(890.0, 762.0)",0.9666666666666667,0.526,1,6181.787,1
0,746,target,"[(1088, 781)]",[],[1],[0.55],vertical,"(890.0, 762.0)",1.0166666666666666,0.513,1,6186.77,2
0,747,target,"[(1108, 756)]",[],[1],[0.6166666666666667],vertical,"(890.0, 762.0)",1.1833333333333333,0.576,1,6192.37,2
0,748,target,"[(1091, 785)]",[],[1],[0.25],horizontal,"(890.0, 262.0)",1.4833333333333334,0.212,1,6198.37,2
0,749,catch,"[(1081, 760)]",[],[1],[],vertical,"(390.0, 762.0)",1.4833333333333334,nan,1,6203.536,2
0,750,target,"[(1064, 790)]",[],[1],[0.16666666666666666],vertical,"(390.0, 262.0)",1.6666666666666667,0.138,0,6208.752,0
0,751,target,"[(1086, 764)]",[],[1],[0.6],horizontal,"(890.0, 762.0)",1.1,0.554,1,6214.077,1
0,752,target,"[(1063, 755)]",[],[1],[0.5166666666666666],vertical,"(390.0, 262.0)",1.25,0.485,1,6218.787,1
0,753,target,"[(1086, 762)]",[],[1],[0.36666666666666664],vertical,"(890.0, 262.0)",1.35,0.328,1,6223.667,1
0,754,target,"[(1081, 761)]",[],[1],[0.5833333333333334],vertical,"(890.0, 762.0)",0.9666666666666667,0.553,1,6228.704,2
0,755,target,"[(1081, 765)]",[],[1],[0.16666666666666666],vertical,"(890.0, 262.0)",1.4833333333333334,0.135,0,6234.216,0
0,756,target,"[(1084, 776)]",[],[1],[0.7],vertical,"(390.0, 262.0)",1.0,0.663,1,6239.019,1
0,757,target,"[(1081, 779)]",[],[1],[0.2],vertical,"(890.0, 762.0)",1.5666666666666667,0.168,0,6244.22,0
0,758,target,"[(1063, 758)]",[],[1],[0.2833333333333333],vertical,"(890.0, 762.0)",1.4166666666666667,0.25,1,6249.322,1
0,759,target,"[(1072, 758)]",[],[1],[0.5],horizontal,"(890.0, 762.0)",0.95,0.465,1,6254.565,1
0,760,catch,"[(1052, 757)]",[],[1],[],vertical,"(390.0, 262.0)",1.55,nan,1,6259.278,1
0,761,target,"[(1076, 782)]",[],[1],[0.6166666666666667],horizontal,"(890.0, 762.0)",1.05,0.573,1,6264.171,2
0,762,target,"[(1086, 768)]",[],[1],[0.4166666666666667],horizontal,"(390.0, 762.0)",1.2333333333333334,0.38,1,6269.454,2
0,763,target,"[(1082, 764)]",[],[1],[0.48333333333333334],vertical,"(890.0, 262.0)",1.3333333333333333,0.438,1,6275.175,2
0,764,target,"[(1100, 769)]",[],[1],[0.5666666666666667],horizontal,"(390.0, 262.0)",1.1666666666666667,0.526,1,6280.399,2
0,765,target,"[(1091, 783)]",[],[1],[0.3],horizontal,"(890.0, 762.0)",1.2666666666666666,0.267,1,6285.903,2
0,766,target,"[(1060, 771)]",[],[1],[],horizontal,"(390.0, 762.0)",,"('cti', 1.074)",0,6291.22,0
0,767,target,"[(1018, 774)]",[],[1],[0.8166666666666667],vertical,"(390.0, 762.0)",1.0166666666666666,0.772,1,6295.254,1
0,768,catch,"[(1056, 767)]",[],[1],[],horizontal,"(390.0, 262.0)",1.5833333333333333,nan,1,6300.88,1
0,769,target,"[(1081, 771)]",[],[1],[0.35],horizontal,"(890.0, 262.0)",1.4,0.312,1,6306.086,1
0,770,target,"[(1057, 776)]",[],[1],[0.3333333333333333],horizontal,"(890.0, 762.0)",1.5333333333333332,0.297,1,6311.143,2
0,771,target,"[(1090, 787)]",[],[1],[0.5333333333333333],vertical,"(390.0, 262.0)",1.2833333333333332,0.488,1,6316.421,2
0,772,target,"[(1084, 770)]",[],[1],[0.55],horizontal,"(890.0, 262.0)",0.55,0.508,1,6321.803,2
0,773,target,"[(1086, 772)]",[],[1],[0.31666666666666665],vertical,"(390.0, 262.0)",1.4666666666666666,0.278,1,6326.788,2
0,774,target,"[(1082, 765)]",[],[1],[0.5833333333333334],horizontal,"(890.0, 762.0)",0.9,0.541,1,6332.181,2
0,775,catch,"[(1107, 813)]",[],[1],[],vertical,"(890.0, 262.0)",1.4,nan,1,6337.771,3
0,776,target,"[(1062, 762)]",[],[1],[0.2],vertical,"(390.0, 262.0)",1.5166666666666666,0.166,0,6343.48,0
0,777,target,"[(1080, 762)]",[],[1],[0.5833333333333334],vertical,"(390.0, 262.0)",0.7333333333333333,0.539,1,6347.838,1
0,778,target,"[(1082, 761)]",[],[1],[0.11666666666666667],horizontal,"(890.0, 262.0)",1.45,0.083,0,6352.553,0
0,779,target,"[(730, 173), (1158, 826)]",[],"[0, 1]",[],vertical,"(390.0, 262.0)",,"('fix', 0.149)",0,6357.354,0
0,780,target,"[(825, 204), (814, 216), (1083, 774)]",[],"[0, 0, 1]",[0.5166666666666666],vertical,"(890.0, 762.0)",0.65,0.473,1,6377.963,1
0,781,target,"[(1064, 795)]",[],[1],[0.55],vertical,"(890.0, 762.0)",0.75,0.511,1,6384.02,1
0,782,catch,"[(817, 265), (1071, 852)]",[],"[0, 1]",[],horizontal,"(390.0, 762.0)",1.6666666666666667,"('cti', 1.642),nan",0,6389.599,0
0,783,target,"[(1081, 784)]",[],[1],[0.5333333333333333],horizontal,"(390.0, 762.0)",1.2833333333333332,0.488,1,6395.899,1
0,784,target,"[(1085, 779)]",[],[1],[0.85],vertical,"(890.0, 762.0)",1.65,nan,0,6400.621,0
0,785,target,"[(1063, 791)]",[],[1],[0.85],horizontal,"(390.0, 262.0)",1.5166666666666666,nan,0,6405.892,0
0,786,catch,"[(1055, 809)]",[],[1],[],vertical,"(890.0, 262.0)",1.5166666666666666,nan,1,6411.174,1
0,787,target,"[(1060, 772)]",[],[1],[0.85],horizontal,"(890.0, 262.0)",1.1333333333333333,nan,0,6416.831,0
0,788,target,"[(1063, 788)]",[],[1],[0.85],vertical,"(890.0, 262.0)",0.9166666666666666,nan,0,6421.972,0
0,789,target,"[(1043, 800)]",[],[1],[0.1],horizontal,"(890.0, 262.0)",1.5333333333333332,0.071,0,6427.093,0
0,790,target,"[(1083, 778)]",[],[1],[0.6166666666666667],horizontal,"(890.0, 762.0)",0.7166666666666667,0.572,1,6433.475,1
0,791,target,"[(1068, 781)]",[],[1],[0.55],vertical,"(890.0, 762.0)",1.25,0.507,1,6438.061,1
0,792,target,"[(1085, 765)]",[],[1],[0.4],vertical,"(390.0, 762.0)",1.3666666666666667,0.359,1,6443.113,1
0,793,target,"[(1076, 774)]",[],[1],[0.4],horizontal,"(890.0, 262.0)",1.3166666666666667,0.363,1,6448.254,2
0,794,target,"[(1076, 779)]",[],[1],[0.5166666666666666],horizontal,"(890.0, 762.0)",1.1166666666666667,0.471,1,6453.554,2
0,795,target,"[(1086, 767)]",[],[1],[0.31666666666666665],vertical,"(390.0, 762.0)",1.4,0.279,1,6458.555,2
0,796,target,"[(1079, 769)]",[],[1],[0.6166666666666667],horizontal,"(390.0, 262.0)",1.3333333333333333,0.571,1,6464.302,2
0,797,catch,"[(1089, 761)]",[],[1],[],vertical,"(390.0, 262.0)",1.65,nan,1,6469.609,2
0,798,target,"[(1058, 765)]",[],[1],[0.85],vertical,"(390.0, 262.0)",0.7166666666666667,nan,0,6474.64,0
0,799,target,"[(1077, 781)]",[],[1],[],horizontal,"(890.0, 262.0)",,"('cti', 1.234)",0,6479.372,0
0,800,target,"[(1062, 760)]",[],[1],"[0.85, 0.85]",horizontal,"(890.0, 262.0)",0.8,"0.801,nan",0,6483.446,0
0,801,target,"[(1076, 771)]",[],[1],[0.5333333333333333],horizontal,"(890.0, 262.0)",0.75,0.489,1,6488.47,1
0,802,target,"[(1059, 761)]",[],[1],[0.5666666666666667],horizontal,"(890.0, 762.0)",0.9166666666666666,0.523,1,6492.872,1
0,803,target,"[(1062, 762)]",[],[1],[0.6],vertical,"(890.0, 762.0)",0.7833333333333333,0.556,1,6497.585,1
0,804,target,"[(1080, 769)]",[],[1],[0.5],vertical,"(890.0, 262.0)",0.7833333333333333,0.456,1,6502.234,2
0,805,target,"[(1083, 736), (1052, 776)]",[],"[0, 1]",[0.85],horizontal,"(890.0, 762.0)",0.5,nan,0,6507.405,0
0,806,catch,"[(1067, 775)]",[],[1],[],horizontal,"(890.0, 762.0)",1.65,nan,1,6512.921,1
0,807,target,"[(1061, 772)]",[],[1],[0.5],horizontal,"(890.0, 262.0)",1.3,0.46,1,6517.725,1
0,808,catch,"[(1079, 756)]",[],[1],[],horizontal,"(890.0, 762.0)",1.5166666666666666,nan,1,6523.338,1
0,809,catch,"[(1081, 790)]",[],[1],[],vertical,"(890.0, 762.0)",1.4166666666666667,nan,1,6528.189,2
0,810,target,"[(1087, 765)]",[],[1],[0.5666666666666667],horizontal,"(390.0, 762.0)",1.2,0.525,1,6533.637,2
0,811,target,"[(1088, 775)]",[],[1],[0.6666666666666666],horizontal,"(890.0, 762.0)",0.7333333333333333,0.624,1,6538.804,2
0,812,target,"[(1103, 762)]",[],[1],[0.26666666666666666],horizontal,"(890.0, 262.0)",1.4,0.232,1,6544.043,2
0,813,target,"[(1081, 790)]",[],[1],[0.85],vertical,"(890.0, 762.0)",0.9333333333333333,nan,0,6549.467,0
0,814,target,"[(1066, 755)]",[],[1],[0.3333333333333333],vertical,"(890.0, 262.0)",1.55,0.296,1,6554.576,1
0,815,target,"[(1057, 791)]",[],[1],[0.8],horizontal,"(390.0, 762.0)",1.05,0.755,1,6559.977,1
0,816,target,"[(1062, 743), (1062, 784)]",[],"[0, 1]",[0.6166666666666667],vertical,"(890.0, 262.0)",0.5666666666666667,0.57,1,6565.008,1
0,817,target,"[(1078, 768)]",[],[1],[0.6],vertical,"(890.0, 762.0)",0.7833333333333333,0.558,1,6570.464,2
0,818,target,"[(1076, 765)]",[],[1],[0.5333333333333333],horizontal,"(890.0, 262.0)",0.8833333333333333,0.492,1,6575.454,2
0,819,target,"[(1067, 772)]",[],[1],[0.5833333333333334],horizontal,"(890.0, 762.0)",0.8166666666666667,0.561,1,6580.963,2
0,820,target,"[(1086, 764)]",[],[1],[0.1],horizontal,"(390.0, 762.0)",1.0833333333333333,0.07,0,6586.254,0
0,821,target,"[(1105, 771)]",[],[1],[0.6666666666666666],horizontal,"(390.0, 762.0)",0.5333333333333333,0.618,1,6590.687,1
0,822,target,"[(1084, 766)]",[],[1],[0.2833333333333333],horizontal,"(390.0, 262.0)",1.55,0.246,1,6595.255,1
0,823,target,"[(1082, 762)]",[],[1],[0.5],vertical,"(390.0, 262.0)",0.9,0.459,1,6600.253,1
0,824,target,"[(1081, 738), (1057, 775)]",[],"[0, 1]",[0.5166666666666666],vertical,"(390.0, 262.0)",1.25,0.471,1,6604.588,2
0,825,target,"[(1085, 768)]",[],[1],[0.35],horizontal,"(390.0, 762.0)",0.7833333333333333,0.311,1,6611.389,2
0,826,target,"[(1081, 785)]",[],[1],[0.06666666666666667],vertical,"(390.0, 762.0)",1.55,0.036,0,6616.672,0
0,827,target,"[(1081, 785)]",[],[1],[0.3333333333333333],horizontal,"(390.0, 262.0)",1.5166666666666666,0.295,1,6621.533,1
0,828,target,"[(1082, 776)]",[],[1],[0.85],vertical,"(890.0, 762.0)",0.6166666666666667,nan,0,6626.389,0
0,829,catch,"[(1053, 751), (1066, 749), (1072, 754)]",[],"[0, 0, 1]",[],horizontal,"(890.0, 262.0)",1.65,nan,1,6631.025,1
0,830,catch,"[(1084, 759)]",[],[1],[],vertical,"(390.0, 762.0)",1.3666666666666667,nan,1,6638.339,1
0,831,target,"[(1081, 769)]",[],[1],[0.35],vertical,"(890.0, 762.0)",1.3166666666666667,0.312,1,6642.911,1
0,832,target,"[(1084, 762)]",[],[1],[0.85],vertical,"(390.0, 762.0)",0.8,nan,0,6647.792,0
0,833,target,"[(1068, 790)]",[],[1],[0.11666666666666667],vertical,"(890.0, 262.0)",1.6833333333333333,0.088,0,6652.438,0
0,834,target,"[(1051, 785)]",[],[1],[0.65],horizontal,"(390.0, 762.0)",0.55,0.608,1,6657.293,1
0,835,target,"[(1086, 768)]",[],[1],[0.55],horizontal,"(890.0, 762.0)",0.8833333333333333,0.512,1,6662.366,1
0,836,target,"[(1078, 783)]",[],[1],[0.18333333333333332],horizontal,"(890.0, 262.0)",1.5333333333333332,0.15,0,6667.255,0
0,837,target,"[(1081, 755)]",[],[1],[0.7166666666666667],horizontal,"(390.0, 762.0)",1.3333333333333333,0.674,1,6672.023,1
0,838,target,"[(1080, 785)]",[],[1],[0.43333333333333335],horizontal,"(390.0, 262.0)",1.4,0.4,1,6677.173,1
0,839,target,"[(1084, 769)]",[],[1],[0.65],horizontal,"(390.0, 762.0)",0.5833333333333334,0.607,1,6682.126,1
0,840,target,"[(1058, 781)]",[],[1],[0.05],vertical,"(390.0, 762.0)",1.25,0.016,0,6686.6,0
0,841,target,"[(1042, 786)]",[],[1],[0.21666666666666667],horizontal,"(390.0, 762.0)",1.3833333333333333,0.181,0,6691.155,0
0,842,target,"[(1071, 798)]",[],[1],[0.6666666666666666],vertical,"(390.0, 762.0)",1.4333333333333333,0.624,1,6701.125,1
0,843,target,"[(1020, 774)]",[],[1],[0.2833333333333333],horizontal,"(890.0, 762.0)",1.4666666666666666,0.246,1,6706.723,1
0,844,target,"[(1076, 785)]",[],[1],[0.2],vertical,"(390.0, 762.0)",1.3666666666666667,0.163,0,6712.527,0
0,845,target,"[(1062, 773)]",[],[1],[0.85],horizontal,"(390.0, 262.0)",0.85,nan,0,6717.332,0
0,846,target,"[(1057, 751), (1079, 768)]",[],"[0, 1]",[0.85],horizontal,"(390.0, 262.0)",0.65,nan,0,6721.837,0
0,847,target,"[(1042, 751), (1045, 763)]",[],"[0, 1]",[0.55],vertical,"(390.0, 262.0)",1.1,0.511,1,6727.984,1
0,848,target,"[(1062, 750), (1057, 787)]",[],"[0, 1]",[0.85],vertical,"(390.0, 762.0)",1.1,nan,0,6734.488,0
0,849,target,"[(1064, 783)]",[],[1],[0.5666666666666667],vertical,"(890.0, 262.0)",1.4333333333333333,0.534,1,6740.997,1
0,850,target,"[(1079, 776)]",[],[1],[0.85],horizontal,"(890.0, 762.0)",0.55,nan,0,6746.227,0
0,851,target,"[(1052, 765)]",[],[1],[0.6166666666666667],vertical,"(890.0, 762.0)",1.3166666666666667,0.572,1,6750.405,1
0,852,target,"[(1076, 779)]",[],[1],[0.6],horizontal,"(890.0, 262.0)",0.8166666666666667,0.564,1,6755.977,1
0,853,target,"[(1082, 756)]",[],[1],[0.5333333333333333],horizontal,"(390.0, 262.0)",0.8666666666666667,0.495,1,6760.606,1
0,854,target,"[(1076, 743), (1047, 782)]",[],"[0, 1]",[0.1],vertical,"(890.0, 762.0)",1.55,0.067,0,6765.511,0
0,855,target,"[(1051, 764)]",[],[1],[0.5166666666666666],vertical,"(890.0, 262.0)",0.95,0.478,1,6772.079,1
0,856,catch,"[(1078, 772)]",[],[1],[],vertical,"(390.0, 762.0)",1.35,nan,1,6777.307,1
0,857,target,"[(1075, 769)]",[],[1],[0.7166666666666667],horizontal,"(890.0, 262.0)",0.6,0.676,1,6782.246,1
0,858,target,"[(1077, 773)]",[],[1],[0.23333333333333334],horizontal,"(890.0, 262.0)",1.5,0.202,1,6786.59,2
0,859,catch,"[(1074, 752), (1050, 786)]",[],"[0, 1]",[],horizontal,"(390.0, 762.0)",1.5833333333333333,nan,1,6791.706,2
0,860,catch,"[(1079, 765)]",[],[1],[],horizontal,"(890.0, 262.0)",,"('cti', 1.199),nan",0,6798.573,0
0,861,target,"[(1081, 782)]",[],[1],[0.6833333333333333],horizontal,"(390.0, 262.0)",1.35,0.641,1,6803.048,1
0,862,target,"[(1060, 761)]",[],[1],[0.21666666666666667],vertical,"(890.0, 262.0)",1.55,0.183,0,6808.213,0
0,863,target,"[(1042, 750), (1062, 756)]",[],"[0, 1]",[0.6],vertical,"(390.0, 762.0)",1.4666666666666666,0.559,1,6813.005,1
0,864,target,"[(1082, 758)]",[],[1],[0.4666666666666667],horizontal,"(390.0, 262.0)",1.45,0.436,1,6819.94,1
0,865,target,"[(1076, 768)]",[],[1],[0.5333333333333333],horizontal,"(890.0, 262.0)",0.6666666666666666,0.492,1,6825.38,1
0,866,target,"[(1066, 748), (1047, 782)]",[],"[0, 1]",[0.6666666666666666],horizontal,"(390.0, 262.0)",0.8333333333333334,0.628,1,6829.937,2
0,867,target,"[(1106, 751), (1049, 781)]",[],"[0, 1]",[0.6833333333333333],horizontal,"(890.0, 762.0)",0.7666666666666666,0.651,1,6836.157,2
0,868,target,"[(1061, 766)]",[],[1],[0.85],vertical,"(390.0, 762.0)",0.6,nan,0,6842.956,0
0,869,catch,"[(1044, 802)]",[],[1],[],horizontal,"(390.0, 762.0)",1.4,nan,1,6847.356,1
0,870,target,"[(1030, 807)]",[],[1],[0.85],vertical,"(390.0, 762.0)",0.6833333333333333,nan,0,13855.059,0
0,871,target,"[(1018, 806)]",[],[1],[0.85],vertical,"(390.0, 262.0)",1.4333333333333333,nan,0,13859.727,0
0,872,target,"[(1061, 790)]",[],[1],[0.85],vertical,"(890.0, 262.0)",0.9666666666666667,nan,0,13865.641,0
0,873,target,"[(1052, 792)]",[],[1],[0.85],horizontal,"(390.0, 762.0)",0.6166666666666667,nan,0,13870.757,0
0,874,target,"[(1076, 787)]",[],[1],[0.7],horizontal,"(890.0, 762.0)",0.7666666666666666,0.663,1,13876.244,1
0,875,target,"[(1080, 795)]",[],[1],[0.6],horizontal,"(890.0, 262.0)",0.7166666666666667,0.558,1,13881.159,1
0,876,target,"[(1085, 806)]",[],[1],[0.85],vertical,"(390.0, 262.0)",0.8,nan,0,13886.218,0
0,877,target,"[(1084, 782)]",[],[1],[0.65],horizontal,"(890.0, 262.0)",0.5833333333333334,0.606,1,13891.283,1
0,878,target,"[(1097, 801)]",[],[1],[0.5333333333333333],horizontal,"(890.0, 262.0)",0.6166666666666667,0.494,1,13895.708,1
0,879,target,"[(1078, 790)]",[],[1],[0.85],horizontal,"(890.0, 762.0)",0.6,nan,0,13900.093,0
0,880,target,"[(1072, 788)]",[],[1],[0.65],vertical,"(890.0, 762.0)",0.7666666666666666,0.601,1,13904.333,1
0,881,target,"[(1077, 769)]",[],[1],[0.6666666666666666],horizontal,"(390.0, 762.0)",0.6166666666666667,0.617,1,13908.891,1
0,882,target,"[(1092, 772)]",[],[1],[0.85],vertical,"(890.0, 262.0)",0.6833333333333333,nan,0,13913.577,0
0,883,target,"[(1057, 786)]",[],[1],[0.5666666666666667],vertical,"(890.0, 762.0)",0.8,0.523,1,13917.96,1
0,884,target,"[(1066, 760)]",[],[1],[0.55],vertical,"(390.0, 262.0)",1.1,0.511,1,13923.159,1
0,885,target,"[(1081, 785)]",[],[1],[0.45],horizontal,"(390.0, 262.0)",1.0333333333333332,0.408,1,13928.446,1
0,886,target,"[(1076, 784)]",[],[1],[0.43333333333333335],horizontal,"(890.0, 762.0)",1.1166666666666667,0.395,1,13933.54,2
0,887,target,"[(1068, 774)]",[],[1],[0.43333333333333335],horizontal,"(890.0, 762.0)",1.2666666666666666,0.393,1,13939.292,2
0,888,target,"[(1067, 766)]",[],[1],[0.5833333333333334],horizontal,"(890.0, 262.0)",0.5333333333333333,0.538,1,13944.776,2
0,889,target,"[(1082, 796)]",[],[1],[0.5333333333333333],vertical,"(890.0, 262.0)",0.7,0.49,1,13949.788,2
0,890,target,"[(1076, 776)]",[],[1],[0.48333333333333334],horizontal,"(390.0, 262.0)",1.1666666666666667,0.44,1,13955.108,2
0,891,target,"[(1078, 771)]",[],[1],[0.6333333333333333],vertical,"(890.0, 262.0)",0.9833333333333333,0.602,1,13960.726,3
0,892,target,"[(1079, 790)]",[],[1],[0.1],horizontal,"(390.0, 262.0)",1.6166666666666667,0.067,0,13966.586,0
0,893,target,"[(1078, 796)]",[],[1],[0.4],horizontal,"(390.0, 262.0)",1.6166666666666667,0.363,1,13971.275,1
0,894,target,"[(1076, 788)]",[],[1],[0.6333333333333333],horizontal,"(390.0, 262.0)",1.2166666666666666,0.587,1,13976.325,1
0,895,target,"[(1057, 778)]",[],[1],[0.7333333333333333],horizontal,"(890.0, 762.0)",0.9,0.683,1,13981.22,1
0,896,target,"[(1076, 782)]",[],[1],[0.5666666666666667],horizontal,"(390.0, 762.0)",0.9,0.522,1,13986.775,2
0,897,target,"[(1074, 799)]",[],[1],[0.55],vertical,"(890.0, 262.0)",0.7666666666666666,0.511,1,13992.042,2
0,898,target,"[(1084, 783)]",[],[1],[0.6666666666666666],horizontal,"(890.0, 762.0)",0.6666666666666666,0.62,1,13996.809,2
0,899,target,"[(1057, 791)]",[],[1],[0.1],horizontal,"(890.0, 762.0)",1.5166666666666666,0.067,0,14001.513,0
0,900,target,"[(1042, 786)]",[],[1],[0.5666666666666667],vertical,"(890.0, 262.0)",1.1,0.523,1,14006.59,1
0,901,target,"[(1082, 781)]",[],[1],[0.6166666666666667],vertical,"(390.0, 262.0)",0.5,0.575,1,14011.993,1
0,902,target,"[(1064, 760)]",[],[1],[0.43333333333333335],horizontal,"(890.0, 262.0)",1.2166666666666666,0.395,1,14016.542,1
0,903,target,"[(1058, 769)]",[],[1],[0.7166666666666667],vertical,"(390.0, 262.0)",0.8166666666666667,0.682,1,14021.809,2
0,904,catch,"[(1082, 791)]",[],[1],[],horizontal,"(890.0, 262.0)",1.5833333333333333,nan,1,14026.977,2
0,905,target,"[(1069, 776)]",[],[1],[0.11666666666666667],vertical,"(390.0, 762.0)",1.6166666666666667,0.085,0,14032.275,0
0,906,target,"[(1062, 774)]",[],[1],[0.3833333333333333],vertical,"(390.0, 262.0)",1.45,0.346,1,14037.375,1
0,907,target,"[(1077, 790)]",[],[1],[0.5833333333333334],vertical,"(390.0, 262.0)",0.5666666666666667,0.541,1,14042.626,1
0,908,catch,"[(1078, 787)]",[],[1],[],horizontal,"(390.0, 262.0)",1.4833333333333334,nan,1,14047.227,1
