block,trial,trial_type,taps_start_loc_during_fix,taps_end_loc_during_fix,taps_on_lever_during_fix,taps_on_lever_s_during_fix,bar_orientation,target_xy,cti,rt,acc,time,pulses,fa_rate_recent100,p_catch
0,1,target,"[(1109, 789)]",[],[1],[0.36666666666666664],vertical,"(890.0, 762.0)",1.4166666666666667,0.337,1,0.554,1,0.0,0.25
0,2,target,"[(1102, 856)]",[],[1],[0.5],horizontal,"(390.0, 262.0)",0.9166666666666666,0.469,1,39.479,1,0.0,0.25
0,3,catch,"[(1125, 844)]",[],[1],[],horizontal,"(390.0, 262.0)",1.7,nan,1,74.02,1,0.0,0.25
0,4,target,"[(1134, 833)]",[],[1],[0.85],horizontal,"(890.0, 262.0)",0.9,nan,0,79.2,0,0.0,0.25
0,5,target,"[(1150, 821)]",[],[1],[0.85],horizontal,"(390.0, 262.0)",0.6,nan,0,84.288,0,0.0,0.25
0,6,target,"[(1136, 795)]",[],[1],[0.5166666666666666],horizontal,"(390.0, 762.0)",0.7,0.49,1,88.861,1,0.0,0.25
0,7,target,"[(1156, 799)]",[],[1],[0.4166666666666667],horizontal,"(890.0, 762.0)",1.4166666666666667,0.388,1,93.624,1,0.0,0.25
0,8,catch,"[(1136, 802)]",[],[1],[],horizontal,"(390.0, 762.0)",1.7,"('cti', 1.743),nan",0,98.846,0,0.125,0.25
0,9,target,"[(1154, 842)]",[],[1],[0.85],horizontal,"(390.0, 262.0)",1.1,nan,0,103.581,0,0.1111111111111111,0.25
0,10,target,"[(1130, 785)]",[],[1],[0.08333333333333333],vertical,"(390.0, 262.0)",1.5333333333333332,0.051,0,108.33,0,0.1,0.25
0,11,target,"[(1150, 794)]",[],[1],[0.55],vertical,"(390.0, 262.0)",0.36666666666666664,0.512,1,113.342,1,0.09090909090909091,0.25
0,12,target,"[(1150, 812)]",[],[1],[0.5],horizontal,"(390.0, 262.0)",0.4166666666666667,0.473,1,118.002,1,0.08333333333333333,0.25
0,13,target,"[(1152, 815)]",[],[1],[0.5833333333333334],vertical,"(390.0, 762.0)",0.8,0.561,1,122.259,1,0.07692307692307693,0.25
0,14,catch,"[(1135, 794)]",[],[1],[],vertical,"(890.0, 262.0)",,"('cti', 1.446),nan",0,127.118,0,0.14285714285714285,0.25
0,15,catch,"[(1131, 845)]",[],[1],[],horizontal,"(890.0, 762.0)",,"('cti', 1.663),nan",0,131.803,0,0.2,0.25
0,16,catch,"[(1139, 802)]",[],[1],[],vertical,"(890.0, 762.0)",,"('cti', 1.66),nan",0,136.528,0,0.25,0.25
0,17,catch,"[(1089, 833)]",[],[1],[],vertical,"(890.0, 762.0)",1.7,nan,1,141.034,1,0.23529411764705882,0.25
0,18,target,"[(1154, 808)]",[],[1],[0.8333333333333334],horizontal,"(390.0, 262.0)",0.8166666666666667,0.792,1,1292.867,1,0.2222222222222222,0.25
0,19,target,"[(1136, 801)]",[],[1],[0.5666666666666667],vertical,"(390.0, 762.0)",0.7166666666666667,0.528,1,1297.97,1,0.21052631578947367,0.25
0,20,catch,"[(1175, 792)]",[],[1],[],horizontal,"(390.0, 762.0)",1.7,nan,1,1302.931,2,0.2,0.25
0,21,target,"[(1172, 794)]",[],[1],[0.8],horizontal,"(890.0, 762.0)",1.1833333333333333,0.76,1,1308.335,2,0.19047619047619047,0.25
0,22,target,"[(1141, 821)]",[],[1],[0.48333333333333334],vertical,"(390.0, 262.0)",1.4333333333333333,0.443,1,1313.751,2,0.18181818181818182,0.25
0,23,target,"[(1158, 820)]",[],[1],[0.85],horizontal,"(390.0, 762.0)",0.9333333333333333,nan,0,1319.686,0,0.17391304347826086,0.25
0,24,target,"[(1135, 767)]",[],[1],[0.85],vertical,"(890.0, 762.0)",1.4666666666666666,nan,0,1324.202,0,0.16666666666666666,0.25
0,25,target,"[(1149, 830)]",[],[1],[0.6],vertical,"(390.0, 762.0)",0.5666666666666667,0.56,1,1329.859,1,0.16,0.25
0,26,target,"[(1154, 791)]",[],[1],[0.21666666666666667],horizontal,"(890.0, 762.0)",1.1666666666666667,0.18,0,1348.5,0,0.15384615384615385,0.25
0,27,catch,"[(1125, 833)]",[],[1],[],horizontal,"(890.0, 762.0)",1.7,nan,1,1353.118,1,0.14814814814814814,0.25
0,28,target,"[(1141, 834)]",[],[1],[0.6833333333333333],horizontal,"(890.0, 262.0)",0.36666666666666664,0.64,1,1359.439,1,0.14285714285714285,0.25
0,29,target,"[(1160, 795)]",[],[1],[0.6],vertical,"(890.0, 762.0)",1.3666666666666667,0.554,1,1364.335,1,0.13793103448275862,0.25
0,30,target,"[(1172, 813)]",[],[1],[0.48333333333333334],vertical,"(390.0, 762.0)",0.8833333333333333,0.447,1,1369.927,2,0.13333333333333333,0.25
0,31,catch,"[(1130, 826)]",[],[1],[],vertical,"(890.0, 262.0)",1.7,nan,1,1375.177,2,0.12903225806451613,0.25
0,32,target,"[(1157, 795)]",[],[1],[0.35],horizontal,"(390.0, 762.0)",1.5333333333333332,0.308,1,1387.851,2,0.125,0.25
0,33,target,"[(1160, 782)]",[],[1],[0.36666666666666664],vertical,"(890.0, 262.0)",1.45,0.333,1,1393.609,3,0.12121212121212122,0.25
0,34,catch,"[(1162, 806)]",[],[1],[],horizontal,"(390.0, 762.0)",1.7,nan,1,1399.687,3,0.11764705882352941,0.25
0,35,catch,"[(1157, 801)]",[],[1],[],horizontal,"(390.0, 262.0)",1.7,nan,1,1405.485,3,0.11428571428571428,0.25
0,36,catch,"[(1160, 806)]",[],[1],[],horizontal,"(890.0, 762.0)",1.7,nan,1,1411.453,3,0.1111111111111111,0.25
0,37,target,"[(1138, 806)]",[],[1],[0.5833333333333334],horizontal,"(890.0, 762.0)",0.6,0.544,1,1417.497,3,0.10810810810810811,0.25
0,38,target,"[(1155, 817)]",[],[1],[0.4],horizontal,"(890.0, 762.0)",1.5,0.36,1,1422.819,3,0.10526315789473684,0.25
0,39,target,"[(1159, 796)]",[],[1],[0.5166666666666666],vertical,"(890.0, 762.0)",0.6666666666666666,0.482,1,1428.788,3,0.10256410256410256,0.25
0,40,target,"[(1160, 795)]",[],[1],[0.5166666666666666],vertical,"(390.0, 262.0)",0.48333333333333334,0.474,1,1434.153,3,0.1,0.25
0,41,target,"[(1155, 794)]",[],[1],[0.48333333333333334],horizontal,"(890.0, 262.0)",1.15,0.445,1,1439.608,3,0.0975609756097561,0.25
0,42,target,"[(1126, 798)]",[],[1],[0.5333333333333333],vertical,"(890.0, 762.0)",1.1,0.492,1,1445.319,3,0.09523809523809523,0.25
0,43,target,"[(1159, 800)]",[],[1],[0.5166666666666666],horizontal,"(390.0, 762.0)",0.8166666666666667,0.477,1,1451.437,3,0.09302325581395349,0.25
0,44,target,"[(1150, 804)]",[],[1],[0.5166666666666666],vertical,"(890.0, 262.0)",1.2333333333333334,0.474,1,1457.227,3,0.09090909090909091,0.25
0,45,target,"[(1125, 796)]",[],[1],[0.5333333333333333],horizontal,"(890.0, 262.0)",0.5833333333333334,0.491,1,1463.568,3,0.08888888888888889,0.25
0,46,catch,"[(1120, 802)]",[],[1],[],horizontal,"(890.0, 762.0)",1.7,nan,1,1468.836,3,0.08695652173913043,0.25
0,47,target,"[(1170, 802)]",[],[1],[0.3833333333333333],vertical,"(390.0, 262.0)",1.5166666666666666,0.346,1,1474.502,3,0.0851063829787234,0.25
0,48,target,"[(1160, 800)]",[],[1],[0.5],vertical,"(890.0, 762.0)",0.5166666666666666,0.46,1,1480.519,3,0.08333333333333333,0.25
0,49,target,"[(1143, 790)]",[],[1],[0.6],horizontal,"(890.0, 262.0)",0.8666666666666667,0.554,1,1485.937,3,0.08163265306122448,0.25
0,50,target,"[(1137, 847)]",[],[1],[0.7166666666666667],horizontal,"(390.0, 762.0)",1.3333333333333333,0.671,1,1491.744,3,0.08,0.25
0,51,target,"[(1150, 821)]",[],[1],[0.85],horizontal,"(390.0, 762.0)",0.8833333333333333,nan,0,1666.119,0,0.08,0.25
0,52,target,"[(1152, 826)]",[],[1],[0.4666666666666667],horizontal,"(890.0, 762.0)",1.1,0.428,1,1670.553,1,0.08,0.25
0,53,target,"[(1158, 808)]",[],[1],[0.7],vertical,"(890.0, 762.0)",0.5666666666666667,0.658,1,1675.638,1,0.08,0.25
0,54,catch,"[(1136, 812)]",[],[1],[],vertical,"(390.0, 262.0)",,"('cti', 1.455),nan",0,1680.253,0,0.1,0.25
0,55,catch,"[(1131, 779)]",[],[1],[],vertical,"(390.0, 762.0)",1.7,nan,1,1685.003,1,0.1,0.25
0,56,catch,"[(1175, 803)]",[],[1],[],vertical,"(390.0, 262.0)",1.7,nan,1,1691.004,1,0.1,0.25
0,57,catch,"[(1159, 788)]",[],[1],[],vertical,"(890.0, 762.0)",1.7,nan,1,1695.92,1,0.1,0.25
0,58,target,"[(1160, 816)]",[],[1],[0.6166666666666667],vertical,"(390.0, 762.0)",1.1833333333333333,0.572,1,1701.281,2,0.08,0.25
0,59,target,"[(1155, 786)]",[],[1],[0.4666666666666667],vertical,"(390.0, 262.0)",0.4166666666666667,0.43,1,1706.669,2,0.08,0.25
0,60,catch,"[(1178, 801)]",[],[1],[],vertical,"(390.0, 762.0)",1.7,nan,1,1711.501,2,0.08,0.25
0,61,catch,"[(1158, 795)]",[],[1],[],horizontal,"(890.0, 762.0)",1.7,nan,1,1717.211,3,0.08,0.25
0,62,target,"[(1161, 800)]",[],[1],[0.6],horizontal,"(890.0, 762.0)",1.5,0.562,1,1723.369,3,0.08,0.25
0,63,catch,"[(1164, 810)]",[],[1],[],horizontal,"(890.0, 262.0)",,"('cti', 1.665),nan",0,1729.07,0,0.1,0.25
0,64,target,"[(1160, 807)]",[],[1],[0.6833333333333333],vertical,"(390.0, 762.0)",1.1666666666666667,0.634,1,1733.626,1,0.08,0.25
0,65,target,"[(1161, 803)]",[],[1],[0.5333333333333333],vertical,"(390.0, 262.0)",1.5333333333333332,0.488,1,1738.904,1,0.06,0.25
0,66,target,"[(1155, 813)]",[],[1],[0.48333333333333334],vertical,"(890.0, 762.0)",1.5,0.444,1,1744.41,1,0.04,0.25
0,67,target,"[(1160, 821)]",[],[1],[0.65],vertical,"(390.0, 262.0)",0.5,0.609,1,1750.132,2,0.04,0.25
0,68,catch,"[(1180, 804)]",[],[1],[],horizontal,"(390.0, 262.0)",1.7,nan,1,1755.366,2,0.04,0.25
0,69,catch,"[(1161, 792)]",[],[1],[],horizontal,"(890.0, 762.0)",1.7,nan,1,1761.069,2,0.04,0.25
0,70,target,"[(1131, 839)]",[],[1],[0.6666666666666666],horizontal,"(390.0, 762.0)",0.55,0.621,1,1767.047,3,0.04,0.25
0,71,target,"[(1155, 815)]",[],[1],[0.6666666666666666],vertical,"(390.0, 762.0)",0.5333333333333333,0.622,1,1773.069,3,0.04,0.25
0,72,target,"[(1142, 806)]",[],[1],[0.6333333333333333],vertical,"(890.0, 262.0)",0.8,0.585,1,1778.187,3,0.04,0.25
0,73,target,"[(1127, 797)]",[],[1],[0.55],vertical,"(390.0, 762.0)",1.4333333333333333,0.506,1,1783.632,3,0.04,0.25
0,74,target,"[(1145, 798)]",[],[1],[0.5833333333333334],vertical,"(390.0, 762.0)",0.6333333333333333,0.538,1,1789.949,3,0.04,0.25
0,75,catch,"[(1141, 820)]",[],[1],[],vertical,"(390.0, 262.0)",1.7,nan,1,1795.404,3,0.04,0.25
0,76,target,"[(1150, 795)]",[],[1],[0.6166666666666667],vertical,"(890.0, 262.0)",0.7666666666666666,0.576,1,1801.12,3,0.04,0.25
0,77,catch,"[(1169, 782)]",[],[1],[],vertical,"(890.0, 762.0)",1.7,nan,1,1807.143,3,0.04,0.25
0,78,target,"[(1130, 788)]",[],[1],[0.85],vertical,"(890.0, 762.0)",0.55,nan,0,1812.804,0,0.04,0.25
0,79,target,"[(1146, 795)]",[],[1],[0.7166666666666667],vertical,"(890.0, 262.0)",0.9,0.672,1,1817.187,1,0.04,0.25
0,80,target,"[(1157, 829)]",[],[1],[0.5],vertical,"(390.0, 762.0)",0.8166666666666667,0.464,1,1822.487,1,0.04,0.25
0,81,catch,"[(1130, 801)]",[],[1],[],horizontal,"(390.0, 262.0)",1.7,nan,1,2049.889,1,0.04,0.25
0,82,target,"[(1142, 796)]",[],[1],[0.5666666666666667],vertical,"(890.0, 262.0)",0.8666666666666667,0.531,1,2054.805,2,0.04,0.25
0,83,target,"[(1157, 797)]",[],[1],[],horizontal,"(890.0, 762.0)",,"('cti', 1.175)",0,2060.456,0,0.06,0.25
0,84,target,"[(1165, 793)]",[],[1],[0.65],vertical,"(390.0, 762.0)",0.6,0.604,1,2065.039,1,0.06,0.25
0,85,target,"[(1165, 824)]",[],[1],[0.5666666666666667],horizontal,"(390.0, 762.0)",1.3333333333333333,0.538,1,2069.821,1,0.06,0.25
0,86,target,"[(1158, 790)]",[],[1],[0.5666666666666667],vertical,"(390.0, 762.0)",0.6666666666666666,0.526,1,2075.199,1,0.06,0.25
0,87,target,"[(1157, 798)]",[],[1],[0.3833333333333333],vertical,"(890.0, 262.0)",1.4833333333333334,0.344,1,2079.783,2,0.06,0.25
0,88,target,"[(1165, 807)]",[],[1],[],vertical,"(890.0, 262.0)",,"('cti', 1.258)",0,2085.155,0,0.08,0.25
0,89,target,"[(1132, 807)]",[],[1],[0.55],vertical,"(390.0, 762.0)",0.4,0.506,1,2089.697,1,0.08,0.25
0,90,catch,"[(1174, 785)]",[],[1],[],horizontal,"(890.0, 762.0)",1.7,nan,1,2094.376,1,0.08,0.25
0,91,target,"[(1157, 796)]",[],[1],[0.4666666666666667],horizontal,"(890.0, 762.0)",1.4333333333333333,0.428,1,2099.593,1,0.08,0.25
0,92,catch,"[(1150, 789)]",[],[1],[],horizontal,"(890.0, 262.0)",1.7,nan,1,2104.992,2,0.08,0.25
0,93,target,"[(1155, 798)]",[],[1],[0.4666666666666667],vertical,"(390.0, 762.0)",1.5333333333333332,0.43,1,2110.589,2,0.08,0.25
0,94,target,"[(1155, 798)]",[],[1],[0.85],vertical,"(390.0, 762.0)",0.5833333333333334,nan,0,2116.675,0,0.08,0.25
0,95,catch,"[(1137, 802)]",[],[1],[],vertical,"(890.0, 762.0)",1.7,nan,1,2120.783,1,0.08,0.25
0,96,target,"[(1154, 825)]",[],[1],[0.35],horizontal,"(390.0, 262.0)",1.5333333333333332,0.306,1,2125.735,1,0.08,0.25
0,97,target,"[(1125, 803)]",[],[1],[0.6],vertical,"(390.0, 762.0)",0.5,0.569,1,2131.461,1,0.08,0.25
0,98,target,"[(1175, 800)]",[],[1],[],vertical,"(390.0, 762.0)",,"('cti', 0.604)",0,2135.815,0,0.1,0.25
0,99,target,"[(1102, 863)]",[],[1],[0.55],horizontal,"(390.0, 262.0)",1.0,0.508,1,2139.517,1,0.1,0.25
0,100,target,"[(1150, 814)]",[],[1],[0.85],vertical,"(890.0, 762.0)",0.4166666666666667,nan,0,3005.307,0,0.1,0.25
0,101,target,"[(1098, 847)]",[],[1],[0.65],vertical,"(390.0, 262.0)",0.4166666666666667,0.608,1,3009.627,1,0.1,0.25
0,102,target,"[(1111, 820)]",[],[1],[0.35],horizontal,"(890.0, 762.0)",1.2833333333333332,0.318,1,3016.694,1,0.1,0.25
0,103,target,"[(1132, 811)]",[],[1],[0.48333333333333334],vertical,"(390.0, 262.0)",1.4,0.448,1,3021.848,1,0.1,0.25
0,104,target,"[(1165, 811)]",[],[1],[0.6666666666666666],vertical,"(890.0, 762.0)",0.5166666666666666,0.631,1,3027.343,2,0.08,0.25
0,105,target,"[(1145, 817)]",[],[1],[0.6666666666666666],horizontal,"(390.0, 762.0)",0.5333333333333333,0.624,1,3032.376,2,0.08,0.25
0,106,target,"[(1160, 819)]",[],[1],[0.6333333333333333],vertical,"(390.0, 262.0)",0.5666666666666667,0.591,1,3037.491,2,0.08,0.25
0,107,target,"[(1161, 802)]",[],[1],[0.85],vertical,"(890.0, 262.0)",0.8333333333333334,nan,0,3042.41,0,0.08,0.25
0,108,target,"[(1111, 845)]",[],[1],[0.55],horizontal,"(390.0, 762.0)",1.1,0.511,1,3047.175,1,0.08,0.25
0,109,target,"[(1125, 824)]",[],[1],[],horizontal,"(890.0, 762.0)",,"('cti', 0.756)",0,3060.044,0,0.1,0.25
0,110,target,"[(1130, 822)]",[],[1],[0.5333333333333333],vertical,"(890.0, 762.0)",1.5,0.496,1,3063.808,1,0.1,0.25
0,111,target,"[(1125, 827)]",[],[1],[0.75],vertical,"(390.0, 262.0)",1.45,0.708,1,3073.376,1,0.1,0.25
0,112,target,"[(1125, 786)]",[],[1],[0.6],vertical,"(390.0, 262.0)",0.7333333333333333,0.563,1,3079.222,1,0.1,0.25
0,113,catch,"[(1160, 800)]",[],[1],[],horizontal,"(890.0, 762.0)",,"('cti', 1.309),nan",0,3083.91,0,0.1,0.25
0,114,catch,"[(1125, 820)]",[],[1],[],horizontal,"(390.0, 762.0)",1.7,nan,1,3088.526,1,0.1,0.25
0,115,target,"[(1125, 822)]",[],[1],[0.5666666666666667],vertical,"(390.0, 262.0)",0.35,0.522,1,3099.158,1,0.1,0.25
0,116,target,"[(1125, 825)]",[],[1],[0.6166666666666667],horizontal,"(890.0, 262.0)",0.36666666666666664,0.578,1,3103.929,1,0.1,0.25
0,117,target,"[(1154, 807)]",[],[1],[0.65],horizontal,"(890.0, 262.0)",1.2166666666666666,0.605,1,3108.482,2,0.1,0.25
0,118,catch,"[(1157, 817)]",[],[1],[],vertical,"(890.0, 262.0)",1.7,nan,1,3114.21,2,0.1,0.25
0,119,target,"[(1126, 812)]",[],[1],[0.7666666666666666],vertical,"(890.0, 762.0)",0.5,0.731,1,3119.543,2,0.1,0.25
0,120,target,"[(1159, 811)]",[],[1],[0.5833333333333334],horizontal,"(390.0, 762.0)",1.1833333333333333,0.539,1,3124.39,3,0.1,0.25
0,121,target,"[(1116, 832)]",[],[1],[0.85],vertical,"(390.0, 262.0)",1.2333333333333334,nan,0,3129.961,0,0.1,0.25
0,122,target,"[(1129, 826)]",[],[1],[0.85],vertical,"(890.0, 762.0)",0.6666666666666666,nan,0,3134.878,0,0.1,0.25
0,123,catch,"[(1127, 811)]",[],[1],[],horizontal,"(390.0, 762.0)",,"('cti', 1.59),nan",0,3139.676,0,0.12,0.25
0,124,target,"[(1131, 808)]",[],[1],[0.85],horizontal,"(890.0, 762.0)",0.4,nan,0,3144.278,0,0.12,0.25
0,125,catch,"[(1124, 828)]",[],[1],[],horizontal,"(890.0, 262.0)",,"('cti', 1.217),nan",0,3151.147,0,0.14,0.25
0,126,catch,"[(1117, 841)]",[],[1],[],vertical,"(390.0, 262.0)",,"('cti', 1.512),nan",0,3172.283,0,0.16,0.25
0,127,target,"[(1131, 806)]",[],[1],[0.6666666666666666],vertical,"(890.0, 762.0)",0.6833333333333333,0.621,1,3179.827,1,0.16,0.25
0,128,catch,"[(1132, 820)]",[],[1],[],horizontal,"(390.0, 262.0)",,"('cti', 1.474),nan",0,3184.677,0,0.18,0.25
0,129,catch,"[(1115, 839)]",[],[1],[],vertical,"(890.0, 762.0)",1.7,nan,1,3189.727,1,0.18,0.25
0,130,catch,"[(1132, 811)]",[],[1],[],horizontal,"(390.0, 762.0)",1.7,nan,1,3206.677,1,0.18,0.25
0,131,catch,"[(1146, 791)]",[],[1],[],horizontal,"(890.0, 262.0)",1.7,nan,1,3211.561,1,0.18,0.25
0,132,target,"[(1125, 791)]",[],[1],[0.45],vertical,"(390.0, 762.0)",0.85,0.409,1,3216.675,2,0.18,0.25
0,133,target,"[(1131, 810)]",[],[1],[0.65],horizontal,"(390.0, 262.0)",0.9833333333333333,0.606,1,3221.878,2,0.16,0.25
0,134,target,"[(1160, 806)]",[],[1],[0.55],vertical,"(890.0, 262.0)",0.43333333333333335,0.514,1,3227.156,2,0.16,0.25
0,135,catch,"[(1150, 806)]",[],[1],[],vertical,"(890.0, 762.0)",,"('cti', 1.584),nan",0,3232.247,0,0.18,0.25
0,136,target,"[(1145, 805)]",[],[1],[0.6333333333333333],vertical,"(890.0, 262.0)",0.36666666666666664,0.588,1,3236.643,1,0.18,0.25
0,137,target,"[(1117, 796)]",[],[1],[0.6333333333333333],horizontal,"(390.0, 262.0)",0.4666666666666667,0.59,1,3241.395,1,0.18,0.25
0,138,target,"[(1165, 794)]",[],[1],[0.85],vertical,"(390.0, 762.0)",1.2,nan,0,3245.778,0,0.16,0.25
0,139,target,"[(1132, 796)]",[],[1],[0.6666666666666666],vertical,"(390.0, 262.0)",1.3333333333333333,0.619,1,3250.348,1,0.16,0.25
0,140,target,"[(1150, 829)]",[],[1],[0.7666666666666666],horizontal,"(390.0, 762.0)",1.3666666666666667,0.724,1,3256.044,1,0.16,0.25
0,141,catch,"[(1130, 807)]",[],[1],[],vertical,"(890.0, 762.0)",1.7,nan,1,3261.584,1,0.16,0.25
0,142,target,"[(1157, 819)]",[],[1],[0.6166666666666667],horizontal,"(890.0, 262.0)",1.3666666666666667,0.573,1,3266.581,2,0.16,0.25
0,143,target,"[(1177, 808)]",[],[1],[0.85],vertical,"(390.0, 762.0)",0.6166666666666667,nan,0,3272.26,0,0.16,0.25
0,144,target,"[(1134, 805)]",[],[1],[0.7166666666666667],vertical,"(890.0, 762.0)",1.05,0.673,1,3276.863,1,0.16,0.25
0,145,target,"[(1155, 772)]",[],[1],[0.7],vertical,"(890.0, 262.0)",0.7666666666666666,0.657,1,3282.456,1,0.16,0.25
0,146,catch,"[(1162, 801)]",[],[1],[],horizontal,"(890.0, 762.0)",1.7,nan,1,3287.622,1,0.16,0.25
0,147,catch,"[(1155, 801)]",[],[1],[],vertical,"(890.0, 762.0)",1.7,nan,1,3292.794,2,0.16,0.25
0,148,target,"[(1130, 777)]",[],[1],[0.5666666666666667],horizontal,"(890.0, 762.0)",0.9,0.524,1,3298.611,2,0.14,0.25
0,149,target,"[(1160, 804)]",[],[1],[0.5333333333333333],horizontal,"(390.0, 762.0)",0.5,0.493,1,3303.757,2,0.14,0.25
0,150,target,"[(1165, 803)]",[],[1],[0.5333333333333333],vertical,"(890.0, 762.0)",0.3833333333333333,0.496,1,3308.828,3,0.14,0.25
0,151,catch,"[(1137, 802)]",[],[1],[],horizontal,"(390.0, 262.0)",1.7,nan,1,3313.882,3,0.14,0.25
0,152,target,"[(1160, 792)]",[],[1],[0.21666666666666667],horizontal,"(390.0, 762.0)",1.1833333333333333,0.182,0,3319.594,0,0.14,0.25
0,153,target,"[(1115, 809)]",[],[1],[0.5666666666666667],vertical,"(890.0, 762.0)",1.3,0.528,1,3324.311,1,0.14,0.25
0,154,catch,"[(1130, 823)]",[],[1],[],horizontal,"(890.0, 762.0)",1.7,nan,1,3329.678,1,0.14,0.25
0,155,target,"[(1132, 811)]",[],[1],[0.36666666666666664],horizontal,"(890.0, 262.0)",1.4166666666666667,0.332,1,3335.018,1,0.14,0.25
0,156,target,"[(1125, 784)]",[],[1],[0.3333333333333333],horizontal,"(390.0, 762.0)",1.5,0.297,1,3340.506,2,0.14,0.25
0,157,target,"[(1157, 790)]",[],[1],[0.6333333333333333],horizontal,"(890.0, 762.0)",0.7333333333333333,0.597,1,3346.261,2,0.14,0.25
0,158,catch,"[(1159, 811)]",[],[1],[],vertical,"(390.0, 762.0)",1.7,nan,1,3351.511,2,0.14,0.25
0,159,target,"[(1157, 814)]",[],[1],[0.5333333333333333],vertical,"(890.0, 262.0)",0.6833333333333333,0.496,1,3357.327,3,0.12,0.25
0,160,target,"[(1135, 790)]",[],[1],[0.7],vertical,"(390.0, 762.0)",1.1833333333333333,0.658,1,3363.178,3,0.12,0.25
0,161,target,"[(1150, 802)]",[],[1],[0.5333333333333333],horizontal,"(390.0, 762.0)",1.0166666666666666,0.489,1,3369.278,3,0.12,0.25
0,162,target,"[(1135, 810)]",[],[1],[0.55],horizontal,"(890.0, 262.0)",1.1333333333333333,0.512,1,3375.157,3,0.12,0.25
0,163,catch,"[(1154, 793)]",[],[1],[],vertical,"(890.0, 762.0)",1.7,nan,1,3381.07,3,0.1,0.25
0,164,target,"[(1161, 780)]",[],[1],[0.55],horizontal,"(390.0, 762.0)",1.1833333333333333,0.51,1,3387.128,3,0.1,0.25
0,165,target,"[(1160, 809)]",[],[1],[0.6],vertical,"(390.0, 762.0)",0.35,0.56,1,3392.994,3,0.1,0.25
0,166,catch,"[(1157, 805)]",[],[1],[],vertical,"(390.0, 762.0)",1.7,nan,1,3398.428,3,0.1,0.25
0,167,target,"[(1157, 802)]",[],[1],[0.43333333333333335],horizontal,"(390.0, 262.0)",1.3666666666666667,0.398,1,3404.286,3,0.1,0.25
0,168,catch,"[(1158, 789)]",[],[1],[],vertical,"(390.0, 762.0)",1.7,nan,1,3410.452,3,0.1,0.25
0,169,target,"[(1154, 791)]",[],[1],[0.5666666666666667],horizontal,"(390.0, 262.0)",1.3,0.527,1,3416.252,3,0.1,0.25
0,170,catch,"[(1127, 789)]",[],[1],[],horizontal,"(890.0, 262.0)",1.7,nan,1,3421.832,3,0.1,0.25
0,171,target,"[(1130, 780)]",[],[1],[0.4],vertical,"(890.0, 762.0)",1.1333333333333333,0.367,1,3427.372,3,0.1,0.25
0,172,target,"[(1132, 796)]",[],[1],[0.8],horizontal,"(890.0, 762.0)",0.7,0.767,1,3433.248,3,0.1,0.25
0,173,target,"[(1155, 800)]",[],[1],[0.5333333333333333],vertical,"(390.0, 262.0)",0.36666666666666664,0.498,1,3438.545,3,0.08,0.25
0,174,target,"[(1130, 805)]",[],[1],[0.65],vertical,"(890.0, 262.0)",1.0833333333333333,0.607,1,3443.512,3,0.08,0.25
0,175,target,"[(1160, 804)]",[],[1],[0.7666666666666666],horizontal,"(890.0, 762.0)",1.0,0.723,1,3449.706,3,0.06,0.25
0,176,target,"[(1132, 788)]",[],[1],[0.4666666666666667],horizontal,"(890.0, 762.0)",1.5333333333333332,0.422,1,3455.494,3,0.04,0.25
0,177,target,"[(1135, 800)]",[],[1],[0.6333333333333333],vertical,"(890.0, 762.0)",0.5333333333333333,0.59,1,3461.657,3,0.04,0.25
0,178,target,"[(1141, 791)]",[],[1],[0.6],horizontal,"(390.0, 762.0)",1.1833333333333333,0.557,1,3467.461,3,0.02,0.25
0,179,target,"[(1155, 769)]",[],[1],[0.5666666666666667],horizontal,"(390.0, 262.0)",1.0666666666666667,0.524,1,3473.16,3,0.02,0.25
0,180,target,"[(1155, 795)]",[],[1],[0.65],horizontal,"(390.0, 262.0)",0.4166666666666667,0.606,1,3478.827,3,0.02,0.25
0,181,target,"[(1142, 799)]",[],[1],[0.36666666666666664],horizontal,"(890.0, 762.0)",1.1666666666666667,0.326,1,3483.811,3,0.02,0.25
0,182,target,"[(1130, 812)]",[],[1],[0.55],vertical,"(890.0, 762.0)",0.85,0.508,1,3489.512,3,0.02,0.25
0,183,target,"[(1154, 798)]",[],[1],[0.7666666666666666],horizontal,"(890.0, 262.0)",0.36666666666666664,0.726,1,3495.298,3,0.02,0.25
0,184,catch,"[(1130, 792)]",[],[1],[],horizontal,"(890.0, 262.0)",1.7,nan,1,3500.461,3,0.02,0.25
0,185,target,"[(1122, 801)]",[],[1],[0.6],vertical,"(390.0, 262.0)",0.8333333333333334,0.561,1,3506.668,3,0.0,0.25
0,186,catch,"[(1156, 802)]",[],[1],[],vertical,"(390.0, 762.0)",1.7,nan,1,3512.399,3,0.0,0.25
0,187,target,"[(1132, 802)]",[],[1],[0.5833333333333334],horizontal,"(390.0, 762.0)",1.0,0.547,1,3518.228,3,0.0,0.25
0,188,target,"[(1130, 804)]",[],[1],[0.5166666666666666],vertical,"(890.0, 762.0)",0.5833333333333334,0.476,1,3523.945,3,0.0,0.25
0,189,target,"[(1133, 787)]",[],[1],[0.65],horizontal,"(390.0, 262.0)",0.9,0.611,1,3529.133,3,0.0,0.25
0,190,target,"[(1153, 809)]",[],[1],[0.6333333333333333],horizontal,"(390.0, 262.0)",0.4,0.587,1,3534.764,3,0.0,0.25
0,191,catch,"[(1150, 780)]",[],[1],[],vertical,"(390.0, 762.0)",1.7,nan,1,3539.924,3,0.0,0.25
0,192,target,"[(1157, 794)]",[],[1],[0.5166666666666666],vertical,"(890.0, 262.0)",0.7,0.479,1,3545.97,3,0.0,0.25
0,193,target,"[(1126, 791)]",[],[1],[0.85],horizontal,"(390.0, 762.0)",0.9833333333333333,nan,0,3551.395,0,0.0,0.25
0,194,target,"[(1119, 803)]",[],[1],[0.11666666666666667],horizontal,"(890.0, 762.0)",1.2166666666666666,0.087,0,3555.911,0,0.0,0.25
0,195,target,"[(1093, 804)]",[],[1],[0.85],vertical,"(390.0, 262.0)",0.6,nan,0,3560.37,0,0.0,0.25
0,196,target,"[(1131, 815)]",[],[1],[0.5333333333333333],horizontal,"(390.0, 262.0)",0.43333333333333335,0.504,1,3570.546,1,0.0,0.25
0,197,catch,"[(1138, 810)]",[],[1],[],horizontal,"(890.0, 762.0)",1.7,nan,1,3575.061,1,0.0,0.25
0,198,target,"[(1161, 809)]",[],[1],[0.4666666666666667],vertical,"(890.0, 262.0)",1.5,0.424,1,3580.112,1,0.0,0.25
0,199,target,"[(1155, 793)]",[],[1],[],horizontal,"(390.0, 262.0)",,"('cti', 1.441)",0,3585.531,0,0.02,0.25
0,200,target,"[(1129, 808)]",[],[1],[0.85],vertical,"(890.0, 262.0)",1.3833333333333333,nan,0,3590.158,0,0.02,0.25
0,201,target,"[(1128, 821)]",[],[1],[0.85],vertical,"(390.0, 762.0)",0.7166666666666667,nan,0,3599.318,0,0.02,0.25
0,202,catch,"[(1110, 823)]",[],[1],[],vertical,"(390.0, 762.0)",1.7,nan,1,3604.404,1,0.02,0.25
0,203,target,"[(1155, 813)]",[],[1],[],vertical,"(390.0, 762.0)",,"('cti', 1.133)",0,3613.645,0,0.04,0.25
0,204,target,"[(1132, 812)]",[],[1],[0.5833333333333334],horizontal,"(390.0, 762.0)",0.35,0.542,1,3617.579,1,0.04,0.25
0,205,target,"[(1123, 838)]",[],[1],[0.4],horizontal,"(390.0, 262.0)",1.25,0.361,1,3640.896,1,0.04,0.25
0,206,target,"[(1129, 819)]",[],[1],[],vertical,"(390.0, 262.0)",,"('cti', 0.68)",0,3646.162,0,0.06,0.25
0,207,catch,"[(1129, 825)]",[],[1],[],horizontal,"(890.0, 762.0)",1.7,nan,1,3650.174,1,0.06,0.25
0,208,target,"[(1130, 817)]",[],[1],[0.5],vertical,"(390.0, 262.0)",1.3166666666666667,0.467,1,3655.356,1,0.06,0.25
0,209,catch,"[(1125, 791)]",[],[1],[],vertical,"(390.0, 762.0)",1.7,nan,1,3660.742,1,0.06,0.25
0,210,target,"[(1130, 809)]",[],[1],[0.11666666666666667],horizontal,"(890.0, 262.0)",1.25,0.085,0,3665.892,0,0.06,0.25
0,211,target,"[(1136, 812)]",[],[1],[0.75],horizontal,"(390.0, 762.0)",0.7,0.702,1,3670.529,1,0.06,0.25
0,212,target,"[(1117, 858)]",[],[1],[0.55],vertical,"(390.0, 762.0)",1.4,0.508,1,3702.6,1,0.06,0.25
0,213,target,"[(1149, 821)]",[],[1],[0.43333333333333335],vertical,"(890.0, 762.0)",1.3666666666666667,0.398,1,3710.972,1,0.06,0.25
0,214,target,"[(1121, 825)]",[],[1],[0.5666666666666667],vertical,"(890.0, 762.0)",0.9666666666666667,0.523,1,3715.996,2,0.06,0.25
0,215,catch,"[(1152, 788)]",[],[1],[],horizontal,"(890.0, 762.0)",1.7,nan,1,3721.296,2,0.06,0.25
0,216,target,"[(1163, 806)]",[],[1],[0.5833333333333334],vertical,"(390.0, 262.0)",0.5333333333333333,0.542,1,3727.063,2,0.06,0.25
0,217,target,"[(1142, 812)]",[],[1],[0.75],vertical,"(390.0, 262.0)",1.0,0.704,1,3731.823,3,0.06,0.25
0,218,catch,"[(1165, 807)]",[],[1],[],vertical,"(390.0, 262.0)",1.7,nan,1,3738.162,3,0.06,0.25
0,219,catch,"[(1133, 816)]",[],[1],[],horizontal,"(390.0, 262.0)",,"('cti', 1.405),nan",0,3743.912,0,0.08,0.25
0,220,target,"[(1091, 845)]",[],[1],[0.4166666666666667],vertical,"(890.0, 262.0)",1.4,0.378,1,3748.172,1,0.08,0.25
0,221,target,"[(1125, 810)]",[],[1],[0.6],vertical,"(890.0, 262.0)",0.6666666666666666,0.559,1,3753.715,1,0.08,0.25
0,222,target,"[(1128, 806)]",[],[1],[0.6],horizontal,"(890.0, 262.0)",0.7166666666666667,0.565,1,3758.313,1,0.08,0.25
0,223,catch,"[(1129, 793)]",[],[1],[],vertical,"(390.0, 262.0)",1.7,nan,1,3763.48,2,0.08,0.25
0,224,target,"[(1163, 802)]",[],[1],[0.5666666666666667],horizontal,"(390.0, 762.0)",0.55,0.528,1,3769.029,2,0.08,0.25
0,225,target,"[(1156, 806)]",[],[1],[0.55],horizontal,"(890.0, 262.0)",0.9166666666666666,0.509,1,3773.729,2,0.08,0.25
0,226,target,"[(1133, 802)]",[],[1],[0.6166666666666667],vertical,"(890.0, 262.0)",1.25,0.572,1,3778.88,3,0.08,0.25
0,227,catch,"[(1132, 818)]",[],[1],[],vertical,"(390.0, 262.0)",1.7,nan,1,3784.695,3,0.08,0.25
0,228,target,"[(1135, 806)]",[],[1],[0.5666666666666667],horizontal,"(890.0, 762.0)",1.2833333333333332,0.522,1,3790.355,3,0.08,0.25
0,229,catch,"[(1150, 789)]",[],[1],[0.03333333333333333],vertical,"(890.0, 262.0)",1.7,"0.02,nan",0,3796.525,0,0.1,0.25
0,230,catch,"[(1125, 812)]",[],[1],[],vertical,"(390.0, 762.0)",1.7,nan,1,3801.291,1,0.1,0.25
0,231,target,"[(1157, 814)]",[],[1],[0.7166666666666667],horizontal,"(890.0, 762.0)",1.3,0.671,1,3806.428,1,0.1,0.25
0,232,target,"[(1116, 809)]",[],[1],[0.5833333333333334],horizontal,"(890.0, 762.0)",1.3666666666666667,0.541,1,3811.947,1,0.1,0.25
0,233,catch,"[(1164, 795)]",[],[1],[],horizontal,"(890.0, 262.0)",,"('cti', 1.256),nan",0,3817.096,0,0.12,0.25
0,234,catch,"[(1133, 844)]",[],[1],[],horizontal,"(390.0, 262.0)",1.7,nan,1,3821.164,1,0.12,0.25
0,235,target,"[(1135, 817)]",[],[1],[0.5666666666666667],horizontal,"(390.0, 262.0)",0.4666666666666667,0.525,1,3826.79,1,0.12,0.25
0,236,target,"[(1135, 810)]",[],[1],[0.6],horizontal,"(390.0, 762.0)",0.8166666666666667,0.56,1,3831.148,1,0.12,0.25
0,237,target,"[(1116, 822)]",[],[1],[0.6333333333333333],horizontal,"(890.0, 262.0)",1.45,0.584,1,3836.113,2,0.12,0.25
0,238,target,"[(1167, 800)]",[],[1],[0.5666666666666667],vertical,"(390.0, 262.0)",1.3833333333333333,0.526,1,3841.913,2,0.12,0.25
0,239,target,"[(1135, 818)]",[],[1],[0.55],vertical,"(890.0, 262.0)",0.6666666666666666,0.515,1,3847.49,2,0.12,0.25
0,240,catch,"[(1116, 808)]",[],[1],[],horizontal,"(390.0, 262.0)",1.7,nan,1,3852.688,3,0.12,0.25
0,241,target,"[(1161, 795)]",[],[1],[0.5666666666666667],horizontal,"(890.0, 262.0)",0.6833333333333333,0.523,1,3858.718,3,0.12,0.25
0,242,target,"[(1155, 808)]",[],[1],[0.6666666666666666],vertical,"(890.0, 762.0)",0.3833333333333333,0.624,1,3864.164,3,0.12,0.25
0,243,target,"[(1167, 807)]",[],[1],[0.5333333333333333],vertical,"(890.0, 762.0)",1.5166666666666666,0.494,1,3869.534,3,0.12,0.25
0,244,target,"[(1131, 802)]",[],[1],[0.6833333333333333],vertical,"(390.0, 762.0)",0.8,0.632,1,3875.344,3,0.12,0.25
0,245,catch,"[(1170, 808)]",[],[1],[],horizontal,"(890.0, 262.0)",1.7,nan,1,3881.235,3,0.12,0.25
0,246,target,"[(1167, 803)]",[],[1],[0.75],vertical,"(890.0, 262.0)",0.43333333333333335,0.701,1,3887.104,3,0.12,0.25
0,247,catch,"[(1146, 792)]",[],[1],[],vertical,"(890.0, 762.0)",1.7,nan,1,3892.268,3,0.12,0.25
0,248,target,"[(1149, 806)]",[],[1],[0.5833333333333334],vertical,"(890.0, 762.0)",0.6333333333333333,0.538,1,3898.411,3,0.12,0.25
0,249,target,"[(1140, 776)]",[],[1],[0.65],horizontal,"(890.0, 262.0)",1.4833333333333334,0.61,1,3903.879,3,0.1,0.25
0,250,target,"[(1140, 783)]",[],[1],[0.6166666666666667],horizontal,"(890.0, 762.0)",0.6166666666666667,0.575,1,3910.129,3,0.1,0.25
0,251,catch,"[(1160, 806)]",[],[1],[],horizontal,"(390.0, 762.0)",1.7,nan,1,3915.737,3,0.1,0.25
0,252,target,"[(1165, 810)]",[],[1],[0.55],horizontal,"(890.0, 762.0)",0.8833333333333333,0.508,1,3921.926,3,0.1,0.25
0,253,target,"[(1140, 803)]",[],[1],[0.5333333333333333],horizontal,"(890.0, 762.0)",1.4166666666666667,0.489,1,3927.443,3,0.08,0.25
0,254,catch,"[(1169, 794)]",[],[1],[],vertical,"(390.0, 762.0)",1.7,nan,1,3933.437,3,0.08,0.25
0,255,target,"[(1146, 810)]",[],[1],[0.6333333333333333],horizontal,"(390.0, 762.0)",0.6666666666666666,0.593,1,3939.699,3,0.08,0.25
0,256,target,"[(1165, 806)]",[],[1],[0.5833333333333334],vertical,"(890.0, 762.0)",0.85,0.538,1,3945.602,3,0.06,0.25
0,257,target,"[(1136, 801)]",[],[1],[0.4666666666666667],vertical,"(890.0, 262.0)",1.5333333333333332,0.435,1,3951.26,3,0.06,0.25
0,258,target,"[(1167, 790)]",[],[1],[0.6],horizontal,"(890.0, 262.0)",1.1833333333333333,0.553,1,3957.73,3,0.06,0.25
0,259,target,"[(1130, 791)]",[],[1],[0.5166666666666666],horizontal,"(890.0, 262.0)",1.0333333333333332,0.474,1,3963.584,3,0.06,0.25
0,260,target,"[(1161, 804)]",[],[1],[0.6833333333333333],vertical,"(390.0, 262.0)",0.9166666666666666,0.642,1,3969.131,3,0.06,0.25
0,261,target,"[(1130, 805)]",[],[1],[0.8166666666666667],vertical,"(890.0, 762.0)",1.15,0.772,1,3974.613,3,0.06,0.25
0,262,catch,"[(1098, 838)]",[],[1],[],horizontal,"(390.0, 262.0)",1.7,nan,1,3980.502,3,0.06,0.25
0,263,target,"[(1131, 814)]",[],[1],[0.55],horizontal,"(390.0, 762.0)",1.1333333333333333,0.512,1,3987.747,3,0.06,0.25
0,264,target,"[(1133, 795)]",[],[1],[0.31666666666666665],horizontal,"(890.0, 262.0)",1.5166666666666666,0.281,1,3993.289,3,0.06,0.25
0,265,target,"[(1159, 803)]",[],[1],[0.6333333333333333],vertical,"(890.0, 762.0)",0.9,0.583,1,3999.387,3,0.06,0.25
0,266,target,"[(1135, 786)]",[],[1],[0.5333333333333333],vertical,"(890.0, 762.0)",1.0,0.489,1,4005.313,3,0.06,0.25
0,267,target,"[(1132, 808)]",[],[1],[0.85],vertical,"(390.0, 762.0)",0.65,nan,0,4010.997,0,0.06,0.25
0,268,catch,"[(1133, 811)]",[],[1],[],horizontal,"(390.0, 262.0)",1.7,nan,1,4015.198,1,0.06,0.25
0,269,target,"[(1115, 811)]",[],[1],[0.5166666666666666],horizontal,"(390.0, 262.0)",0.9833333333333333,0.475,1,4020.639,1,0.04,0.25
0,270,target,"[(1140, 782)]",[],[1],[],vertical,"(890.0, 762.0)",,"('cti', 1.399)",0,4025.725,0,0.06,0.25
0,271,target,"[(1107, 820)]",[],[1],[0.7],vertical,"(890.0, 262.0)",1.3166666666666667,0.648,1,4030.359,1,0.06,0.25
0,272,target,"[(1125, 811)]",[],[1],[0.7],horizontal,"(390.0, 762.0)",1.0166666666666666,0.652,1,4035.687,1,0.06,0.25
0,273,target,"[(1150, 806)]",[],[1],[0.6333333333333333],horizontal,"(890.0, 762.0)",0.9833333333333333,0.587,1,4040.907,1,0.06,0.25
0,274,target,"[(1134, 797)]",[],[1],[0.7166666666666667],vertical,"(890.0, 762.0)",0.4166666666666667,0.667,1,4045.737,2,0.06,0.25
0,275,target,"[(1127, 803)]",[],[1],[0.6833333333333333],vertical,"(390.0, 262.0)",0.8666666666666667,0.643,1,4051.098,2,0.06,0.25
0,276,catch,"[(1134, 811)]",[],[1],[],horizontal,"(390.0, 762.0)",1.7,nan,1,4056.5,2,0.06,0.25
0,277,target,"[(1092, 838)]",[],[1],[0.85],vertical,"(390.0, 762.0)",0.65,nan,0,4062.047,0,0.06,0.25
0,278,target,"[(1105, 811)]",[],[1],[0.7833333333333333],horizontal,"(890.0, 262.0)",1.05,0.736,1,4066.664,1,0.06,0.25
0,279,target,"[(1125, 810)]",[],[1],[0.5833333333333334],horizontal,"(390.0, 762.0)",0.65,0.547,1,4072.313,1,0.04,0.25
0,280,target,"[(1145, 807)]",[],[1],[0.5833333333333334],vertical,"(890.0, 262.0)",1.1833333333333333,0.544,1,4077.202,1,0.04,0.25
0,281,target,"[(1150, 796)]",[],[1],[0.6833333333333333],horizontal,"(890.0, 262.0)",0.8666666666666667,0.64,1,4082.197,2,0.04,0.25
0,282,catch,"[(1137, 817)]",[],[1],[],horizontal,"(390.0, 762.0)",1.7,nan,1,4087.807,2,0.04,0.25
0,283,catch,"[(1133, 781)]",[],[1],[],vertical,"(390.0, 762.0)",1.7,nan,1,4093.615,2,0.02,0.25
0,284,target,"[(1155, 796)]",[],[1],[0.55],horizontal,"(890.0, 262.0)",0.9666666666666667,0.507,1,4099.165,3,0.02,0.25
0,285,target,"[(1160, 808)]",[],[1],[0.65],vertical,"(890.0, 262.0)",1.3,0.606,1,4105.365,3,0.02,0.25
0,286,target,"[(1101, 809)]",[],[1],[0.5166666666666666],horizontal,"(890.0, 262.0)",0.6166666666666667,0.485,1,4111.331,3,0.02,0.25
0,287,catch,"[(1136, 802)]",[],[1],[],horizontal,"(390.0, 262.0)",1.7,nan,1,4116.447,3,0.02,0.25
0,288,target,"[(1133, 792)]",[],[1],[0.6],vertical,"(890.0, 262.0)",0.5166666666666666,0.556,1,4122.382,3,0.02,0.25
0,289,target,"[(1158, 812)]",[],[1],[0.6],vertical,"(890.0, 262.0)",0.6333333333333333,0.553,1,4128.048,3,0.02,0.25
0,290,target,"[(1128, 808)]",[],[1],[0.75],vertical,"(890.0, 762.0)",1.2833333333333332,0.702,1,4133.444,3,0.02,0.25
0,291,target,"[(1160, 810)]",[],[1],[0.5833333333333334],vertical,"(390.0, 762.0)",1.2666666666666666,0.541,1,4139.515,3,0.02,0.25
0,292,target,"[(1152, 792)]",[],[1],[0.65],horizontal,"(390.0, 262.0)",1.1333333333333333,0.605,1,4145.498,3,0.02,0.25
0,293,target,"[(1130, 786)]",[],[1],[0.65],horizontal,"(390.0, 762.0)",0.6333333333333333,0.61,1,4151.748,3,0.02,0.25
0,294,target,"[(1136, 803)]",[],[1],[0.6333333333333333],horizontal,"(390.0, 262.0)",1.2,0.593,1,4156.897,3,0.02,0.25
0,295,target,"[(1127, 800)]",[],[1],[0.6166666666666667],horizontal,"(390.0, 262.0)",0.9166666666666666,0.57,1,4162.6,3,0.02,0.25
0,296,catch,"[(1139, 813)]",[],[1],[],vertical,"(890.0, 762.0)",1.7,nan,1,4168.498,3,0.02,0.25
0,297,catch,"[(1131, 804)]",[],[1],[],horizontal,"(890.0, 262.0)",1.7,nan,1,4174.138,3,0.02,0.25
0,298,target,"[(1150, 813)]",[],[1],[0.5166666666666666],vertical,"(890.0, 262.0)",0.45,0.474,1,4180.264,3,0.02,0.25
0,299,target,"[(1128, 816)]",[],[1],[],vertical,"(890.0, 262.0)",,"('cti', 1.222)",0,4185.297,0,0.04,0.25
0,300,target,"[(1101, 812)]",[],[1],[0.7166666666666667],horizontal,"(890.0, 262.0)",0.6333333333333333,0.667,1,4189.86,1,0.04,0.25
0,301,target,"[(1113, 796)]",[],[1],[],horizontal,"(890.0, 762.0)",,"('cti', 0.671)",0,4195.248,0,0.06,0.25
0,302,target,"[(1070, 833)]",[],[1],[0.6],horizontal,"(890.0, 762.0)",0.45,0.554,1,4199.315,1,0.06,0.25
0,303,target,"[(1084, 824)]",[],[1],[0.85],vertical,"(390.0, 262.0)",1.3,nan,0,4203.837,0,0.06,0.25
0,304,target,"[(1085, 821)]",[],[1],[0.6166666666666667],vertical,"(890.0, 262.0)",0.9833333333333333,0.571,1,4209.017,1,0.06,0.25
0,305,target,"[(1130, 806)]",[],[1],[0.6333333333333333],vertical,"(890.0, 762.0)",0.5666666666666667,0.589,1,4214.649,1,0.06,0.25
0,306,catch,"[(1080, 812)]",[],[1],[],vertical,"(890.0, 762.0)",1.7,nan,1,4218.94,1,0.06,0.25
0,307,target,"[(1115, 797)]",[],[1],[0.5666666666666667],horizontal,"(890.0, 762.0)",0.8166666666666667,0.518,1,4224.781,2,0.06,0.25
0,308,target,"[(1115, 801)]",[],[1],[0.45],horizontal,"(890.0, 762.0)",1.4,0.424,1,4229.632,2,0.06,0.25
0,309,target,"[(1132, 817)]",[],[1],[0.6666666666666666],vertical,"(390.0, 262.0)",0.7833333333333333,0.616,1,4235.664,2,0.06,0.25
0,310,catch,"[(1115, 821)]",[],[1],[],horizontal,"(390.0, 262.0)",1.7,nan,1,4241.008,3,0.06,0.25
0,311,target,"[(1121, 814)]",[],[1],[0.5666666666666667],vertical,"(890.0, 262.0)",0.7333333333333333,0.521,1,4247.136,3,0.06,0.25
0,312,target,"[(1154, 792)]",[],[1],[0.55],vertical,"(890.0, 762.0)",0.7833333333333333,0.506,1,4252.249,3,0.06,0.25
0,313,target,"[(1125, 787)]",[],[1],[0.55],horizontal,"(890.0, 262.0)",1.2333333333333334,0.503,1,4257.699,3,0.06,0.25
0,314,target,"[(1158, 795)]",[],[1],[0.5166666666666666],horizontal,"(890.0, 262.0)",0.85,0.475,1,4263.894,3,0.06,0.25
0,315,target,"[(1127, 811)]",[],[1],[0.65],horizontal,"(390.0, 262.0)",0.8666666666666667,0.602,1,4269.546,3,0.06,0.25
0,316,target,"[(1130, 783)]",[],[1],[0.7333333333333333],horizontal,"(890.0, 762.0)",1.0333333333333332,0.688,1,4275.548,3,0.06,0.25
0,317,target,"[(1116, 828)]",[],[1],[0.75],horizontal,"(890.0, 762.0)",0.9333333333333333,0.705,1,4281.583,3,0.06,0.25
0,318,target,"[(1153, 812)]",[],[1],[0.85],horizontal,"(390.0, 762.0)",1.2333333333333334,nan,0,4288.182,0,0.06,0.25
0,319,target,"[(1120, 802)]",[],[1],[0.7333333333333333],vertical,"(890.0, 262.0)",1.4333333333333333,0.693,1,4292.814,1,0.06,0.25
0,320,target,"[(1135, 801)]",[],[1],[0.6333333333333333],horizontal,"(390.0, 762.0)",1.0666666666666667,0.587,1,4298.882,1,0.04,0.25
0,321,catch,"[(1130, 807)]",[],[1],[],horizontal,"(390.0, 262.0)",1.7,nan,1,4304.174,1,0.04,0.25
0,322,target,"[(1118, 802)]",[],[1],[0.5666666666666667],horizontal,"(890.0, 262.0)",1.2666666666666666,0.525,1,4308.965,2,0.04,0.25
0,323,catch,"[(1133, 807)]",[],[1],[],horizontal,"(390.0, 262.0)",1.7,nan,1,4314.333,2,0.04,0.25
0,324,catch,"[(1116, 813)]",[],[1],[],horizontal,"(890.0, 762.0)",,"('cti', 1.548),nan",0,4320.081,0,0.06,0.25
0,325,catch,"[(1125, 807)]",[],[1],[],horizontal,"(390.0, 762.0)",1.7,nan,1,4325.19,1,0.06,0.25
0,326,target,"[(1126, 812)]",[],[1],[0.5],vertical,"(390.0, 262.0)",0.65,0.46,1,4330.649,1,0.06,0.25
0,327,target,"[(1131, 802)]",[],[1],[0.6333333333333333],horizontal,"(390.0, 762.0)",0.7666666666666666,0.588,1,4335.082,1,0.06,0.25
0,328,target,"[(1133, 776)]",[],[1],[0.6166666666666667],horizontal,"(390.0, 762.0)",0.6666666666666666,0.581,1,4340.344,2,0.06,0.25
0,329,catch,"[(1109, 808)]",[],[1],[],vertical,"(890.0, 262.0)",,"('cti', 0.41),nan",0,4345.338,0,0.08,0.25
0,330,target,"[(1128, 836)]",[],[1],[0.85],vertical,"(390.0, 762.0)",0.4,nan,0,4349.015,0,0.08,0.25
0,331,target,"[(1125, 841)]",[],[1],[0.65],vertical,"(390.0, 262.0)",0.7833333333333333,0.611,1,4581.99,1,0.08,0.25
0,332,catch,"[(1133, 801)]",[],[1],[],horizontal,"(890.0, 262.0)",1.7,nan,1,4587.357,1,0.08,0.25
0,333,target,"[(1159, 804)]",[],[1],[0.6833333333333333],horizontal,"(890.0, 762.0)",1.1833333333333333,0.642,1,4592.966,1,0.08,0.25
0,334,catch,"[(1136, 803)]",[],[1],[],vertical,"(890.0, 262.0)",1.7,nan,1,4598.234,2,0.08,0.25
0,335,target,"[(1158, 804)]",[],[1],[0.7],vertical,"(890.0, 262.0)",1.2333333333333334,0.661,1,4604.052,2,0.08,0.25
0,336,target,"[(1158, 781)]",[],[1],[0.65],vertical,"(390.0, 262.0)",1.0166666666666666,0.608,1,4609.966,2,0.08,0.25
0,337,catch,"[(1142, 818)]",[],[1],[],vertical,"(890.0, 762.0)",1.7,nan,1,4615.633,3,0.08,0.25
0,338,target,"[(1147, 809)]",[],[1],[0.6],vertical,"(390.0, 762.0)",0.75,0.561,1,4621.779,3,0.08,0.25
0,339,catch,"[(1133, 801)]",[],[1],[],horizontal,"(890.0, 262.0)",1.7,nan,1,4627.151,3,0.08,0.25
0,340,target,"[(1147, 796)]",[],[1],[0.5],horizontal,"(890.0, 262.0)",1.2,0.458,1,4632.631,3,0.08,0.25
0,341,target,"[(1145, 802)]",[],[1],[0.3333333333333333],horizontal,"(890.0, 262.0)",1.55,0.296,1,4638.8,3,0.08,0.25
0,342,target,"[(1150, 801)]",[],[1],[0.6166666666666667],horizontal,"(890.0, 262.0)",0.7666666666666666,0.576,1,4644.834,3,0.08,0.25
0,343,target,"[(1135, 789)]",[],[1],[0.11666666666666667],horizontal,"(390.0, 762.0)",1.4666666666666666,0.084,0,4650.279,0,0.08,0.25
0,344,target,"[(1159, 803)]",[],[1],[0.85],horizontal,"(890.0, 262.0)",0.65,nan,0,4655.268,0,0.08,0.25
0,345,target,"[(1109, 811)]",[],[1],[0.85],vertical,"(390.0, 262.0)",0.65,nan,0,4659.3,0,0.08,0.25
0,346,catch,"[(1137, 803)]",[],[1],[],vertical,"(890.0, 762.0)",1.7,nan,1,4664.776,1,0.08,0.25
0,347,target,"[(1135, 780)]",[],[1],[0.7666666666666666],vertical,"(890.0, 762.0)",0.35,0.72,1,4670.001,1,0.08,0.25
0,348,target,"[(1158, 782)]",[],[1],[0.55],horizontal,"(390.0, 762.0)",1.3833333333333333,0.511,1,4674.934,1,0.08,0.25
0,349,target,"[(1155, 801)]",[],[1],[0.48333333333333334],vertical,"(890.0, 262.0)",0.7,0.448,1,4680.116,2,0.06,0.25
0,350,catch,"[(1160, 784)]",[],[1],[],vertical,"(890.0, 762.0)",1.7,nan,1,4685.28,2,0.06,0.25
0,351,target,"[(1160, 804)]",[],[1],[0.85],vertical,"(890.0, 762.0)",0.48333333333333334,nan,0,4690.684,0,0.04,0.25
0,352,target,"[(1160, 808)]",[],[1],[0.8333333333333334],vertical,"(890.0, 762.0)",0.5,0.795,1,4695.255,1,0.04,0.25
0,353,target,"[(1157, 806)]",[],[1],[0.6166666666666667],vertical,"(390.0, 262.0)",0.5833333333333334,0.572,1,4700.104,1,0.04,0.25
0,354,target,"[(1166, 801)]",[],[1],[0.55],vertical,"(390.0, 762.0)",1.4,0.508,1,4704.876,1,0.04,0.25
0,355,target,"[(1170, 783)]",[],[1],[0.36666666666666664],horizontal,"(890.0, 762.0)",1.5166666666666666,0.34,1,4709.984,2,0.04,0.25
0,356,catch,"[(1169, 796)]",[],[1],[],vertical,"(890.0, 262.0)",1.7,nan,1,4715.822,2,0.04,0.25
0,357,target,"[(1169, 782)]",[],[1],[0.6],vertical,"(890.0, 262.0)",0.6166666666666667,0.557,1,4721.491,2,0.04,0.25
0,358,target,"[(1163, 804)]",[],[1],[0.7],vertical,"(890.0, 762.0)",1.3166666666666667,0.659,1,4726.87,3,0.04,0.25
0,359,target,"[(1161, 807)]",[],[1],[0.5833333333333334],horizontal,"(390.0, 762.0)",0.5166666666666666,0.543,1,4733.109,3,0.04,0.25
0,360,target,"[(1166, 771)]",[],[1],[0.5833333333333334],horizontal,"(390.0, 262.0)",0.7333333333333333,0.543,1,4738.672,3,0.04,0.25
0,361,catch,"[(1144, 802)]",[],[1],[],horizontal,"(890.0, 762.0)",1.7,nan,1,4744.284,3,0.04,0.25
0,362,target,"[(1161, 811)]",[],[1],[0.5166666666666666],vertical,"(890.0, 262.0)",1.05,0.48,1,4750.211,3,0.04,0.25
0,363,target,"[(1134, 795)]",[],[1],[0.6666666666666666],horizontal,"(890.0, 762.0)",0.36666666666666664,0.63,1,4755.733,3,0.04,0.25
0,364,target,"[(1161, 775)]",[],[1],[],vertical,"(390.0, 262.0)",,"('cti', 1.082)",0,4760.951,0,0.06,0.25
0,365,target,"[(1115, 826)]",[],[1],[0.6333333333333333],horizontal,"(890.0, 262.0)",0.9166666666666666,0.593,1,4765.545,1,0.06,0.25
0,366,catch,"[(1146, 796)]",[],[1],[],horizontal,"(890.0, 762.0)",1.7,nan,1,4771.18,1,0.06,0.25
0,367,catch,"[(1140, 811)]",[],[1],[],horizontal,"(390.0, 262.0)",,"('cti', 1.443),nan",0,4776.35,0,0.08,0.25
0,368,catch,"[(1101, 832)]",[],[1],[],horizontal,"(890.0, 262.0)",1.7,nan,1,4780.984,1,0.08,0.25
0,369,target,"[(1164, 802)]",[],[1],[0.6],horizontal,"(390.0, 762.0)",0.95,0.559,1,4786.858,1,0.08,0.25
0,370,catch,"[(1160, 783)]",[],[1],[],vertical,"(390.0, 262.0)",1.7,nan,1,4791.962,1,0.08,0.25
0,371,target,"[(1165, 804)]",[],[1],[0.5833333333333334],horizontal,"(390.0, 262.0)",0.9,0.546,1,4796.768,2,0.08,0.25
0,372,target,"[(1165, 800)]",[],[1],[0.6666666666666666],horizontal,"(890.0, 762.0)",0.43333333333333335,0.626,1,4802.151,2,0.08,0.25
0,373,target,"[(1154, 795)]",[],[1],[0.5833333333333334],vertical,"(390.0, 762.0)",1.3,0.544,1,4807.234,2,0.08,0.25
0,374,target,"[(1153, 775)]",[],[1],[0.5833333333333334],vertical,"(390.0, 762.0)",1.25,0.546,1,4813.445,3,0.06,0.25
0,375,catch,"[(1143, 791)]",[],[1],[],vertical,"(390.0, 262.0)",1.7,nan,1,4819.617,3,0.06,0.25
0,376,target,"[(1161, 800)]",[],[1],[0.5166666666666666],vertical,"(890.0, 262.0)",1.1,0.475,1,4825.834,3,0.06,0.25
0,377,target,"[(1163, 799)]",[],[1],[0.5166666666666666],vertical,"(890.0, 762.0)",0.5333333333333333,0.479,1,4831.301,3,0.06,0.25
0,378,target,"[(1142, 802)]",[],[1],[0.5333333333333333],vertical,"(390.0, 762.0)",0.8166666666666667,0.489,1,4836.845,3,0.06,0.25
0,379,target,"[(1144, 799)]",[],[1],[0.7833333333333333],horizontal,"(390.0, 762.0)",1.0666666666666667,0.741,1,4842.384,3,0.04,0.25
0,380,target,"[(1155, 801)]",[],[1],[],vertical,"(390.0, 762.0)",,"('cti', 1.169)",0,4848.616,0,0.06,0.25
0,381,target,"[(1129, 801)]",[],[1],[0.6166666666666667],horizontal,"(390.0, 262.0)",0.8666666666666667,0.577,1,4852.616,1,0.06,0.25
0,382,catch,"[(1161, 806)]",[],[1],[],vertical,"(390.0, 262.0)",1.7,nan,1,4857.375,1,0.06,0.25
0,383,target,"[(1161, 786)]",[],[1],[0.5833333333333334],horizontal,"(390.0, 262.0)",0.6333333333333333,0.541,1,4862.617,1,0.06,0.25
0,384,target,"[(1159, 804)]",[],[1],[0.5166666666666666],horizontal,"(890.0, 762.0)",0.5166666666666666,0.475,1,4867.217,2,0.06,0.25
0,385,target,"[(1161, 786)]",[],[1],[0.4],vertical,"(890.0, 262.0)",1.3666666666666667,0.36,1,4872.185,2,0.06,0.25
0,386,target,"[(1130, 795)]",[],[1],[0.5333333333333333],horizontal,"(890.0, 762.0)",1.1333333333333333,0.494,1,4877.817,2,0.06,0.25
0,387,target,"[(1134, 799)]",[],[1],[0.7166666666666667],horizontal,"(890.0, 262.0)",0.5166666666666666,0.674,1,4883.317,3,0.06,0.25
0,388,catch,"[(1159, 806)]",[],[1],[],vertical,"(890.0, 762.0)",1.7,nan,1,4889.285,3,0.06,0.25
0,389,target,"[(1160, 806)]",[],[1],[0.6333333333333333],vertical,"(890.0, 762.0)",0.7666666666666666,0.591,1,4895.084,3,0.06,0.25
0,390,catch,"[(1131, 791)]",[],[1],[],vertical,"(890.0, 262.0)",1.7,nan,1,4900.234,3,0.06,0.25
0,391,target,"[(1159, 791)]",[],[1],[0.6333333333333333],horizontal,"(890.0, 762.0)",0.7166666666666667,0.591,1,4906.042,3,0.06,0.25
0,392,target,"[(1159, 804)]",[],[1],[0.6],vertical,"(390.0, 262.0)",0.3833333333333333,0.561,1,4911.616,3,0.06,0.25
0,393,catch,"[(1136, 805)]",[],[1],[],horizontal,"(890.0, 262.0)",1.7,nan,1,4917.018,3,0.06,0.25
0,394,target,"[(1136, 805)]",[],[1],[0.75],vertical,"(390.0, 762.0)",0.9666666666666667,0.708,1,4922.902,3,0.06,0.25
0,395,catch,"[(1162, 783)]",[],[1],[],vertical,"(390.0, 762.0)",1.7,nan,1,4929.169,3,0.06,0.25
0,396,catch,"[(1161, 795)]",[],[1],[],vertical,"(890.0, 762.0)",1.7,nan,1,4935.335,3,0.06,0.25
0,397,target,"[(1132, 794)]",[],[1],[0.48333333333333334],horizontal,"(390.0, 762.0)",1.4666666666666666,0.444,1,4941.102,3,0.06,0.25
0,398,catch,"[(1133, 791)]",[],[1],[],vertical,"(890.0, 262.0)",1.7,nan,1,4947.168,3,0.06,0.25
0,399,target,"[(1159, 789)]",[],[1],[0.5833333333333334],vertical,"(390.0, 762.0)",1.3,0.542,1,4953.11,3,0.06,0.25
0,400,catch,"[(1148, 792)]",[],[1],[],vertical,"(890.0, 262.0)",1.7,nan,1,4959.518,3,0.06,0.25
0,401,target,"[(1158, 807)]",[],[1],[0.5666666666666667],vertical,"(390.0, 262.0)",0.7666666666666666,0.528,1,4965.602,3,0.06,0.25
0,402,target,"[(1161, 795)]",[],[1],[0.5833333333333334],vertical,"(390.0, 762.0)",1.5166666666666666,0.541,1,4971.266,3,0.06,0.25
0,403,catch,"[(1130, 798)]",[],[1],[],horizontal,"(390.0, 762.0)",1.7,nan,1,4977.852,3,0.06,0.25
0,404,target,"[(1132, 801)]",[],[1],[0.3833333333333333],vertical,"(890.0, 762.0)",1.4666666666666666,0.352,1,4983.651,3,0.06,0.25
0,405,catch,"[(1146, 799)]",[],[1],[],horizontal,"(390.0, 262.0)",1.7,nan,1,4989.786,3,0.06,0.25
0,406,target,"[(1164, 773)]",[],[1],[0.5],horizontal,"(390.0, 762.0)",1.4,0.457,1,4995.533,3,0.06,0.25
0,407,target,"[(1131, 793)]",[],[1],[0.5666666666666667],vertical,"(890.0, 262.0)",0.35,0.527,1,5001.768,3,0.06,0.25
0,408,target,"[(1141, 794)]",[],[1],[0.75],horizontal,"(390.0, 262.0)",0.43333333333333335,0.705,1,5006.628,3,0.06,0.25
0,409,target,"[(1159, 807)]",[],[1],[0.5],vertical,"(390.0, 262.0)",1.2666666666666666,0.468,1,5012.103,3,0.06,0.25
0,410,catch,"[(1131, 803)]",[],[1],[],horizontal,"(890.0, 262.0)",1.7,nan,1,5018.486,3,0.06,0.25
0,411,target,"[(1146, 791)]",[],[1],[0.6333333333333333],vertical,"(890.0, 762.0)",0.7333333333333333,0.596,1,5024.238,3,0.06,0.25
0,412,target,"[(1141, 810)]",[],[1],[0.6],vertical,"(390.0, 262.0)",0.85,0.568,1,5029.795,3,0.06,0.25
0,413,target,"[(1164, 792)]",[],[1],[0.5],vertical,"(390.0, 762.0)",1.5333333333333332,0.471,1,5035.152,3,0.06,0.25
0,414,target,"[(1126, 792)]",[],[1],[0.43333333333333335],vertical,"(390.0, 262.0)",0.9666666666666667,0.399,1,5041.519,3,0.04,0.25
0,415,target,"[(1155, 796)]",[],[1],[0.55],vertical,"(890.0, 762.0)",0.6,0.505,1,5047.104,3,0.04,0.25
0,416,target,"[(1155, 798)]",[],[1],[0.5333333333333333],horizontal,"(890.0, 262.0)",0.9833333333333333,0.493,1,5052.601,3,0.04,0.25
0,417,target,"[(1131, 794)]",[],[1],[0.3833333333333333],vertical,"(390.0, 262.0)",1.4333333333333333,0.352,1,5058.369,3,0.02,0.25
0,418,catch,"[(1157, 802)]",[],[1],[],horizontal,"(890.0, 762.0)",1.7,nan,1,5064.302,3,0.02,0.25
0,419,catch,"[(1136, 781)]",[],[1],[],horizontal,"(890.0, 762.0)",1.7,nan,1,5070.487,3,0.02,0.25
0,420,target,"[(1159, 796)]",[],[1],[0.5666666666666667],vertical,"(390.0, 762.0)",0.9,0.529,1,5076.416,3,0.02,0.25
0,421,catch,"[(1146, 801)]",[],[1],[],horizontal,"(390.0, 762.0)",1.7,nan,1,5081.97,3,0.02,0.25
0,422,catch,"[(1147, 774)]",[],[1],[],horizontal,"(890.0, 762.0)",1.7,nan,1,5088.344,3,0.02,0.25
0,423,catch,"[(1155, 796)]",[],[1],[],horizontal,"(890.0, 262.0)",1.7,nan,1,5094.618,3,0.02,0.25
0,424,target,"[(1136, 804)]",[],[1],[0.48333333333333334],horizontal,"(390.0, 762.0)",0.75,0.452,1,5100.217,3,0.02,0.25
0,425,catch,"[(1121, 796)]",[],[1],[],horizontal,"(390.0, 762.0)",1.7,nan,1,5105.962,3,0.02,0.25
0,426,target,"[(1159, 819)]",[],[1],[0.5],vertical,"(890.0, 262.0)",1.4666666666666666,0.467,1,5111.913,3,0.02,0.25
0,427,target,"[(1156, 825)]",[],[1],[0.6],vertical,"(390.0, 762.0)",0.5833333333333334,0.567,1,5118.169,3,0.02,0.25
0,428,target,"[(1126, 781)]",[],[1],[0.55],vertical,"(890.0, 762.0)",1.4333333333333333,0.505,1,5123.998,3,0.02,0.25
0,429,catch,"[(1160, 794)]",[],[1],[],vertical,"(390.0, 262.0)",1.7,nan,1,5130.618,3,0.02,0.25
0,430,catch,"[(1160, 804)]",[],[1],[],vertical,"(390.0, 762.0)",1.7,nan,1,5136.985,3,0.0,0.25
0,431,catch,"[(1164, 795)]",[],[1],[],horizontal,"(890.0, 762.0)",1.7,nan,1,5143.0,3,0.0,0.25
0,432,target,"[(1158, 792)]",[],[1],[0.5333333333333333],horizontal,"(890.0, 262.0)",0.45,0.498,1,5148.785,3,0.0,0.25
0,433,catch,"[(1152, 802)]",[],[1],[],horizontal,"(390.0, 262.0)",1.7,nan,1,5153.823,3,0.0,0.25
0,434,target,"[(1152, 796)]",[],[1],[0.5666666666666667],horizontal,"(390.0, 762.0)",0.35,0.525,1,5159.571,3,0.0,0.25
0,435,catch,"[(1133, 796)]",[],[1],[],horizontal,"(890.0, 262.0)",1.7,nan,1,5164.451,3,0.0,0.25
0,436,target,"[(1137, 802)]",[],[1],[0.6166666666666667],horizontal,"(390.0, 762.0)",0.9,0.581,1,5170.419,3,0.0,0.25
0,437,catch,"[(1155, 789)]",[],[1],[],vertical,"(390.0, 262.0)",1.7,nan,1,5176.303,3,0.0,0.25
0,438,target,"[(1150, 796)]",[],[1],[0.5666666666666667],vertical,"(390.0, 762.0)",0.5666666666666667,0.526,1,5182.235,3,0.0,0.25
0,439,target,"[(1146, 787)]",[],[1],[0.7],horizontal,"(890.0, 762.0)",0.4,0.657,1,5187.619,3,0.0,0.25
0,440,catch,"[(1145, 798)]",[],[1],[],horizontal,"(890.0, 762.0)",1.7,nan,1,5193.399,3,0.0,0.25
0,441,catch,"[(1160, 792)]",[],[1],[],horizontal,"(390.0, 762.0)",1.7,nan,1,5199.203,3,0.0,0.25
0,442,target,"[(1160, 806)]",[],[1],[0.35],horizontal,"(390.0, 762.0)",0.9166666666666666,0.312,1,5205.27,3,0.0,0.25
0,443,target,"[(1141, 803)]",[],[1],[0.55],vertical,"(390.0, 262.0)",0.8333333333333334,0.504,1,5210.469,3,0.0,0.25
0,444,catch,"[(1141, 805)]",[],[1],[],vertical,"(890.0, 762.0)",1.7,nan,1,5216.534,3,0.0,0.25
0,445,target,"[(1132, 792)]",[],[1],[0.6166666666666667],vertical,"(890.0, 762.0)",0.7166666666666667,0.573,1,5222.98,3,0.0,0.25
0,446,target,"[(1165, 794)]",[],[1],[0.55],horizontal,"(890.0, 262.0)",1.0,0.514,1,5228.523,3,0.0,0.25
0,447,catch,"[(1150, 805)]",[],[1],[],vertical,"(890.0, 762.0)",1.7,nan,1,5234.308,3,0.0,0.25
0,448,target,"[(1144, 806)]",[],[1],[0.5833333333333334],horizontal,"(390.0, 262.0)",0.9833333333333333,0.544,1,5240.735,3,0.0,0.25
0,449,target,"[(1142, 807)]",[],[1],[0.5833333333333334],vertical,"(390.0, 262.0)",1.15,0.54,1,5246.353,3,0.0,0.25
0,450,target,"[(1150, 796)]",[],[1],[0.48333333333333334],horizontal,"(390.0, 262.0)",1.3333333333333333,0.445,1,5252.137,3,0.0,0.25
0,451,target,"[(1155, 790)]",[],[1],[0.65],vertical,"(890.0, 762.0)",0.4166666666666667,0.602,1,5258.188,3,0.0,0.25
0,452,catch,"[(1148, 792)]",[],[1],[],vertical,"(890.0, 262.0)",1.7,nan,1,5263.53,3,0.0,0.25
0,453,target,"[(1145, 816)]",[],[1],[0.6833333333333333],horizontal,"(890.0, 262.0)",0.43333333333333335,0.639,1,5269.387,3,0.0,0.25
0,454,target,"[(1160, 798)]",[],[1],[0.7833333333333333],horizontal,"(390.0, 262.0)",0.9666666666666667,0.735,1,5274.77,3,0.0,0.25
0,455,catch,"[(1152, 797)]",[],[1],[],vertical,"(390.0, 762.0)",1.7,nan,1,5280.862,3,0.0,0.25
0,456,target,"[(1142, 795)]",[],[1],[0.6666666666666666],vertical,"(890.0, 262.0)",0.85,0.623,1,5286.667,3,0.0,0.25
0,457,target,"[(1159, 805)]",[],[1],[0.5333333333333333],vertical,"(390.0, 762.0)",0.4166666666666667,0.493,1,5292.791,3,0.0,0.25
0,458,target,"[(1136, 783)]",[],[1],[],horizontal,"(390.0, 762.0)",,"('cti', 1.068)",0,5298.238,0,0.02,0.25
0,459,target,"[(1138, 811)]",[],[1],[0.55],vertical,"(390.0, 762.0)",0.6,0.517,1,5302.28,1,0.02,0.25
0,460,target,"[(1141, 788)]",[],[1],[0.7166666666666667],horizontal,"(890.0, 262.0)",0.6833333333333333,0.672,1,5307.296,1,0.02,0.25
0,461,catch,"[(1157, 796)]",[],[1],[],horizontal,"(390.0, 262.0)",1.7,nan,1,5311.822,1,0.02,0.25
0,462,target,"[(1144, 789)]",[],[1],[0.7166666666666667],vertical,"(890.0, 762.0)",0.45,0.676,1,5316.831,2,0.02,0.25
0,463,target,"[(1160, 786)]",[],[1],[0.45],vertical,"(890.0, 762.0)",1.3666666666666667,0.409,1,5322.321,2,0.02,0.25
0,464,target,"[(1160, 803)]",[],[1],[0.65],horizontal,"(390.0, 262.0)",0.7333333333333333,0.616,1,5328.069,2,0.02,0.25
0,465,catch,"[(1150, 817)]",[],[1],[],vertical,"(890.0, 262.0)",1.7,nan,1,5333.219,3,0.02,0.25
0,466,target,"[(1138, 800)]",[],[1],[0.7166666666666667],horizontal,"(390.0, 762.0)",0.75,0.677,1,5339.056,3,0.02,0.25
0,467,catch,"[(1158, 785)]",[],[1],[],horizontal,"(390.0, 762.0)",1.7,nan,1,5344.915,3,0.02,0.25
0,468,target,"[(1160, 808)]",[],[1],[0.6166666666666667],horizontal,"(390.0, 262.0)",0.43333333333333335,0.57,1,5351.076,3,0.02,0.25
0,469,target,"[(1147, 799)]",[],[1],[0.7166666666666667],vertical,"(890.0, 762.0)",0.5666666666666667,0.676,1,5356.691,3,0.02,0.25
0,470,catch,"[(1156, 789)]",[],[1],[],horizontal,"(890.0, 262.0)",,"('cti', 1.617),nan",0,5362.584,0,0.04,0.25
0,471,catch,"[(1144, 803)]",[],[1],[],vertical,"(390.0, 762.0)",1.7,nan,1,5367.403,1,0.04,0.25
0,472,catch,"[(1110, 792)]",[],[1],[],vertical,"(390.0, 762.0)",,"('cti', 1.611),nan",0,5372.551,0,0.06,0.25
0,473,target,"[(1142, 800)]",[],[1],[0.5666666666666667],horizontal,"(890.0, 762.0)",0.9666666666666667,0.523,1,5377.127,1,0.06,0.25
0,474,target,"[(1137, 797)]",[],[1],[0.6166666666666667],horizontal,"(390.0, 262.0)",1.25,0.575,1,5381.854,1,0.06,0.25
0,475,catch,"[(1158, 807)]",[],[1],[],horizontal,"(390.0, 262.0)",1.7,nan,1,5387.441,1,0.06,0.25
0,476,target,"[(1126, 801)]",[],[1],[0.5666666666666667],horizontal,"(890.0, 262.0)",0.8666666666666667,0.521,1,5392.735,2,0.06,0.25
0,477,target,"[(1160, 777)]",[],[1],[0.7666666666666666],vertical,"(390.0, 262.0)",0.9666666666666667,0.724,1,5397.82,2,0.06,0.25
0,478,target,"[(1157, 801)]",[],[1],[0.6833333333333333],horizontal,"(390.0, 762.0)",1.0833333333333333,0.637,1,5403.256,2,0.06,0.25
0,479,target,"[(1158, 811)]",[],[1],[0.5666666666666667],vertical,"(390.0, 762.0)",0.9333333333333333,0.526,1,5409.268,3,0.06,0.25
0,480,target,"[(1160, 790)]",[],[1],[0.5666666666666667],vertical,"(890.0, 762.0)",1.4166666666666667,0.53,1,5415.385,3,0.06,0.25
0,481,target,"[(1160, 779)]",[],[1],[0.5833333333333334],vertical,"(890.0, 262.0)",1.4666666666666666,0.539,1,5421.474,3,0.06,0.25
0,482,target,"[(1140, 806)]",[],[1],[0.5166666666666666],vertical,"(390.0, 262.0)",1.3666666666666667,0.477,1,5427.566,3,0.06,0.25
0,483,target,"[(1150, 782)]",[],[1],[0.5666666666666667],horizontal,"(390.0, 262.0)",0.5333333333333333,0.53,1,5434.005,3,0.06,0.25
0,484,target,"[(1155, 813)]",[],[1],[0.5166666666666666],vertical,"(890.0, 262.0)",0.5166666666666666,0.477,1,5439.321,3,0.06,0.25
0,485,target,"[(1159, 806)]",[],[1],[0.5333333333333333],horizontal,"(390.0, 262.0)",0.8833333333333333,0.495,1,5444.537,3,0.06,0.25
0,486,target,"[(1162, 782)]",[],[1],[0.65],horizontal,"(890.0, 762.0)",0.65,0.605,1,5450.22,3,0.06,0.25
0,487,target,"[(1160, 803)]",[],[1],[0.75],horizontal,"(890.0, 762.0)",0.8166666666666667,0.704,1,5456.132,3,0.06,0.25
0,488,target,"[(1136, 809)]",[],[1],[0.65],vertical,"(890.0, 262.0)",0.75,0.605,1,5461.553,3,0.06,0.25
0,489,target,"[(1141, 795)]",[],[1],[0.8166666666666667],vertical,"(390.0, 762.0)",0.5,0.771,1,5467.585,3,0.06,0.25
0,490,target,"[(1147, 796)]",[],[1],[0.7166666666666667],horizontal,"(890.0, 262.0)",0.45,0.679,1,5472.986,3,0.06,0.25
0,491,catch,"[(1149, 786)]",[],[1],[],vertical,"(890.0, 762.0)",1.7,nan,1,5478.62,3,0.06,0.25
0,492,catch,"[(1150, 803)]",[],[1],[0.03333333333333333],horizontal,"(390.0, 762.0)",1.7,"0.02,nan",0,5484.803,0,0.08,0.25
0,493,target,"[(1133, 806)]",[],[1],[0.5],vertical,"(890.0, 762.0)",1.3166666666666667,0.468,1,5489.521,1,0.08,0.25
0,494,target,"[(1107, 829)]",[],[1],[0.5166666666666666],vertical,"(890.0, 262.0)",1.3333333333333333,0.475,1,5494.67,1,0.08,0.25
0,495,catch,"[(1134, 801)]",[],[1],[],horizontal,"(390.0, 762.0)",1.7,nan,1,5500.093,1,0.08,0.25
0,496,catch,"[(1144, 783)]",[],[1],[],horizontal,"(890.0, 762.0)",1.7,nan,1,5505.686,2,0.08,0.25
0,497,catch,"[(1130, 809)]",[],[1],[],horizontal,"(890.0, 762.0)",1.7,nan,1,5511.237,2,0.08,0.25
0,498,target,"[(1134, 815)]",[],[1],[0.6166666666666667],vertical,"(890.0, 762.0)",1.05,0.577,1,5517.337,2,0.08,0.25
0,499,target,"[(1133, 808)]",[],[1],[0.85],horizontal,"(390.0, 762.0)",0.9333333333333333,nan,0,5523.398,0,0.08,0.25
0,500,target,"[(1130, 811)]",[],[1],[0.5833333333333334],horizontal,"(390.0, 262.0)",0.7166666666666667,0.536,1,5528.238,1,0.08,0.25
0,501,catch,"[(1144, 801)]",[],[1],[],horizontal,"(390.0, 762.0)",1.7,nan,1,5532.9,1,0.08,0.25
0,502,catch,"[(1159, 808)]",[],[1],[],vertical,"(390.0, 762.0)",1.7,nan,1,5538.412,1,0.08,0.25
0,503,catch,"[(1159, 809)]",[],[1],[],horizontal,"(390.0, 262.0)",1.7,nan,1,5543.205,2,0.08,0.25
0,504,target,"[(1166, 811)]",[],[1],[0.6],vertical,"(390.0, 262.0)",0.6,0.554,1,5549.004,2,0.08,0.25
0,505,catch,"[(1129, 806)]",[],[1],[],horizontal,"(390.0, 262.0)",1.7,nan,1,5554.394,2,0.08,0.25
0,506,target,"[(1163, 802)]",[],[1],[0.5666666666666667],horizontal,"(890.0, 762.0)",1.4666666666666666,0.526,1,5559.764,3,0.08,0.25
0,507,target,"[(1160, 816)]",[],[1],[0.5166666666666666],vertical,"(890.0, 762.0)",1.5333333333333332,0.479,1,5566.009,3,0.08,0.25
0,508,target,"[(1146, 803)]",[],[1],[0.5666666666666667],vertical,"(390.0, 762.0)",0.43333333333333335,0.528,1,5571.931,3,0.06,0.25
0,509,catch,"[(1155, 802)]",[],[1],[],horizontal,"(890.0, 762.0)",1.7,nan,1,5577.081,3,0.06,0.25
0,510,target,"[(1160, 776)]",[],[1],[0.6166666666666667],vertical,"(390.0, 262.0)",0.6333333333333333,0.574,1,5583.262,3,0.06,0.25
0,511,target,"[(1160, 792)]",[],[1],[0.7],vertical,"(390.0, 762.0)",1.35,0.659,1,5589.124,3,0.06,0.25
0,512,target,"[(1160, 789)]",[],[1],[0.5333333333333333],horizontal,"(390.0, 762.0)",1.2833333333333332,0.492,1,5595.47,3,0.06,0.25
0,513,catch,"[(1157, 802)]",[],[1],[],vertical,"(890.0, 762.0)",1.7,nan,1,5601.624,3,0.06,0.25
0,514,target,"[(1158, 782)]",[],[1],[0.6666666666666666],vertical,"(390.0, 262.0)",0.8333333333333334,0.623,1,5607.855,3,0.06,0.25
0,515,target,"[(1159, 805)]",[],[1],[0.5166666666666666],vertical,"(890.0, 262.0)",1.4666666666666666,0.474,1,5613.77,3,0.06,0.25
0,516,catch,"[(1128, 806)]",[],[1],[],horizontal,"(390.0, 262.0)",1.7,nan,1,5620.238,3,0.06,0.25
0,517,target,"[(1126, 801)]",[],[1],[0.7333333333333333],vertical,"(390.0, 762.0)",0.45,0.689,1,5626.404,3,0.06,0.25
0,518,target,"[(1114, 792)]",[],[1],[0.6166666666666667],horizontal,"(390.0, 762.0)",0.7166666666666667,0.574,1,5631.554,3,0.06,0.25
0,519,target,"[(1139, 821)]",[],[1],[0.4],horizontal,"(390.0, 262.0)",1.4833333333333334,0.357,1,5637.627,3,0.06,0.25
0,520,target,"[(1147, 806)]",[],[1],[0.5666666666666667],vertical,"(390.0, 262.0)",1.2166666666666666,0.522,1,5644.004,3,0.04,0.25
0,521,catch,"[(1147, 808)]",[],[1],[],vertical,"(890.0, 762.0)",1.7,nan,1,5649.954,3,0.04,0.25
0,522,target,"[(1135, 803)]",[],[1],[0.4666666666666667],horizontal,"(390.0, 262.0)",1.4666666666666666,0.424,1,5655.937,3,0.02,0.25
0,523,catch,"[(1128, 802)]",[],[1],[],vertical,"(890.0, 762.0)",1.7,nan,1,5661.827,3,0.02,0.25
0,524,target,"[(1157, 811)]",[],[1],[0.7166666666666667],vertical,"(890.0, 262.0)",1.2333333333333334,0.67,1,5668.061,3,0.02,0.25
0,525,target,"[(1138, 778)]",[],[1],[0.5],horizontal,"(890.0, 262.0)",1.4,0.46,1,5674.22,3,0.02,0.25
0,526,target,"[(1148, 801)]",[],[1],[0.5833333333333334],horizontal,"(890.0, 762.0)",0.48333333333333334,0.538,1,5680.655,3,0.02,0.25
0,527,target,"[(1158, 806)]",[],[1],[0.35],vertical,"(890.0, 262.0)",1.5333333333333332,0.312,1,5686.169,3,0.02,0.25
0,528,target,"[(1161, 806)]",[],[1],[0.5666666666666667],vertical,"(890.0, 762.0)",0.75,0.523,1,5692.425,3,0.02,0.25
0,529,target,"[(1160, 793)]",[],[1],"[0.85, 0.85]",horizontal,"(390.0, 762.0)",0.95,"0.796,nan",0,5697.988,0,0.02,0.25
0,530,target,"[(1117, 781)]",[],[1],[0.6166666666666667],vertical,"(390.0, 762.0)",0.3833333333333333,0.574,1,5702.9,1,0.02,0.25
0,531,target,"[(1132, 801)]",[],[1],[0.5333333333333333],horizontal,"(390.0, 262.0)",1.3166666666666667,0.494,1,5707.087,1,0.02,0.25
0,532,target,"[(1135, 811)]",[],[1],[0.6833333333333333],horizontal,"(890.0, 262.0)",0.8333333333333334,0.636,1,5712.681,1,0.02,0.25
0,533,catch,"[(1140, 806)]",[],[1],[],horizontal,"(890.0, 262.0)",1.7,nan,1,5717.889,2,0.02,0.25
0,534,catch,"[(1154, 813)]",[],[1],[],vertical,"(890.0, 262.0)",1.7,nan,1,5723.597,2,0.02,0.25
0,535,target,"[(1136, 794)]",[],[1],[0.5333333333333333],horizontal,"(890.0, 262.0)",0.8833333333333333,0.493,1,5729.594,2,0.02,0.25
0,536,target,"[(1154, 782)]",[],[1],[0.85],vertical,"(890.0, 262.0)",0.9166666666666666,nan,0,5734.662,0,0.02,0.25
0,537,target,"[(1140, 791)]",[],[1],[0.55],vertical,"(390.0, 262.0)",0.95,0.513,1,5739.639,1,0.02,0.25
0,538,catch,"[(1130, 804)]",[],[1],[],vertical,"(890.0, 762.0)",1.7,nan,1,5744.821,1,0.02,0.25
0,539,target,"[(1165, 807)]",[],[1],[0.6],vertical,"(390.0, 762.0)",1.1833333333333333,0.56,1,5749.993,1,0.02,0.25
0,540,target,"[(1141, 818)]",[],[1],[0.85],vertical,"(390.0, 762.0)",0.7,nan,0,5755.499,0,0.02,0.25
0,541,target,"[(1130, 799)]",[],[1],[0.7166666666666667],vertical,"(890.0, 762.0)",0.9833333333333333,0.671,1,5760.389,1,0.02,0.25
0,542,target,"[(1110, 803)]",[],[1],[0.6333333333333333],horizontal,"(890.0, 762.0)",1.1166666666666667,0.597,1,5765.738,1,0.0,0.25
0,543,target,"[(1161, 806)]",[],[1],[0.6833333333333333],vertical,"(890.0, 762.0)",1.2666666666666666,0.642,1,5770.988,1,0.0,0.25
0,544,target,"[(1140, 819)]",[],[1],[0.5666666666666667],vertical,"(890.0, 762.0)",0.8166666666666667,0.529,1,5776.488,2,0.0,0.25
0,545,target,"[(1131, 799)]",[],[1],[0.55],horizontal,"(890.0, 262.0)",0.6166666666666667,0.507,1,5781.538,2,0.0,0.25
0,546,target,"[(1141, 801)]",[],[1],[0.85],vertical,"(390.0, 262.0)",0.6666666666666666,nan,0,5786.706,0,0.0,0.25
0,547,catch,"[(1086, 815)]",[],[1],[],horizontal,"(390.0, 762.0)",,"('cti', 1.288),nan",0,5791.358,0,0.02,0.25
0,548,target,"[(1120, 830)]",[],[1],[0.5333333333333333],horizontal,"(890.0, 262.0)",1.0333333333333332,0.491,1,5796.087,1,0.02,0.25
0,549,target,"[(1157, 811)]",[],[1],[0.4666666666666667],vertical,"(890.0, 262.0)",1.15,0.425,1,5862.262,1,0.02,0.25
0,550,target,"[(1139, 801)]",[],[1],[0.7],vertical,"(390.0, 262.0)",1.15,0.656,1,5867.889,1,0.02,0.25
0,551,target,"[(1153, 813)]",[],[1],[0.75],vertical,"(390.0, 762.0)",0.48333333333333334,0.711,1,5873.271,2,0.02,0.25
0,552,target,"[(1164, 806)]",[],[1],[0.3833333333333333],vertical,"(890.0, 762.0)",1.5333333333333332,0.345,1,5878.122,2,0.02,0.25
0,553,target,"[(1157, 811)]",[],[1],[0.7166666666666667],vertical,"(390.0, 262.0)",1.0333333333333332,0.667,1,5883.727,2,0.02,0.25
0,554,target,"[(1131, 823)]",[],[1],[0.55],vertical,"(890.0, 262.0)",1.2666666666666666,0.505,1,5889.172,3,0.02,0.25
0,555,target,"[(1156, 789)]",[],[1],[0.5333333333333333],vertical,"(890.0, 762.0)",0.7666666666666666,0.493,1,5895.523,3,0.02,0.25
0,556,target,"[(1160, 790)]",[],[1],[0.85],horizontal,"(390.0, 762.0)",0.48333333333333334,nan,0,5901.538,0,0.02,0.25
0,557,target,"[(1135, 803)]",[],[1],[0.7166666666666667],horizontal,"(390.0, 262.0)",0.4666666666666667,0.671,1,5905.888,1,0.02,0.25
0,558,target,"[(1160, 807)]",[],[1],[0.6166666666666667],vertical,"(890.0, 762.0)",1.2166666666666666,0.579,1,5910.62,1,0.02,0.25
0,559,target,"[(1160, 783)]",[],[1],[0.75],horizontal,"(390.0, 762.0)",0.6333333333333333,0.703,1,5916.06,1,0.02,0.25
0,560,target,"[(1154, 815)]",[],[1],[0.5833333333333334],vertical,"(890.0, 762.0)",0.6333333333333333,0.539,1,5920.604,2,0.02,0.25
0,561,target,"[(1158, 806)]",[],[1],[0.6666666666666666],vertical,"(890.0, 762.0)",0.36666666666666664,0.627,1,5925.605,2,0.02,0.25
0,562,catch,"[(1150, 807)]",[],[1],[],vertical,"(390.0, 762.0)",1.7,nan,1,5930.446,2,0.02,0.25
0,563,target,"[(1161, 807)]",[],[1],[0.65],horizontal,"(890.0, 762.0)",0.6166666666666667,0.612,1,5936.581,3,0.02,0.25
0,564,target,"[(1130, 816)]",[],[1],[0.5166666666666666],vertical,"(890.0, 262.0)",0.8166666666666667,0.477,1,5942.172,3,0.02,0.25
0,565,catch,"[(1157, 811)]",[],[1],[],vertical,"(890.0, 762.0)",1.7,nan,1,5947.672,3,0.02,0.25
0,566,target,"[(1138, 796)]",[],[1],[0.6333333333333333],horizontal,"(390.0, 762.0)",1.3833333333333333,0.592,1,5953.84,3,0.02,0.25
0,567,target,"[(1158, 818)]",[],[1],[0.5833333333333334],horizontal,"(390.0, 262.0)",0.6333333333333333,0.537,1,5960.048,3,0.02,0.25
0,568,target,"[(1132, 807)]",[],[1],[0.55],vertical,"(890.0, 262.0)",1.3833333333333333,0.51,1,5965.537,3,0.02,0.25
0,569,target,"[(1135, 806)]",[],[1],[0.7],vertical,"(890.0, 762.0)",1.4166666666666667,0.651,1,5971.672,3,0.02,0.25
0,570,target,"[(1112, 815)]",[],[1],[0.5666666666666667],vertical,"(890.0, 762.0)",0.5166666666666666,0.525,1,5978.077,3,0.02,0.25
0,571,target,"[(1158, 806)]",[],[1],[0.43333333333333335],vertical,"(390.0, 262.0)",1.2333333333333334,0.39,1,5984.567,3,0.02,0.25
0,572,target,"[(1123, 795)]",[],[1],[0.6],vertical,"(390.0, 262.0)",1.5333333333333332,0.556,1,5990.919,3,0.02,0.25
0,573,target,"[(1139, 795)]",[],[1],[0.6166666666666667],horizontal,"(390.0, 262.0)",0.4166666666666667,0.569,1,5996.997,3,0.02,0.25
0,574,target,"[(1159, 808)]",[],[1],[0.5333333333333333],vertical,"(390.0, 762.0)",1.3166666666666667,0.489,1,6002.262,3,0.02,0.25
0,575,target,"[(1160, 796)]",[],[1],[0.25],vertical,"(890.0, 262.0)",1.4,0.215,1,6008.456,3,0.02,0.25
0,576,target,"[(1139, 808)]",[],[1],[0.5333333333333333],horizontal,"(890.0, 762.0)",1.3833333333333333,0.493,1,6014.639,3,0.02,0.25
0,577,catch,"[(1152, 811)]",[],[1],[],horizontal,"(390.0, 762.0)",1.7,nan,1,6021.14,3,0.02,0.25
0,578,target,"[(1158, 791)]",[],[1],[0.55],vertical,"(890.0, 262.0)",1.0,0.509,1,6027.022,3,0.02,0.25
0,579,target,"[(1135, 808)]",[],[1],[0.5666666666666667],vertical,"(390.0, 262.0)",1.1666666666666667,0.522,1,6033.257,3,0.02,0.25
0,580,catch,"[(1160, 809)]",[],[1],[],horizontal,"(390.0, 762.0)",1.7,nan,1,6039.362,3,0.02,0.25
0,581,target,"[(1157, 801)]",[],[1],[0.5666666666666667],horizontal,"(390.0, 762.0)",0.9833333333333333,0.523,1,6045.59,3,0.02,0.25
0,582,target,"[(1160, 791)]",[],[1],[0.5666666666666667],vertical,"(390.0, 762.0)",1.45,0.535,1,6051.555,3,0.02,0.25
0,583,target,"[(1160, 807)]",[],[1],[0.5833333333333334],vertical,"(890.0, 262.0)",1.2,0.548,1,6057.358,3,0.02,0.25
0,584,target,"[(1144, 807)]",[],[1],[0.6166666666666667],horizontal,"(890.0, 762.0)",1.25,0.576,1,6063.439,3,0.02,0.25
0,585,target,"[(1159, 808)]",[],[1],[0.55],vertical,"(390.0, 262.0)",0.6833333333333333,0.508,1,6069.172,3,0.02,0.25
0,586,target,"[(1160, 784)]",[],[1],[0.48333333333333334],horizontal,"(890.0, 262.0)",1.35,0.442,1,6074.956,3,0.02,0.25
0,587,target,"[(1133, 770)]",[],[1],[0.5666666666666667],horizontal,"(390.0, 262.0)",1.0166666666666666,0.522,1,6080.972,3,0.02,0.25
0,588,target,"[(1156, 796)]",[],[1],[0.7333333333333333],horizontal,"(390.0, 762.0)",0.6,0.686,1,6086.656,3,0.02,0.25
0,589,catch,"[(1158, 790)]",[],[1],[],horizontal,"(890.0, 262.0)",1.7,nan,1,6092.624,3,0.02,0.25
0,590,target,"[(1154, 806)]",[],[1],[0.5166666666666666],vertical,"(890.0, 262.0)",1.3833333333333333,0.478,1,6098.557,3,0.02,0.25
0,591,target,"[(1149, 777)]",[],[1],[0.5833333333333334],horizontal,"(890.0, 762.0)",1.1666666666666667,0.542,1,6104.594,3,0.02,0.25
0,592,target,"[(1160, 803)]",[],[1],[0.5666666666666667],horizontal,"(390.0, 762.0)",0.8166666666666667,0.524,1,6110.459,3,0.02,0.25
0,593,target,"[(1146, 832)]",[],[1],[0.55],vertical,"(890.0, 262.0)",0.4166666666666667,0.51,1,6115.926,3,0.02,0.25
0,594,catch,"[(1158, 826)]",[],[1],[],horizontal,"(390.0, 762.0)",1.7,nan,1,6121.215,3,0.02,0.25
0,595,target,"[(1154, 785)]",[],[1],[0.6833333333333333],vertical,"(890.0, 762.0)",0.5166666666666666,0.634,1,6127.549,3,0.02,0.25
0,596,target,"[(1165, 805)]",[],[1],[0.55],vertical,"(390.0, 762.0)",0.7333333333333333,0.506,1,6132.873,3,0.02,0.25
0,597,target,"[(1145, 811)]",[],[1],[0.5333333333333333],vertical,"(890.0, 762.0)",0.8,0.494,1,6138.258,3,0.0,0.25
0,598,target,"[(1145, 816)]",[],[1],[0.5],vertical,"(890.0, 262.0)",1.3666666666666667,0.459,1,6144.071,3,0.0,0.25
0,599,target,"[(1141, 811)]",[],[1],[0.5],vertical,"(890.0, 262.0)",1.2833333333333332,0.469,1,6150.423,3,0.0,0.25
0,600,target,"[(1135, 789)]",[],[1],[0.55],vertical,"(890.0, 262.0)",1.1666666666666667,0.511,1,6156.474,3,0.0,0.25
0,601,target,"[(1136, 805)]",[],[1],[0.6833333333333333],vertical,"(390.0, 262.0)",1.25,0.645,1,6162.411,3,0.0,0.25
0,602,target,"[(1159, 796)]",[],[1],[0.7],vertical,"(890.0, 762.0)",0.65,0.651,1,6168.586,3,0.0,0.25
0,603,target,"[(1130, 816)]",[],[1],[0.45],vertical,"(390.0, 762.0)",1.5,0.412,1,6174.197,3,0.0,0.25
0,604,catch,"[(1149, 807)]",[],[1],[],vertical,"(890.0, 762.0)",1.7,nan,1,6181.188,3,0.0,0.25
0,605,catch,"[(1153, 781)]",[],[1],[],horizontal,"(890.0, 262.0)",1.7,nan,1,6187.011,3,0.0,0.25
0,606,target,"[(1161, 800)]",[],[1],[0.65],horizontal,"(390.0, 762.0)",0.7166666666666667,0.605,1,6192.887,3,0.0,0.25
0,607,target,"[(1139, 802)]",[],[1],[0.7666666666666666],horizontal,"(390.0, 262.0)",1.1833333333333333,0.717,1,6198.431,3,0.0,0.25
0,608,catch,"[(1160, 787)]",[],[1],[],horizontal,"(890.0, 762.0)",1.7,nan,1,6204.836,3,0.0,0.25
0,609,target,"[(1137, 790)]",[],[1],[0.55],horizontal,"(390.0, 262.0)",0.43333333333333335,0.517,1,6210.915,3,0.0,0.25
0,610,target,"[(1160, 807)]",[],[1],[0.6833333333333333],vertical,"(390.0, 762.0)",0.65,0.638,1,6216.037,3,0.0,0.25
0,611,target,"[(1150, 800)]",[],[1],[0.5166666666666666],horizontal,"(390.0, 262.0)",1.3,0.477,1,6221.825,3,0.0,0.25
0,612,target,"[(1115, 840)]",[],[1],[0.5666666666666667],horizontal,"(390.0, 762.0)",0.5166666666666666,0.52,1,6227.424,3,0.0,0.25
0,613,target,"[(1135, 806)]",[],[1],[0.6],horizontal,"(390.0, 762.0)",0.5666666666666667,0.556,1,6233.367,3,0.0,0.25
0,614,target,"[(1140, 801)]",[],[1],[0.5166666666666666],vertical,"(890.0, 762.0)",0.9166666666666666,0.472,1,6239.221,3,0.0,0.25
0,615,target,"[(1159, 811)]",[],[1],[0.6666666666666666],vertical,"(390.0, 762.0)",1.15,0.628,1,6244.941,3,0.0,0.25
0,616,target,"[(1115, 800)]",[],[1],[0.55],vertical,"(890.0, 262.0)",0.55,0.506,1,6251.311,3,0.0,0.25
0,617,target,"[(1158, 801)]",[],[1],[0.7166666666666667],vertical,"(890.0, 762.0)",0.36666666666666664,0.672,1,6257.04,3,0.0,0.25
0,618,target,"[(1137, 802)]",[],[1],[0.75],vertical,"(890.0, 262.0)",0.65,0.706,1,6262.215,3,0.0,0.25
0,619,target,"[(1142, 776)]",[],[1],[0.6333333333333333],vertical,"(390.0, 762.0)",0.8833333333333333,0.588,1,6267.747,3,0.0,0.25
0,620,target,"[(1120, 806)]",[],[1],[0.5333333333333333],horizontal,"(890.0, 762.0)",0.48333333333333334,0.49,1,6273.322,3,0.0,0.25
0,621,target,"[(1135, 806)]",[],[1],[0.75],horizontal,"(890.0, 762.0)",0.6833333333333333,0.704,1,6278.847,3,0.0,0.25
0,622,target,"[(1158, 795)]",[],[1],[0.6],vertical,"(890.0, 762.0)",0.8,0.555,1,6284.865,3,0.0,0.25
0,623,target,"[(1160, 803)]",[],[1],[0.13333333333333333],horizontal,"(390.0, 762.0)",1.3833333333333333,0.1,0,6290.805,0,0.0,0.25
0,624,target,"[(1115, 829)]",[],[1],[0.85],vertical,"(390.0, 762.0)",1.3166666666666667,nan,0,6295.49,0,0.0,0.25
0,625,target,"[(1124, 839)]",[],[1],[0.85],vertical,"(890.0, 262.0)",1.5333333333333332,nan,0,6555.953,0,0.0,0.25
0,626,target,"[(1123, 821)]",[],[1],[0.7166666666666667],vertical,"(390.0, 262.0)",1.1166666666666667,0.667,1,6560.874,1,0.0,0.25
0,627,target,"[(1159, 801)]",[],[1],[0.5333333333333333],horizontal,"(890.0, 262.0)",0.8,0.492,1,6566.305,1,0.0,0.25
0,628,target,"[(1129, 811)]",[],[1],[0.5333333333333333],vertical,"(890.0, 762.0)",0.5666666666666667,0.488,1,6571.497,1,0.0,0.25
0,629,target,"[(1160, 804)]",[],[1],[0.5666666666666667],horizontal,"(890.0, 762.0)",1.1833333333333333,0.522,1,6576.108,2,0.0,0.25
0,630,catch,"[(1158, 807)]",[],[1],[],horizontal,"(390.0, 762.0)",1.7,nan,1,6581.541,2,0.0,0.25
0,631,catch,"[(1174, 810)]",[],[1],[],vertical,"(390.0, 762.0)",1.7,nan,1,6586.999,2,0.0,0.25
0,632,catch,"[(1172, 801)]",[],[1],[],vertical,"(890.0, 762.0)",1.7,nan,1,6593.018,3,0.0,0.25
0,633,catch,"[(1157, 805)]",[],[1],[],horizontal,"(390.0, 262.0)",1.7,nan,1,6599.375,3,0.0,0.25
0,634,target,"[(1160, 808)]",[],[1],[0.4166666666666667],horizontal,"(390.0, 262.0)",1.4166666666666667,0.373,1,6605.409,3,0.0,0.25
0,635,catch,"[(1163, 801)]",[],[1],[],horizontal,"(390.0, 262.0)",1.7,nan,1,6611.608,3,0.0,0.25
0,636,catch,"[(1164, 804)]",[],[1],[],vertical,"(890.0, 262.0)",1.7,nan,1,6617.857,3,0.0,0.25
0,637,target,"[(1160, 805)]",[],[1],[0.7333333333333333],horizontal,"(390.0, 262.0)",0.7666666666666666,0.685,1,6623.991,3,0.0,0.25
0,638,target,"[(1169, 804)]",[],[1],[0.7],horizontal,"(390.0, 762.0)",0.7833333333333333,0.655,1,6629.559,3,0.0,0.25
0,639,target,"[(1157, 802)]",[],[1],[0.5666666666666667],horizontal,"(890.0, 262.0)",0.7,0.527,1,6635.193,3,0.0,0.25
0,640,target,"[(1158, 803)]",[],[1],[0.85],vertical,"(390.0, 262.0)",0.36666666666666664,nan,0,6640.975,0,0.0,0.25
0,641,target,"[(1139, 806)]",[],[1],[0.55],horizontal,"(390.0, 762.0)",0.9166666666666666,0.505,1,6645.375,1,0.0,0.25
0,642,target,"[(1130, 786)]",[],[1],[0.48333333333333334],horizontal,"(390.0, 762.0)",1.3666666666666667,0.441,1,6650.672,1,0.0,0.25
0,643,catch,"[(1157, 796)]",[],[1],[],horizontal,"(390.0, 762.0)",1.7,nan,1,6656.725,1,0.0,0.25
0,644,target,"[(1170, 806)]",[],[1],[0.6666666666666666],vertical,"(390.0, 762.0)",1.3666666666666667,0.62,1,6661.677,2,0.0,0.25
0,645,target,"[(1165, 801)]",[],[1],[0.6333333333333333],vertical,"(890.0, 762.0)",0.7833333333333333,0.587,1,6667.708,2,0.0,0.25
0,646,catch,"[(1162, 796)]",[],[1],[],horizontal,"(390.0, 262.0)",1.7,nan,1,6673.242,2,0.0,0.25
0,647,target,"[(1173, 807)]",[],[1],[0.4166666666666667],horizontal,"(390.0, 262.0)",1.5,0.379,1,6678.787,3,0.0,0.25
0,648,target,"[(1166, 806)]",[],[1],[0.5333333333333333],vertical,"(890.0, 262.0)",1.1666666666666667,0.501,1,6685.442,3,0.0,0.25
0,649,target,"[(1173, 787)]",[],[1],[0.5333333333333333],vertical,"(390.0, 262.0)",1.0333333333333332,0.489,1,6691.895,3,0.0,0.25
0,650,target,"[(1174, 816)]",[],[1],[0.55],horizontal,"(390.0, 262.0)",1.4166666666666667,0.511,1,6697.471,3,0.0,0.25
0,651,target,"[(1130, 810)]",[],[1],[0.6333333333333333],vertical,"(390.0, 762.0)",0.35,0.588,1,6703.505,3,0.0,0.25
0,652,target,"[(1162, 794)]",[],[1],[0.6666666666666666],horizontal,"(390.0, 262.0)",1.2333333333333334,0.619,1,6708.366,3,0.0,0.25
0,653,target,"[(1164, 804)]",[],[1],[0.5166666666666666],horizontal,"(390.0, 262.0)",0.5333333333333333,0.476,1,6714.325,3,0.0,0.25
0,654,catch,"[(1161, 776)]",[],[1],[],horizontal,"(890.0, 262.0)",1.7,nan,1,6720.011,3,0.0,0.25
0,655,target,"[(1140, 801)]",[],[1],[0.55],horizontal,"(390.0, 762.0)",0.8666666666666667,0.507,1,6726.293,3,0.0,0.25
0,656,target,"[(1162, 796)]",[],[1],[0.5833333333333334],vertical,"(390.0, 262.0)",0.36666666666666664,0.54,1,6732.203,3,0.0,0.25
0,657,catch,"[(1163, 803)]",[],[1],[],vertical,"(390.0, 762.0)",1.7,nan,1,6737.575,3,0.0,0.25
0,658,target,"[(1165, 803)]",[],[1],[0.6666666666666666],horizontal,"(890.0, 262.0)",1.2333333333333334,0.626,1,6743.477,3,0.0,0.25
0,659,target,"[(1158, 802)]",[],[1],[0.65],horizontal,"(890.0, 762.0)",1.15,0.611,1,6749.643,3,0.0,0.25
0,660,catch,"[(1144, 805)]",[],[1],[],horizontal,"(890.0, 762.0)",1.7,nan,1,6755.675,3,0.0,0.25
0,661,target,"[(1163, 806)]",[],[1],[0.55],horizontal,"(890.0, 762.0)",0.7833333333333333,0.511,1,6761.559,3,0.0,0.25
0,662,target,"[(1170, 809)]",[],[1],[0.6333333333333333],horizontal,"(390.0, 762.0)",0.6666666666666666,0.591,1,6766.959,3,0.0,0.25
0,663,target,"[(1160, 792)]",[],[1],[0.5666666666666667],vertical,"(390.0, 262.0)",0.95,0.525,1,6772.725,3,0.0,0.25
0,664,catch,"[(1175, 801)]",[],[1],[],vertical,"(390.0, 262.0)",1.7,nan,1,6778.488,3,0.0,0.25
0,665,target,"[(1172, 797)]",[],[1],[0.6333333333333333],vertical,"(890.0, 762.0)",1.1333333333333333,0.597,1,6784.245,3,0.0,0.25
0,666,target,"[(1155, 796)]",[],[1],[0.6833333333333333],horizontal,"(890.0, 262.0)",0.4166666666666667,0.652,1,6790.591,3,0.0,0.25
0,667,target,"[(1161, 792)]",[],[1],[0.85],horizontal,"(890.0, 762.0)",0.7166666666666667,nan,0,6795.843,0,0.0,0.25
0,668,catch,"[(1116, 803)]",[],[1],[],horizontal,"(390.0, 262.0)",1.7,nan,1,6800.393,1,0.0,0.25
0,669,target,"[(1170, 806)]",[],[1],[0.5333333333333333],vertical,"(890.0, 262.0)",1.0333333333333332,0.494,1,6805.591,1,0.0,0.25
0,670,target,"[(1160, 801)]",[],[1],[0.6333333333333333],vertical,"(390.0, 762.0)",1.1,0.592,1,6810.981,1,0.0,0.25
0,671,target,"[(1167, 794)]",[],[1],[0.5833333333333334],horizontal,"(890.0, 762.0)",0.48333333333333334,0.542,1,6816.282,2,0.0,0.25
0,672,catch,"[(1133, 806)]",[],[1],[],horizontal,"(890.0, 762.0)",1.7,nan,1,6821.059,2,0.0,0.25
0,673,target,"[(1162, 799)]",[],[1],[0.5833333333333334],horizontal,"(390.0, 762.0)",0.8833333333333333,0.545,1,6827.114,2,0.0,0.25
0,674,target,"[(1161, 810)]",[],[1],[0.5333333333333333],vertical,"(890.0, 262.0)",1.4166666666666667,0.487,1,6832.219,3,0.0,0.25
0,675,catch,"[(1157, 786)]",[],[1],[],horizontal,"(390.0, 762.0)",,"('cti', 1.677),nan",0,6838.602,0,0.02,0.25
0,676,target,"[(1119, 816)]",[],[1],[0.5333333333333333],horizontal,"(890.0, 262.0)",1.05,0.497,1,6843.76,1,0.02,0.25
0,677,target,"[(1160, 812)]",[],[1],[0.85],vertical,"(390.0, 762.0)",1.2333333333333334,nan,0,6849.677,0,0.02,0.25
0,678,target,"[(1127, 813)]",[],[1],[0.5333333333333333],horizontal,"(390.0, 262.0)",1.0666666666666667,0.491,1,6854.782,1,0.02,0.25
0,679,target,"[(1162, 796)]",[],[1],[0.6833333333333333],vertical,"(890.0, 762.0)",1.4,0.651,1,6860.326,1,0.02,0.25
0,680,catch,"[(1165, 803)]",[],[1],[],vertical,"(890.0, 262.0)",1.7,nan,1,6865.477,1,0.02,0.25
0,681,target,"[(1155, 773)]",[],[1],[0.6666666666666666],vertical,"(390.0, 762.0)",1.0,0.638,1,6870.802,2,0.02,0.25
0,682,target,"[(1175, 803)]",[],[1],[0.4666666666666667],vertical,"(390.0, 262.0)",1.5166666666666666,0.433,1,6876.35,2,0.02,0.25
0,683,target,"[(1161, 781)]",[],[1],[0.5833333333333334],horizontal,"(890.0, 762.0)",0.5166666666666666,0.539,1,6882.039,2,0.02,0.25
0,684,target,"[(1158, 801)]",[],[1],[0.5166666666666666],vertical,"(390.0, 762.0)",1.35,0.48,1,6886.769,3,0.02,0.25
0,685,catch,"[(1155, 806)]",[],[1],[],horizontal,"(890.0, 762.0)",1.7,nan,1,6893.355,3,0.02,0.25
0,686,target,"[(1133, 801)]",[],[1],[0.6666666666666666],vertical,"(390.0, 262.0)",0.45,0.628,1,6898.978,3,0.02,0.25
0,687,target,"[(1160, 803)]",[],[1],[0.5833333333333334],horizontal,"(390.0, 762.0)",1.1833333333333333,0.54,1,6904.561,3,0.02,0.25
0,688,target,"[(1131, 776)]",[],[1],[0.5],vertical,"(890.0, 262.0)",1.2666666666666666,0.462,1,6910.302,3,0.02,0.25
0,689,target,"[(1166, 785)]",[],[1],[0.6],vertical,"(390.0, 762.0)",0.6333333333333333,0.556,1,6915.913,3,0.02,0.25
0,690,catch,"[(1163, 804)]",[],[1],[],vertical,"(890.0, 262.0)",1.7,nan,1,6921.343,3,0.02,0.25
0,691,target,"[(1142, 800)]",[],[1],[0.55],horizontal,"(390.0, 762.0)",1.1,0.509,1,6927.026,3,0.02,0.25
0,692,catch,"[(1171, 800)]",[],[1],[],horizontal,"(890.0, 762.0)",1.7,nan,1,6932.611,3,0.02,0.25
0,693,catch,"[(1174, 806)]",[],[1],[],horizontal,"(890.0, 762.0)",1.7,nan,1,6938.143,3,0.02,0.25
0,694,target,"[(1170, 789)]",[],[1],[0.6],vertical,"(890.0, 762.0)",1.3333333333333333,0.562,1,6944.11,3,0.02,0.25
0,695,catch,"[(1173, 798)]",[],[1],[],horizontal,"(890.0, 262.0)",1.7,nan,1,6950.286,3,0.02,0.25
0,696,target,"[(1165, 816)]",[],[1],[0.5333333333333333],vertical,"(890.0, 762.0)",1.35,0.493,1,6956.103,3,0.02,0.25
0,697,target,"[(1170, 798)]",[],[1],[0.5],horizontal,"(890.0, 262.0)",0.85,0.46,1,6962.13,3,0.02,0.25
0,698,target,"[(1158, 801)]",[],[1],[0.6666666666666666],vertical,"(890.0, 762.0)",0.5,0.625,1,6967.794,3,0.02,0.25
0,699,catch,"[(1174, 832)]",[],[1],[],vertical,"(390.0, 262.0)",1.7,nan,1,6973.177,3,0.02,0.25
0,700,catch,"[(1158, 807)]",[],[1],[],vertical,"(390.0, 762.0)",1.7,nan,1,6979.239,3,0.02,0.25
0,701,target,"[(1133, 800)]",[],[1],[0.5166666666666666],vertical,"(890.0, 262.0)",1.4666666666666666,0.478,1,6985.594,3,0.02,0.25
0,702,target,"[(1160, 801)]",[],[1],[0.7333333333333333],horizontal,"(390.0, 262.0)",1.1333333333333333,0.69,1,6991.62,3,0.02,0.25
0,703,target,"[(1131, 790)]",[],[1],[0.5666666666666667],horizontal,"(390.0, 262.0)",1.4166666666666667,0.526,1,6997.81,3,0.02,0.25
0,704,target,"[(1132, 786)]",[],[1],[0.6166666666666667],vertical,"(390.0, 262.0)",0.8333333333333334,0.572,1,7003.96,3,0.02,0.25
0,705,target,"[(1161, 783)]",[],[1],[0.55],horizontal,"(890.0, 262.0)",1.0166666666666666,0.505,1,7009.593,3,0.02,0.25
0,706,catch,"[(1173, 806)]",[],[1],[],horizontal,"(890.0, 262.0)",1.7,nan,1,7015.578,3,0.02,0.25
0,707,target,"[(1172, 825)]",[],[1],[0.6],horizontal,"(890.0, 762.0)",1.0666666666666667,0.56,1,7021.484,3,0.02,0.25
0,708,target,"[(1160, 804)]",[],[1],[0.5666666666666667],vertical,"(890.0, 762.0)",0.85,0.524,1,7027.449,3,0.02,0.25
0,709,target,"[(1160, 790)]",[],[1],[0.75],horizontal,"(390.0, 762.0)",1.1166666666666667,0.707,1,7033.65,3,0.02,0.25
0,710,target,"[(1143, 808)]",[],[1],[0.65],horizontal,"(890.0, 262.0)",0.8166666666666667,0.61,1,7039.511,3,0.02,0.25
0,711,catch,"[(1157, 809)]",[],[1],[],vertical,"(390.0, 762.0)",1.7,nan,1,7045.61,3,0.02,0.25
0,712,target,"[(1174, 801)]",[],[1],[0.55],vertical,"(390.0, 262.0)",1.0,0.509,1,7051.703,3,0.02,0.25
0,713,target,"[(1159, 806)]",[],[1],[0.5666666666666667],vertical,"(890.0, 762.0)",0.8333333333333334,0.526,1,7057.678,3,0.02,0.25
0,714,target,"[(1164, 803)]",[],[1],[0.75],vertical,"(390.0, 762.0)",0.4166666666666667,0.717,1,7063.089,3,0.02,0.25
0,715,catch,"[(1155, 802)]",[],[1],[],vertical,"(390.0, 262.0)",1.7,nan,1,7068.745,3,0.02,0.25
0,716,target,"[(1155, 790)]",[],[1],[0.25],horizontal,"(390.0, 262.0)",1.0666666666666667,0.215,1,7074.51,3,0.02,0.25
0,717,target,"[(1150, 809)]",[],[1],[0.6333333333333333],horizontal,"(890.0, 762.0)",0.43333333333333335,0.593,1,7079.975,3,0.02,0.25
0,718,target,"[(1155, 823)]",[],[1],[0.55],vertical,"(890.0, 262.0)",1.3833333333333333,0.513,1,7085.525,3,0.02,0.25
0,719,target,"[(1130, 798)]",[],[1],[0.5166666666666666],vertical,"(890.0, 762.0)",1.3333333333333333,0.482,1,7092.317,3,0.02,0.25
0,720,target,"[(1153, 811)]",[],[1],[0.5666666666666667],vertical,"(890.0, 762.0)",0.6833333333333333,0.523,1,7098.193,3,0.02,0.25
0,721,catch,"[(1137, 799)]",[],[1],[],horizontal,"(890.0, 262.0)",,"('cti', 0.905),nan",0,7103.498,0,0.04,0.25
0,722,target,"[(1150, 822)]",[],[1],[0.6],horizontal,"(390.0, 262.0)",0.5166666666666666,0.564,1,7107.844,1,0.04,0.25
0,723,target,"[(1131, 850)]",[],[1],[],horizontal,"(890.0, 762.0)",,"('fix', 0.433)",0,7112.411,0,0.04,0.25
0,724,target,"[(1088, 818)]",[],[1],[0.85],horizontal,"(890.0, 262.0)",0.7833333333333333,nan,0,7114.861,0,0.04,0.25
0,725,target,"[(1103, 825)]",[],[1],[0.85],horizontal,"(390.0, 762.0)",0.6666666666666666,nan,0,7581.382,0,0.02,0.25
0,726,target,"[(1129, 778)]","[(1118, 869)]",[1],[0.13333333333333333],vertical,"(890.0, 762.0)",,"('bar', 0.149)",0,7585.847,0,0.02,0.25
0,727,target,"[(1123, 796)]",[],[1],[0.6833333333333333],vertical,"(390.0, 762.0)",0.48333333333333334,0.641,1,7588.669,1,0.02,0.25
0,728,target,"[(1132, 796)]",[],[1],[0.85],horizontal,"(890.0, 762.0)",0.8666666666666667,nan,0,7593.214,0,0.02,0.25
0,729,catch,"[(1131, 797)]",[],[1],[],horizontal,"(390.0, 762.0)",1.7,nan,1,7597.835,1,0.02,0.25
0,730,target,"[(1124, 802)]",[],[1],[0.7833333333333333],horizontal,"(890.0, 762.0)",1.5,0.742,1,7602.696,1,0.02,0.25
0,731,target,"[(1167, 796)]",[],[1],[0.5666666666666667],vertical,"(890.0, 762.0)",1.0833333333333333,0.529,1,7609.113,1,0.02,0.25
0,732,target,"[(1134, 786)]",[],[1],[0.5833333333333334],vertical,"(390.0, 262.0)",1.45,0.543,1,7613.897,2,0.02,0.25
0,733,target,"[(1111, 810)]",[],[1],[0.85],horizontal,"(390.0, 762.0)",0.5166666666666666,nan,0,7620.064,0,0.02,0.25
0,734,target,"[(1155, 808)]",[],[1],[0.7166666666666667],horizontal,"(390.0, 262.0)",0.35,0.674,1,7624.846,1,0.02,0.25
0,735,catch,"[(1156, 793)]",[],[1],[],horizontal,"(890.0, 762.0)",,"('cti', 0.281),nan",0,7629.213,0,0.04,0.25
0,736,target,"[(1117, 796)]",[],[1],[0.5666666666666667],horizontal,"(890.0, 762.0)",0.45,0.527,1,7632.379,1,0.04,0.25
0,737,target,"[(1158, 806)]",[],[1],[0.5],vertical,"(890.0, 262.0)",0.5666666666666667,0.463,1,7643.394,1,0.04,0.25
0,738,target,"[(1161, 773)]",[],[1],[0.6666666666666666],vertical,"(890.0, 262.0)",1.0833333333333333,0.624,1,7647.864,1,0.04,0.25
0,739,catch,"[(1157, 796)]",[],[1],[],vertical,"(390.0, 262.0)",1.7,nan,1,7653.028,2,0.04,0.25
0,740,target,"[(1155, 799)]",[],[1],[0.55],vertical,"(390.0, 262.0)",0.3833333333333333,0.512,1,7658.726,2,0.04,0.25
0,741,catch,"[(1155, 796)]",[],[1],[],vertical,"(890.0, 762.0)",1.7,nan,1,7663.797,2,0.04,0.25
0,742,target,"[(1138, 822)]",[],[1],[0.85],vertical,"(390.0, 262.0)",0.95,nan,0,7669.497,0,0.04,0.25
0,743,target,"[(1136, 814)]",[],[1],[0.7166666666666667],horizontal,"(890.0, 762.0)",0.85,0.671,1,7674.48,1,0.04,0.25
0,744,target,"[(1122, 833)]",[],[1],[0.55],vertical,"(390.0, 262.0)",0.6166666666666667,0.516,1,7679.799,1,0.04,0.25
0,745,target,"[(1130, 808)]",[],[1],[0.65],horizontal,"(390.0, 262.0)",0.4,0.608,1,7684.754,1,0.04,0.25
0,746,target,"[(1125, 813)]",[],[1],[0.85],horizontal,"(390.0, 262.0)",1.3833333333333333,nan,0,7689.506,0,0.04,0.25
0,747,target,"[(1128, 791)]",[],[1],[0.5666666666666667],horizontal,"(390.0, 762.0)",1.4833333333333334,0.524,1,7694.834,1,0.04,0.25
0,748,target,"[(1170, 811)]",[],[1],[0.85],horizontal,"(390.0, 262.0)",0.6666666666666666,nan,0,7700.225,0,0.04,0.25
0,749,target,"[(1129, 784)]",[],[1],[0.6666666666666666],vertical,"(390.0, 762.0)",1.35,0.622,1,7704.633,1,0.04,0.25
0,750,target,"[(1157, 801)]",[],[1],[0.08333333333333333],vertical,"(390.0, 762.0)",1.2,0.052,0,7710.351,0,0.04,0.25
0,751,target,"[(1127, 811)]",[],[1],[0.6166666666666667],horizontal,"(890.0, 262.0)",1.1,0.578,1,7714.696,1,0.04,0.25
0,752,target,"[(1158, 799)]",[],[1],[0.55],vertical,"(890.0, 262.0)",1.15,0.507,1,7719.896,1,0.04,0.25
0,753,target,"[(1158, 804)]",[],[1],[0.6],horizontal,"(890.0, 762.0)",0.8166666666666667,0.558,1,7724.942,1,0.04,0.25
0,754,catch,"[(1155, 799)]",[],[1],[],vertical,"(890.0, 762.0)",1.7,nan,1,7730.167,2,0.04,0.25
0,755,target,"[(1167, 811)]",[],[1],[0.5166666666666666],vertical,"(890.0, 262.0)",1.3833333333333333,0.475,1,7736.182,2,0.04,0.25
0,756,target,"[(1158, 790)]",[],[1],[0.7333333333333333],horizontal,"(890.0, 762.0)",1.1166666666666667,0.688,1,7742.223,2,0.04,0.25
0,757,catch,"[(1158, 795)]",[],[1],[],horizontal,"(390.0, 262.0)",1.7,nan,1,7748.254,3,0.04,0.25
0,758,target,"[(1170, 792)]",[],[1],[0.35],horizontal,"(890.0, 262.0)",1.45,0.311,1,7753.986,3,0.04,0.25
0,759,catch,"[(1132, 806)]",[],[1],[],vertical,"(890.0, 762.0)",1.7,nan,1,7760.413,3,0.04,0.25
0,760,catch,"[(1159, 792)]",[],[1],[],vertical,"(390.0, 262.0)",1.7,nan,1,7766.155,3,0.04,0.25
0,761,catch,"[(1172, 791)]",[],[1],[],vertical,"(890.0, 762.0)",1.7,nan,1,7771.755,3,0.04,0.25
0,762,target,"[(1160, 802)]",[],[1],[0.5],vertical,"(890.0, 762.0)",1.2833333333333332,0.463,1,7777.977,3,0.04,0.25
0,763,catch,"[(1135, 807)]",[],[1],[],horizontal,"(890.0, 762.0)",1.7,nan,1,7784.361,3,0.04,0.25
0,764,target,"[(1157, 793)]",[],[1],[0.7833333333333333],horizontal,"(390.0, 762.0)",1.05,0.738,1,7790.557,3,0.04,0.25
0,765,target,"[(1157, 787)]",[],[1],[0.55],vertical,"(390.0, 762.0)",0.9666666666666667,0.504,1,7797.047,3,0.04,0.25
0,766,catch,"[(1157, 802)]",[],[1],[],horizontal,"(390.0, 762.0)",1.7,nan,1,7802.381,3,0.04,0.25
0,767,target,"[(1161, 791)]",[],[1],[0.5666666666666667],vertical,"(890.0, 262.0)",0.8833333333333333,0.522,1,7808.366,3,0.04,0.25
0,768,target,"[(1161, 796)]",[],[1],[0.5166666666666666],horizontal,"(890.0, 262.0)",0.35,0.476,1,7814.181,3,0.04,0.25
0,769,target,"[(1202, 820)]",[],[1],[0.55],vertical,"(890.0, 762.0)",0.7666666666666666,0.51,1,7819.768,3,0.04,0.25
0,770,catch,"[(1160, 782)]",[],[1],[],horizontal,"(890.0, 262.0)",1.7,nan,1,7825.197,3,0.04,0.25
0,771,catch,"[(1149, 798)]",[],[1],[],vertical,"(890.0, 262.0)",1.7,nan,1,7831.182,3,0.02,0.25
0,772,target,"[(1130, 779)]",[],[1],[0.6166666666666667],vertical,"(390.0, 762.0)",1.2666666666666666,0.572,1,7837.463,3,0.02,0.25
0,773,catch,"[(1152, 813)]",[],[1],[],vertical,"(890.0, 762.0)",1.7,nan,1,7843.537,3,0.02,0.25
0,774,target,"[(1157, 800)]",[],[1],[0.85],horizontal,"(890.0, 762.0)",0.8666666666666667,nan,0,7849.698,0,0.02,0.25
0,775,target,"[(1135, 782)]",[],[1],[0.85],vertical,"(390.0, 262.0)",0.6833333333333333,nan,0,7854.739,0,0.02,0.25
0,776,catch,"[(1130, 796)]",[],[1],[],vertical,"(890.0, 762.0)",1.7,nan,1,7859.381,1,0.02,0.25
0,777,target,"[(1158, 800)]",[],[1],[0.16666666666666666],horizontal,"(890.0, 262.0)",1.4833333333333334,0.133,0,7865.282,0,0.02,0.25
0,778,target,"[(1126, 808)]",[],[1],[0.55],vertical,"(890.0, 262.0)",0.9833333333333333,0.507,1,7869.931,1,0.02,0.25
0,779,target,"[(1157, 787)]",[],[1],[0.5166666666666666],horizontal,"(390.0, 262.0)",0.4666666666666667,0.476,1,7875.074,1,0.02,0.25
0,780,target,"[(1158, 812)]",[],[1],[0.5333333333333333],horizontal,"(890.0, 762.0)",1.3,0.491,1,7879.839,1,0.02,0.25
0,781,target,"[(1125, 801)]",[],[1],[0.55],vertical,"(890.0, 262.0)",0.7166666666666667,0.511,1,7884.893,2,0.02,0.25
0,782,target,"[(1158, 797)]",[],[1],[0.5666666666666667],vertical,"(890.0, 762.0)",0.36666666666666664,0.523,1,7890.064,2,0.02,0.25
0,783,target,"[(1157, 810)]",[],[1],[0.6166666666666667],vertical,"(390.0, 262.0)",1.3,0.575,1,7894.579,2,0.02,0.25
0,784,target,"[(1165, 800)]",[],[1],[0.43333333333333335],vertical,"(390.0, 262.0)",1.3166666666666667,0.392,1,7900.581,3,0.02,0.25
0,785,target,"[(1155, 801)]",[],[1],[0.6],vertical,"(390.0, 762.0)",0.75,0.567,1,7906.846,3,0.0,0.25
0,786,target,"[(1166, 789)]",[],[1],[0.55],vertical,"(390.0, 262.0)",1.2333333333333334,0.505,1,7912.397,3,0.0,0.25
0,787,target,"[(1157, 796)]",[],[1],[0.6166666666666667],horizontal,"(890.0, 762.0)",0.9166666666666666,0.573,1,7918.698,3,0.0,0.25
0,788,target,"[(1159, 796)]",[],[1],[0.55],vertical,"(890.0, 762.0)",1.1666666666666667,0.51,1,7924.348,3,0.0,0.25
0,789,target,"[(1170, 810)]",[],[1],[0.7333333333333333],horizontal,"(390.0, 762.0)",1.0166666666666666,0.684,1,7930.097,3,0.0,0.25
0,790,target,"[(1155, 801)]",[],[1],[0.5333333333333333],horizontal,"(390.0, 262.0)",1.4666666666666666,0.489,1,7936.019,3,0.0,0.25
0,791,target,"[(1158, 803)]",[],[1],[0.6],horizontal,"(890.0, 262.0)",0.7,0.556,1,7941.947,3,0.0,0.25
0,792,target,"[(1157, 801)]",[],[1],[0.5166666666666666],horizontal,"(890.0, 262.0)",0.85,0.477,1,7947.535,3,0.0,0.25
0,793,catch,"[(1159, 801)]",[],[1],[],horizontal,"(890.0, 762.0)",1.7,nan,1,7952.908,3,0.0,0.25
0,794,target,"[(1143, 811)]",[],[1],[0.6],vertical,"(890.0, 262.0)",0.7333333333333333,0.552,1,7958.998,3,0.0,0.25
0,795,target,"[(1115, 806)]",[],[1],[0.85],horizontal,"(890.0, 762.0)",1.05,nan,0,7964.614,0,0.0,0.25
0,796,target,"[(1127, 808)]",[],[1],[0.5666666666666667],horizontal,"(390.0, 762.0)",1.0166666666666666,0.525,1,7973.12,1,0.0,0.25
0,797,catch,"[(1129, 803)]",[],[1],[],vertical,"(390.0, 762.0)",1.7,nan,1,7978.578,1,0.0,0.25
0,798,catch,"[(1144, 801)]",[],[1],[],horizontal,"(390.0, 262.0)",1.7,nan,1,7983.597,1,0.0,0.25
0,799,catch,"[(1135, 806)]",[],[1],[],horizontal,"(890.0, 762.0)",1.7,nan,1,7988.555,2,0.0,0.25
0,800,target,"[(1159, 772)]",[],[1],[0.5333333333333333],horizontal,"(890.0, 262.0)",0.9666666666666667,0.488,1,7994.797,2,0.0,0.25
0,801,catch,"[(1123, 832)]",[],[1],[],horizontal,"(890.0, 762.0)",,"('cti', 1.519),nan",0,8000.07,0,0.02,0.25
0,802,target,"[(1160, 808)]",[],[1],[0.5833333333333334],vertical,"(890.0, 762.0)",0.45,0.539,1,8005.002,1,0.02,0.25
0,803,target,"[(1170, 817)]",[],[1],[0.6666666666666666],vertical,"(890.0, 262.0)",0.6833333333333333,0.622,1,8009.338,1,0.02,0.25
0,804,target,"[(1140, 830)]",[],[1],[0.6833333333333333],vertical,"(890.0, 262.0)",1.1833333333333333,0.636,1,8014.404,1,0.02,0.25
0,805,target,"[(1131, 796)]",[],[1],[0.5333333333333333],horizontal,"(890.0, 262.0)",0.95,0.492,1,8036.857,2,0.02,0.25
0,806,target,"[(1159, 801)]",[],[1],[0.7333333333333333],horizontal,"(890.0, 762.0)",1.2833333333333332,0.688,1,8042.799,2,0.02,0.25
0,807,catch,"[(1158, 807)]",[],[1],[],vertical,"(390.0, 262.0)",1.7,nan,1,8048.55,2,0.02,0.25
0,808,target,"[(1159, 807)]",[],[1],[0.5166666666666666],vertical,"(890.0, 762.0)",0.75,0.474,1,8054.181,3,0.02,0.25
0,809,target,"[(1167, 794)]",[],[1],[0.5166666666666666],horizontal,"(890.0, 262.0)",1.3333333333333333,0.472,1,8059.751,3,0.02,0.25
0,810,target,"[(1138, 817)]",[],[1],[],vertical,"(390.0, 762.0)",,"('cti', 1.178)",0,8066.037,0,0.04,0.25
0,811,target,"[(1164, 806)]",[],[1],[0.5166666666666666],horizontal,"(890.0, 262.0)",0.95,0.477,1,8071.231,1,0.04,0.25
0,812,target,"[(1157, 780)]",[],[1],[0.85],vertical,"(390.0, 262.0)",0.48333333333333334,nan,0,8076.231,0,0.04,0.25
0,813,catch,"[(1131, 806)]",[],[1],[],horizontal,"(390.0, 262.0)",1.7,nan,1,8080.964,1,0.04,0.25
0,814,target,"[(1105, 807)]",[],[1],[0.5666666666666667],horizontal,"(390.0, 262.0)",0.7,0.518,1,8099.073,1,0.04,0.25
0,815,target,"[(1148, 806)]",[],[1],[0.7166666666666667],vertical,"(890.0, 262.0)",0.9333333333333333,0.67,1,8103.915,1,0.04,0.25
0,816,target,"[(1155, 801)]",[],[1],[0.85],horizontal,"(390.0, 262.0)",0.7166666666666667,nan,0,8108.772,0,0.04,0.25
0,817,target,"[(1135, 814)]",[],[1],[0.55],horizontal,"(890.0, 762.0)",1.3,0.516,1,8113.181,1,0.04,0.25
0,818,catch,"[(1174, 806)]",[],[1],[],vertical,"(390.0, 762.0)",1.7,nan,1,8119.716,1,0.04,0.25
0,819,catch,"[(1126, 829)]",[],[1],[],vertical,"(890.0, 262.0)",1.7,nan,1,8124.868,1,0.04,0.25
0,820,target,"[(1029, 965), (1026, 971), (1095, 939)]",[],"[0, 0, 1]",[],horizontal,"(390.0, 262.0)",,"('fix', 0.184)",0,8756.496,0,0.04,0.25
0,821,catch,"[(1096, 843)]","[(1065, 891)]",[1],[0.03333333333333333],vertical,"(890.0, 762.0)",,"('bar', 0.052),nan",0,8760.27,0,0.06,0.25
0,822,target,"[(1088, 846)]",[],[1],[0.85],vertical,"(890.0, 762.0)",1.2666666666666666,nan,0,8763.136,0,0.06,0.25
0,823,target,"[(1095, 861)]",[],[1],[0.85],vertical,"(390.0, 262.0)",1.0,nan,0,8771.716,0,0.06,0.25
0,824,target,"[(1096, 834)]",[],[1],[0.5833333333333334],vertical,"(890.0, 762.0)",1.3166666666666667,0.54,1,8780.384,1,0.06,0.25
0,825,target,"[(1110, 818)]",[],[1],[0.7166666666666667],vertical,"(390.0, 262.0)",0.6666666666666666,0.677,1,8803.22,1,0.06,0.25
0,826,target,"[(1126, 819)]",[],[1],[0.6],horizontal,"(390.0, 262.0)",1.1666666666666667,0.562,1,8807.936,1,0.06,0.25
0,827,target,"[(1142, 816)]",[],[1],[0.6666666666666666],vertical,"(390.0, 762.0)",1.35,0.624,1,8812.786,2,0.06,0.25
0,828,catch,"[(1141, 806)]",[],[1],[],horizontal,"(390.0, 262.0)",1.7,nan,1,8818.386,2,0.06,0.25
0,829,target,"[(1161, 799)]",[],[1],[0.85],horizontal,"(890.0, 262.0)",1.1166666666666667,nan,0,8823.802,0,0.06,0.25
0,830,catch,"[(1129, 821)]",[],[1],[],horizontal,"(390.0, 762.0)",1.7,nan,1,8828.936,1,0.06,0.25
0,831,catch,"[(1166, 819)]",[],[1],[],horizontal,"(890.0, 762.0)",1.7,nan,1,8834.05,1,0.06,0.25
0,832,target,"[(1122, 851)]",[],[1],[0.7333333333333333],vertical,"(890.0, 762.0)",0.6666666666666666,0.686,1,8839.118,1,0.06,0.25
0,833,target,"[(1146, 783)]",[],[1],[0.5666666666666667],vertical,"(890.0, 762.0)",0.3833333333333333,0.525,1,8844.234,2,0.06,0.25
0,834,target,"[(1159, 803)]",[],[1],[0.2833333333333333],horizontal,"(390.0, 262.0)",1.45,0.247,1,8849.147,2,0.06,0.25
0,835,target,"[(1159, 787)]",[],[1],[0.26666666666666666],horizontal,"(390.0, 762.0)",1.5166666666666666,0.234,1,8854.901,2,0.06,0.25
0,836,target,"[(1159, 786)]",[],[1],[0.6333333333333333],horizontal,"(390.0, 262.0)",0.6166666666666667,0.592,1,8860.536,3,0.06,0.25
0,837,target,"[(1123, 827)]",[],[1],[0.8333333333333334],vertical,"(390.0, 262.0)",1.1833333333333333,0.789,1,8866.086,3,0.06,0.25
0,838,catch,"[(1170, 824)]",[],[1],[],vertical,"(890.0, 762.0)",1.7,nan,1,8872.316,3,0.06,0.25
0,839,target,"[(1158, 795)]",[],[1],[0.5833333333333334],horizontal,"(390.0, 262.0)",1.5333333333333332,0.545,1,8878.488,3,0.06,0.25
0,840,target,"[(1126, 814)]",[],[1],[0.5166666666666666],vertical,"(390.0, 262.0)",0.5,0.482,1,8884.585,3,0.06,0.25
0,841,catch,"[(1159, 810)]",[],[1],[],vertical,"(890.0, 762.0)",1.7,nan,1,8889.694,3,0.06,0.25
0,842,target,"[(1158, 806)]",[],[1],[0.5333333333333333],horizontal,"(890.0, 762.0)",0.65,0.494,1,8895.784,3,0.06,0.25
0,843,target,"[(1130, 813)]",[],[1],[0.5833333333333334],vertical,"(390.0, 262.0)",0.45,0.546,1,8900.783,3,0.06,0.25
0,844,catch,"[(1157, 811)]",[],[1],[],vertical,"(390.0, 262.0)",1.7,nan,1,8906.651,3,0.06,0.25
0,845,target,"[(1165, 803)]",[],[1],[0.48333333333333334],vertical,"(890.0, 262.0)",1.2166666666666666,0.442,1,8912.133,3,0.06,0.25
0,846,target,"[(1158, 791)]",[],[1],[0.6833333333333333],vertical,"(390.0, 762.0)",0.4166666666666667,0.642,1,8918.102,3,0.06,0.25
0,847,target,"[(1163, 801)]",[],[1],[0.55],horizontal,"(890.0, 762.0)",1.2,0.508,1,8923.519,3,0.06,0.25
0,848,target,"[(1160, 799)]",[],[1],[0.55],horizontal,"(390.0, 762.0)",0.6833333333333333,0.509,1,8929.208,3,0.06,0.25
0,849,target,"[(1153, 800)]",[],[1],[0.6166666666666667],horizontal,"(890.0, 762.0)",1.2,0.576,1,8934.785,3,0.06,0.25
0,850,target,"[(1134, 800)]",[],[1],[0.5833333333333334],vertical,"(890.0, 762.0)",1.2166666666666666,0.54,1,8941.152,3,0.06,0.25
0,851,catch,"[(1177, 802)]",[],[1],[],vertical,"(890.0, 262.0)",1.7,nan,1,8947.085,3,0.04,0.25
0,852,catch,"[(1158, 812)]",[],[1],[],horizontal,"(890.0, 262.0)",1.7,nan,1,8953.253,3,0.04,0.25
0,853,target,"[(1174, 777)]",[],[1],[0.45],horizontal,"(390.0, 762.0)",1.5,0.414,1,8959.51,3,0.04,0.25
0,854,target,"[(1158, 792)]",[],[1],[0.5],vertical,"(390.0, 262.0)",1.2166666666666666,0.46,1,8965.333,3,0.04,0.25
0,855,catch,"[(1179, 795)]",[],[1],[],horizontal,"(890.0, 762.0)",1.7,nan,1,8971.201,3,0.04,0.25
0,856,target,"[(1159, 800)]",[],[1],[0.85],horizontal,"(390.0, 262.0)",0.55,nan,0,8976.985,0,0.04,0.25
0,857,catch,"[(1134, 779)]",[],[1],[],vertical,"(890.0, 762.0)",1.7,nan,1,8981.403,1,0.04,0.25
0,858,target,"[(1178, 796)]",[],[1],[0.5666666666666667],vertical,"(890.0, 262.0)",0.4166666666666667,0.528,1,8986.871,1,0.04,0.25
0,859,target,"[(1152, 782)]",[],[1],[0.5],horizontal,"(390.0, 262.0)",0.6333333333333333,0.462,1,8991.435,1,0.04,0.25
0,860,target,"[(1159, 801)]",[],[1],[0.5333333333333333],horizontal,"(390.0, 262.0)",0.4166666666666667,0.492,1,8995.704,2,0.02,0.25
0,861,target,"[(1131, 832)]",[],[1],[0.65],vertical,"(890.0, 762.0)",0.6666666666666666,0.609,1,9000.636,2,0.02,0.25
0,862,target,"[(1158, 799)]",[],[1],[0.55],vertical,"(390.0, 762.0)",1.1666666666666667,0.509,1,9006.153,2,0.02,0.25
0,863,target,"[(1175, 803)]",[],[1],[0.6666666666666666],horizontal,"(390.0, 762.0)",1.1,0.624,1,9012.134,3,0.02,0.25
0,864,target,"[(1175, 806)]",[],[1],[0.5666666666666667],vertical,"(390.0, 762.0)",0.48333333333333334,0.524,1,9018.253,3,0.02,0.25
