block,practice,trial,change_interval_s,change_interval_frames,taps_start_time_during_fix,taps_end_time_during_fix,taps_start_loc_during_fix,taps_end_loc_during_fix,taps_on_lever_during_fix,taps_on_lever_frame_during_fix,taps_on_lever_s_during_fix,fix_xy,bar_orientation,target_xy,cti,rt,acc,time
1,True,1,0.997,59,[],[],"[(60, 919), (1278, 519), (44, 636), (400, 655), (13, 713), (27, 663), (1, 665), (50, 690), (37, 713), (1074, 822)]",[],"[0, 0, 0, 0, 0, 0, 0, 0, 0, 1]",[19],[0.31666666666666665],"[640.0, 512.0]",horizontal,"(390.0, 262.0)",[0.65],[0.283],1,0.366
1,True,2,0.716,42,[],[],"[(1203, 875)]",[],[1],[],[],"[640.0, 512.0]",vertical,"(390.0, 262.0)",[],[0],0,519.916
1,True,3,0.612,36,[],[],"[(1185, 869)]",[],[1],[32],[0.5333333333333333],"[640.0, 512.0]",horizontal,"(890.0, 762.0)",[1.5666666666666667],[0.502],1,889.06
1,True,4,0.87,52,[],[],"[(1136, 873)]",[],[1],[34],[0.5666666666666667],"[640.0, 512.0]",horizontal,"(390.0, 262.0)",[1.4],[0.53],1,946.913
1,False,1,0.731,43,[],[],"[(1135, 856)]",[],[1],[51],[0.85],"[640.0, 512.0]",horizontal,"(390.0, 762.0)",[1.5333333333333332],[0.8],0,951.77
1,False,2,0.866,51,[],[],"[(1196, 904)]",[],[1],[40],[0.6666666666666666],"[640.0, 512.0]",horizontal,"(890.0, 262.0)",[0.7166666666666667],[0.624],1,956.749
1,False,3,0.505,30,[],[],"[(1134, 869)]",[],[1],[51],[0.85],"[640.0, 512.0]",vertical,"(890.0, 762.0)",[0.6166666666666667],[0.814],0,1019.706
1,False,4,1.039,62,[],[],"[(1136, 862)]",[],[1],[34],[0.5666666666666667],"[640.0, 512.0]",vertical,"(890.0, 262.0)",[0.8833333333333333],[0.534],1,1023.603
1,False,5,0.818,49,[],[],"[(1139, 870)]",[],[1],[35],[0.5833333333333334],"[640.0, 512.0]",horizontal,"(390.0, 262.0)",[1.1333333333333333],[0.543],1,1028.286
1,False,6,1.184,71,[],[],"[(1202, 902)]",[],[1],[38],[0.6333333333333333],"[640.0, 512.0]",horizontal,"(390.0, 262.0)",[1.2666666666666666],[0.595],1,1032.819
1,False,7,0.962,57,[],[],"[(1120, 863)]",[],[1],[32],[0.5333333333333333],"[640.0, 512.0]",horizontal,"(390.0, 262.0)",[1.15],[0.493],1,1057.518
1,False,8,0.514,30,[],[],"[(1153, 873)]",[],[1],[34],[0.5666666666666667],"[640.0, 512.0]",vertical,"(390.0, 262.0)",[1.3666666666666667],[0.531],1,1062.015
1,False,9,1.14,68,[],[],"[(1100, 864)]",[],[1],[51],[0.85],"[640.0, 512.0]",horizontal,"(390.0, 262.0)",[1.35],[0.8],0,1066.676
1,False,10,0.783,46,[],[],"[(262, 759), (1183, 899)]",[],"[0, 1]",[36],[0.6],"[640.0, 512.0]",vertical,"(890.0, 262.0)",[0.7166666666666667],[0.562],1,1071.842
1,False,11,0.658,39,[],[],"[(1103, 865)]",[],[1],[33],[0.55],"[640.0, 512.0]",horizontal,"(390.0, 262.0)",[1.3],[0.507],1,1105.059
1,False,12,0.617,37,[],[],"[(1099, 872)]",[],[1],[43],[0.7166666666666667],"[640.0, 512.0]",horizontal,"(890.0, 762.0)",[0.9666666666666667],[0.675],1,1109.55
1,False,13,0.551,33,[],[],"[(1099, 871)]",[],[1],[51],[0.85],"[640.0, 512.0]",horizontal,"(390.0, 762.0)",[0.85],[0.807],0,1113.915
1,False,14,0.78,46,[],[],"[(1126, 870)]",[],[1],[35],[0.5833333333333334],"[640.0, 512.0]",vertical,"(890.0, 762.0)",[0.6],[0.545],1,1118.144
1,False,15,0.643,38,[],[],"[(1090, 859)]",[],[1],[34],[0.5666666666666667],"[640.0, 512.0]",horizontal,"(890.0, 262.0)",[1.0833333333333333],[0.526],1,1123.055
1,False,16,0.871,52,[],[],"[(1129, 886)]",[],[1],[36],[0.6],"[640.0, 512.0]",vertical,"(390.0, 262.0)",[0.9166666666666666],[0.555],1,1127.548
1,False,17,0.63,37,[],[],"[(1103, 879)]",[],[1],[51],[0.85],"[640.0, 512.0]",vertical,"(390.0, 262.0)",[0.8833333333333333],[0.806],0,1150.16
1,False,18,0.935,56,[],[],"[(1113, 911)]",[],[1],[51],[0.85],"[640.0, 512.0]",vertical,"(390.0, 262.0)",[0.75],[0.806],0,1154.465
1,False,19,0.936,56,[],[],"[(1166, 897)]",[],[1],[51],[0.85],"[640.0, 512.0]",vertical,"(890.0, 262.0)",[0.7666666666666666],[0.806],0,1159.369
1,False,20,1.152,69,[],[],"[(1142, 889)]",[],[1],[35],[0.5833333333333334],"[640.0, 512.0]",vertical,"(390.0, 762.0)",[0.6],[0.543],1,1229.683
1,False,21,0.842,50,[],[],"[(1118, 876)]",[],[1],[43],[0.7166666666666667],"[640.0, 512.0]",vertical,"(390.0, 262.0)",[1.0666666666666667],[0.681],1,1239.269
1,False,22,0.767,46,[],[],"[(1113, 857)]",[],[1],[34],[0.5666666666666667],"[640.0, 512.0]",horizontal,"(390.0, 262.0)",[1.3666666666666667],[0.529],1,1243.785
1,False,23,1.057,63,[],[],"[(1093, 855)]",[],[1],[32],[0.5333333333333333],"[640.0, 512.0]",vertical,"(890.0, 262.0)",[1.2166666666666666],[0.5],1,1248.627
1,False,24,1.069,64,[],[],"[(1094, 856)]",[],[1],[45],[0.75],"[640.0, 512.0]",vertical,"(390.0, 762.0)",[1.4166666666666667],[0.706],1,1253.305
1,False,25,0.878,52,[],[],"[(1106, 870)]",[],[1],[35],[0.5833333333333334],"[640.0, 512.0]",horizontal,"(890.0, 762.0)",[0.5166666666666666],[0.543],1,1258.664
1,False,26,0.971,58,[],[],"[(1108, 872)]",[],[1],[32],[0.5333333333333333],"[640.0, 512.0]",horizontal,"(390.0, 262.0)",[1.25],[0.494],1,1262.654
1,False,27,0.867,52,[],[],"[(1094, 868)]",[],[1],[34],[0.5666666666666667],"[640.0, 512.0]",horizontal,"(890.0, 762.0)",[1.4333333333333333],[0.533],1,1267.367
1,False,28,1.065,63,[],[],"[(1092, 868)]",[],[1],[33],[0.55],"[640.0, 512.0]",horizontal,"(890.0, 762.0)",[1.6],[0.511],1,1272.281
1,False,29,0.773,46,[],[],"[(1142, 872)]",[],[1],[36],[0.6],"[640.0, 512.0]",horizontal,"(390.0, 262.0)",[1.25],[0.568],1,1277.601
1,False,30,1.074,64,[],[],"[(1082, 877)]",[],[1],[36],[0.6],"[640.0, 512.0]",vertical,"(390.0, 262.0)",[1.3333333333333333],[0.558],1,1282.402
1,False,31,0.72,43,[],[],"[(1090, 882)]",[],[1],[31],[0.5166666666666666],"[640.0, 512.0]",vertical,"(890.0, 262.0)",[0.55],[0.484],1,1287.424
1,False,32,0.755,45,[],[],"[(1089, 880)]",[],[1],[34],[0.5666666666666667],"[640.0, 512.0]",vertical,"(890.0, 762.0)",[1.0666666666666667],[0.527],1,1291.226
1,False,33,0.961,57,[],[],"[(1100, 880)]",[],[1],[35],[0.5833333333333334],"[640.0, 512.0]",vertical,"(890.0, 262.0)",[1.5666666666666667],[0.548],1,1295.536
1,False,34,0.633,37,[],[],"[(1117, 879)]",[],[1],[33],[0.55],"[640.0, 512.0]",horizontal,"(890.0, 762.0)",[0.7166666666666667],[0.511],1,1300.581
1,False,35,0.995,59,[],[],"[(1105, 875)]",[],[1],[34],[0.5666666666666667],"[640.0, 512.0]",horizontal,"(890.0, 262.0)",[0.85],[0.525],1,1304.466
1,False,36,0.52,31,[],[],"[(1094, 889)]",[],[1],[51],[0.85],"[640.0, 512.0]",horizontal,"(890.0, 762.0)",[1.3333333333333333],[0.817],0,1308.882
1,False,37,0.842,50,[],[],"[(1081, 881)]",[],[1],[32],[0.5333333333333333],"[640.0, 512.0]",vertical,"(890.0, 762.0)",[1.0333333333333332],[0.492],1,1313.562
1,False,38,0.601,36,[],[],"[(1099, 880)]",[],[1],[34],[0.5666666666666667],"[640.0, 512.0]",horizontal,"(390.0, 762.0)",[0.9833333333333333],[0.524],1,1320.805
1,False,39,0.837,50,[],[],"[(1093, 889)]",[],[1],[34],[0.5666666666666667],"[640.0, 512.0]",vertical,"(890.0, 262.0)",[1.5],[0.52],1,1324.959
1,False,40,0.609,36,[],[],"[(1116, 879)]",[],[1],[51],[0.85],"[640.0, 512.0]",horizontal,"(390.0, 762.0)",[1.5166666666666666],[0.804],0,1329.838
1,False,41,0.749,44,[],[],"[(1135, 879)]",[],[1],[36],[0.6],"[640.0, 512.0]",vertical,"(890.0, 762.0)",[0.9166666666666666],[0.566],1,1334.665
1,False,42,0.808,48,[],[],"[(1093, 874)]",[],[1],[40],[0.6666666666666666],"[640.0, 512.0]",vertical,"(390.0, 262.0)",[1.1],[0.624],1,1339.302
1,False,43,0.536,32,[],[],"[(1140, 885)]",[],[1],[42],[0.7],"[640.0, 512.0]",horizontal,"(890.0, 262.0)",[1.3],[0.654],1,1343.981
1,False,44,0.612,36,[],[],"[(1107, 875)]",[],[1],[40],[0.6666666666666666],"[640.0, 512.0]",horizontal,"(390.0, 262.0)",[0.9666666666666667],[0.622],1,1359.484
1,False,45,0.5,30,[],[],"[(1093, 885)]",[],[1],[51],[0.85],"[640.0, 512.0]",vertical,"(390.0, 762.0)",[1.3666666666666667],[0.793],0,1365.757
1,False,46,0.847,50,[],[],"[(1096, 859)]",[],[1],[51],[0.85],"[640.0, 512.0]",vertical,"(890.0, 762.0)",[0.6666666666666666],[0.806],0,1370.369
1,False,47,0.749,44,[],[],"[(1093, 878)]",[],[1],[45],[0.75],"[640.0, 512.0]",horizontal,"(390.0, 262.0)",[1.3],[0.707],1,1375.078
1,False,48,0.608,36,[],[],"[(1112, 861)]",[],[1],[32],[0.5333333333333333],"[640.0, 512.0]",horizontal,"(390.0, 762.0)",[1.5],[0.494],1,1380.857
1,False,49,0.639,38,[],[],"[(1110, 869)]",[],[1],[32],[0.5333333333333333],"[640.0, 512.0]",horizontal,"(890.0, 762.0)",[0.6833333333333333],[0.495],1,1385.473
1,False,50,0.815,48,[],[],"[(1104, 868)]",[],[1],[33],[0.55],"[640.0, 512.0]",vertical,"(390.0, 762.0)",[0.9],[0.513],1,1389.952
1,False,51,0.694,41,[],[],"[(1075, 858)]",[],[1],[31],[0.5166666666666666],"[640.0, 512.0]",vertical,"(390.0, 762.0)",[1.6666666666666667],[0.476],1,1394.185
1,False,52,1.019,61,[],[],"[(1078, 860)]",[],[1],[36],[0.6],"[640.0, 512.0]",vertical,"(890.0, 262.0)",[1.4166666666666667],[0.559],1,1399.35
1,False,53,1.074,64,[],[],"[(1100, 867)]",[],[1],[33],[0.55],"[640.0, 512.0]",horizontal,"(890.0, 262.0)",[0.6833333333333333],[0.509],1,1404.335
1,False,54,1.002,60,[],[],"[(1071, 868)]",[],[1],[35],[0.5833333333333334],"[640.0, 512.0]",horizontal,"(390.0, 762.0)",[0.5333333333333333],[0.545],1,1408.486
1,False,55,1.185,71,[],[],"[(1063, 853)]",[],[1],[45],[0.75],"[640.0, 512.0]",vertical,"(390.0, 762.0)",[1.3],[0.703],1,1412.468
1,False,56,1.07,64,[],[],"[(1067, 856)]",[],[1],[42],[0.7],"[640.0, 512.0]",horizontal,"(890.0, 762.0)",[1.15],[0.654],1,1418.038
1,False,57,0.69,41,[],[],"[(1097, 872)]",[],[1],[40],[0.6666666666666666],"[640.0, 512.0]",horizontal,"(890.0, 262.0)",[1.5333333333333332],[0.622],1,1423.13
1,False,58,0.627,37,[],[],"[(1099, 861)]",[],[1],[32],[0.5333333333333333],"[640.0, 512.0]",horizontal,"(890.0, 762.0)",[0.5833333333333334],[0.494],1,1429.072
1,False,59,1.073,64,[],[],"[(1104, 873)]",[],[1],[40],[0.6666666666666666],"[640.0, 512.0]",horizontal,"(390.0, 762.0)",[0.55],[0.621],1,1432.867
1,False,60,0.796,47,[],[],"[(1068, 870)]",[],[1],[39],[0.65],"[640.0, 512.0]",horizontal,"(390.0, 762.0)",[1.3],[0.614],1,1437.051
2,False,61,0.799,47,[],[],"[(1100, 862)]",[],[1],[35],[0.5833333333333334],"[640.0, 512.0]",horizontal,"(890.0, 262.0)",[0.5],[0.539],1,1441.945
2,False,62,0.591,35,[],[],"[(1040, 861)]",[],[1],[51],[0.85],"[640.0, 512.0]",horizontal,"(390.0, 262.0)",[0.9666666666666667],[0.801],0,1445.699
2,False,63,0.793,47,[],[],"[(1085, 852)]",[],[1],[47],[0.7833333333333333],"[640.0, 512.0]",horizontal,"(390.0, 262.0)",[1.4833333333333334],[0.74],1,1450.147
2,False,64,0.968,58,[],[],"[(1105, 855)]",[],[1],[36],[0.6],"[640.0, 512.0]",vertical,"(890.0, 262.0)",[1.1666666666666667],[0.563],1,1455.999
2,False,65,0.79,47,[],[],"[(1078, 860)]",[],[1],[36],[0.6],"[640.0, 512.0]",vertical,"(390.0, 262.0)",[0.5333333333333333],[0.567],1,1460.979
2,False,66,0.814,48,[],[],"[(1085, 855)]",[],[1],[38],[0.6333333333333333],"[640.0, 512.0]",horizontal,"(390.0, 762.0)",[1.4166666666666667],[0.591],1,1465.166
2,False,67,0.646,38,[],[],"[(1088, 865)]",[],[1],[41],[0.6833333333333333],"[640.0, 512.0]",vertical,"(390.0, 262.0)",[0.5166666666666666],[0.638],1,1470.409
2,False,68,0.56,33,[],[],"[(1081, 893)]",[],[1],[32],[0.5333333333333333],"[640.0, 512.0]",horizontal,"(390.0, 262.0)",[1.4166666666666667],[0.488],1,1474.422
2,False,69,0.533,31,[],[],"[(1100, 861)]",[],[1],[32],[0.5333333333333333],"[640.0, 512.0]",horizontal,"(390.0, 262.0)",[0.9333333333333333],[0.493],1,1479.006
2,False,70,1.084,65,[],[],"[(1091, 862)]",[],[1],[34],[0.5666666666666667],"[640.0, 512.0]",horizontal,"(890.0, 262.0)",[0.5166666666666666],[0.525],1,1482.924
2,False,71,0.828,49,[],[],"[(1074, 849)]",[],[1],[32],[0.5333333333333333],"[640.0, 512.0]",vertical,"(890.0, 262.0)",[1.0833333333333333],[0.491],1,1486.971
2,False,72,1.082,64,[],[],"[(1078, 862)]",[],[1],[34],[0.5666666666666667],"[640.0, 512.0]",horizontal,"(890.0, 762.0)",[0.65],[0.523],1,1491.388
2,False,73,1.003,60,[],[],"[(1100, 854)]",[],[1],[32],[0.5333333333333333],"[640.0, 512.0]",horizontal,"(890.0, 262.0)",[1.6166666666666667],[0.493],1,1495.637
2,False,74,0.521,31,[],[],"[(1063, 847)]",[],[1],[51],[0.85],"[640.0, 512.0]",vertical,"(390.0, 762.0)",[0.5833333333333334],[0.805],0,1500.737
2,False,75,0.856,51,[],[],"[(1080, 879)]",[],[1],[36],[0.6],"[640.0, 512.0]",horizontal,"(390.0, 762.0)",[0.9],[0.557],1,1505.386
2,False,76,1.057,63,[],[],"[(1074, 840)]",[],[1],[34],[0.5666666666666667],"[640.0, 512.0]",horizontal,"(890.0, 262.0)",[1.4],[0.528],1,1511.917
2,False,77,0.674,40,[],[],"[(1063, 864)]",[],[1],[37],[0.6166666666666667],"[640.0, 512.0]",horizontal,"(890.0, 262.0)",[1.0666666666666667],[0.572],1,1518.048
2,False,78,0.504,30,[],[],"[(1076, 870)]",[],[1],[36],[0.6],"[640.0, 512.0]",horizontal,"(890.0, 762.0)",[1.3333333333333333],[0.558],1,1522.475
2,False,79,0.541,32,[],[],"[(1075, 860)]",[],[1],[33],[0.55],"[640.0, 512.0]",horizontal,"(390.0, 762.0)",[1.05],[0.511],1,1526.972
2,False,80,0.884,53,[],[],"[(1099, 889)]",[],[1],[39],[0.65],"[640.0, 512.0]",horizontal,"(390.0, 262.0)",[0.5833333333333334],[0.601],1,1531.175
2,False,81,1.176,70,[],[],"[(1081, 880)]",[],[1],[33],[0.55],"[640.0, 512.0]",vertical,"(390.0, 262.0)",[0.8833333333333333],[0.508],1,1535.204
2,False,82,1.09,65,[],[],"[(1069, 879)]",[],[1],[45],[0.75],"[640.0, 512.0]",vertical,"(890.0, 262.0)",[0.8333333333333334],[0.71],1,1539.906
2,False,83,1.024,61,[],[],"[(1012, 865), (1148, 894)]",[],"[0, 1]",[36],[0.6],"[640.0, 512.0]",horizontal,"(390.0, 262.0)",[1.5333333333333332],[0.558],1,1544.495
2,False,84,0.81,48,[],[],"[(1098, 870)]",[],[1],[34],[0.5666666666666667],"[640.0, 512.0]",vertical,"(890.0, 262.0)",[1.0],[0.517],1,1584.249
2,False,85,1.157,69,[],[],"[(1069, 861)]",[],[1],[34],[0.5666666666666667],"[640.0, 512.0]",vertical,"(890.0, 262.0)",[0.8166666666666667],[0.52],1,1588.738
2,False,86,1.035,62,[],[],"[(1044, 858)]",[],[1],[38],[0.6333333333333333],"[640.0, 512.0]",vertical,"(390.0, 262.0)",[0.9666666666666667],[0.583],1,1593.194
2,False,87,0.506,30,[],[],"[(1070, 857)]",[],[1],[37],[0.6166666666666667],"[640.0, 512.0]",vertical,"(890.0, 262.0)",[0.9333333333333333],[0.569],1,1597.862
2,False,88,0.764,45,[],[],"[(1013, 866), (1129, 862)]",[],"[0, 1]",[36],[0.6],"[640.0, 512.0]",vertical,"(890.0, 762.0)",[1.3166666666666667],[0.559],1,1613.659
2,False,89,1.05,63,[],[],"[(1076, 888)]",[],[1],[31],[0.5166666666666666],"[640.0, 512.0]",vertical,"(890.0, 262.0)",[0.65],[0.475],1,1622.245
2,False,90,0.84,50,[],[],"[(1115, 863)]",[],[1],[34],[0.5666666666666667],"[640.0, 512.0]",horizontal,"(890.0, 262.0)",[1.1666666666666667],[0.527],1,1626.473
2,False,91,0.507,30,[],[],"[(1093, 862)]",[],[1],[39],[0.65],"[640.0, 512.0]",horizontal,"(890.0, 762.0)",[1.2333333333333334],[0.607],1,1631.221
2,False,92,0.567,34,[],[],"[(1091, 856)]",[],[1],[46],[0.7666666666666666],"[640.0, 512.0]",vertical,"(390.0, 762.0)",[0.8333333333333334],[0.714],1,1635.437
2,False,93,0.502,30,[],[],"[(1082, 871)]",[],[1],[51],[0.85],"[640.0, 512.0]",vertical,"(890.0, 262.0)",[1.4333333333333333],[0.805],0,1639.735
2,False,94,0.688,41,[],[],"[(1098, 872)]",[],[1],[35],[0.5833333333333334],"[640.0, 512.0]",horizontal,"(390.0, 762.0)",[1.2833333333333332],[0.546],1,1644.581
2,False,95,1.121,67,[],[],"[(1069, 861)]",[],[1],[42],[0.7],"[640.0, 512.0]",horizontal,"(390.0, 262.0)",[1.6],[0.653],1,1649.754
2,False,96,1.137,68,[],[],"[(1080, 841)]",[],[1],[36],[0.6],"[640.0, 512.0]",vertical,"(390.0, 762.0)",[0.6],[0.557],1,1655.134
2,False,97,1.04,62,[],[],"[(1087, 874)]",[],[1],[38],[0.6333333333333333],"[640.0, 512.0]",horizontal,"(890.0, 262.0)",[1.5166666666666666],[0.587],1,1659.521
2,False,98,0.732,43,[],[],"[(1063, 857)]",[],[1],[35],[0.5833333333333334],"[640.0, 512.0]",horizontal,"(890.0, 762.0)",[0.6833333333333333],[0.541],1,1664.703
2,False,99,0.928,55,[],[],"[(1050, 865)]",[],[1],[37],[0.6166666666666667],"[640.0, 512.0]",horizontal,"(390.0, 762.0)",[0.55],[0.573],1,1668.636
2,False,100,0.678,40,[],[],"[(1101, 865)]",[],[1],[35],[0.5833333333333334],"[640.0, 512.0]",horizontal,"(390.0, 762.0)",[1.1333333333333333],[0.538],1,1672.686
2,False,101,0.544,32,[],[],"[(1069, 846)]",[],[1],[35],[0.5833333333333334],"[640.0, 512.0]",horizontal,"(390.0, 762.0)",[1.2333333333333334],[0.538],1,1677.048
2,False,102,0.949,56,[],[],"[(1105, 842)]",[],[1],[40],[0.6666666666666666],"[640.0, 512.0]",horizontal,"(390.0, 762.0)",[1.4666666666666666],[0.623],1,1681.485
2,False,103,0.764,45,[],[],"[(1099, 868)]",[],[1],[34],[0.5666666666666667],"[640.0, 512.0]",horizontal,"(390.0, 262.0)",[1.5333333333333332],[0.52],1,1686.364
2,False,104,0.747,44,[],[],"[(1086, 866)]",[],[1],[36],[0.6],"[640.0, 512.0]",vertical,"(890.0, 762.0)",[1.1333333333333333],[0.557],1,1691.156
2,False,105,0.86,51,[],[],"[(1113, 868)]",[],[1],[43],[0.7166666666666667],"[640.0, 512.0]",horizontal,"(390.0, 262.0)",[0.7166666666666667],[0.673],1,1695.606
2,False,106,0.651,39,[],[],"[(1069, 888)]",[],[1],[36],[0.6],"[640.0, 512.0]",horizontal,"(890.0, 762.0)",[1.0666666666666667],[0.554],1,1758.822
2,False,107,0.677,40,[],[],"[(1068, 883)]",[],[1],[37],[0.6166666666666667],"[640.0, 512.0]",vertical,"(390.0, 262.0)",[1.5333333333333332],[0.572],1,1763.149
2,False,108,0.753,45,[],[],"[(1131, 909)]",[],[1],[36],[0.6],"[640.0, 512.0]",horizontal,"(890.0, 762.0)",[1.1],[0.552],1,1768.073
2,False,109,1.089,65,[],[],"[(1007, 860), (1080, 866)]",[],"[0, 1]",[51],[0.85],"[640.0, 512.0]",vertical,"(390.0, 762.0)",[1.2333333333333334],[0.804],0,1781.172
2,False,110,1.2,72,[],[],"[(1093, 871)]",[],[1],[32],[0.5333333333333333],"[640.0, 512.0]",horizontal,"(390.0, 262.0)",[0.7833333333333333],[0.496],1,2071.272
2,False,111,0.965,57,[],[],"[(1086, 863)]",[],[1],[33],[0.55],"[640.0, 512.0]",vertical,"(390.0, 762.0)",[1.6333333333333333],[0.504],1,2076.279
2,False,112,0.958,57,[],[],"[(1081, 875)]",[],[1],[33],[0.55],"[640.0, 512.0]",horizontal,"(390.0, 262.0)",[1.5833333333333333],[0.513],1,2081.617
2,False,113,1.048,62,[],[],"[(1091, 851)]",[],[1],[34],[0.5666666666666667],"[640.0, 512.0]",horizontal,"(390.0, 762.0)",[0.8166666666666667],[0.531],1,2086.576
2,False,114,1.038,62,[],[],"[(1093, 871)]",[],[1],[32],[0.5333333333333333],"[640.0, 512.0]",vertical,"(390.0, 262.0)",[0.7333333333333333],[0.497],1,2091.071
2,False,115,1.096,65,[],[],"[(1075, 864)]",[],[1],[34],[0.5666666666666667],"[640.0, 512.0]",horizontal,"(390.0, 262.0)",[0.6333333333333333],[0.525],1,2095.421
2,False,116,1.169,70,[],[],"[(1099, 855)]",[],[1],[35],[0.5833333333333334],"[640.0, 512.0]",vertical,"(390.0, 762.0)",[0.65],[0.545],1,2099.609
2,False,117,0.602,36,[],[],"[(1113, 872)]",[],[1],[34],[0.5666666666666667],"[640.0, 512.0]",horizontal,"(390.0, 762.0)",[1.5166666666666666],[0.522],1,2103.884
2,False,118,1.174,70,[],[],"[(1074, 842)]",[],[1],[36],[0.6],"[640.0, 512.0]",horizontal,"(390.0, 262.0)",[0.5833333333333334],[0.556],1,2108.455
2,False,119,0.804,48,[],[],"[(1073, 840)]",[],[1],[34],[0.5666666666666667],"[640.0, 512.0]",horizontal,"(390.0, 262.0)",[0.8833333333333333],[0.524],1,2112.871
2,False,120,1.116,66,[],[],"[(1063, 873)]",[],[1],[51],[0.85],"[640.0, 512.0]",horizontal,"(890.0, 262.0)",[1.3333333333333333],[0.808],0,2117.118
3,False,121,1.01,60,[],[],"[(1114, 842)]",[],[1],[34],[0.5666666666666667],"[640.0, 512.0]",vertical,"(390.0, 762.0)",[1.6166666666666667],[0.529],1,2122.429
3,False,122,0.548,32,[],[],"[(1075, 852)]",[],[1],[48],[0.8],"[640.0, 512.0]",horizontal,"(390.0, 262.0)",[1.1333333333333333],[0.761],1,2128.116
3,False,123,0.689,41,[],[],"[(1074, 858)]",[],[1],[35],[0.5833333333333334],"[640.0, 512.0]",vertical,"(390.0, 262.0)",[0.9166666666666666],[0.544],1,2132.701
3,False,124,0.809,48,[],[],"[(1081, 870)]",[],[1],[46],[0.7666666666666666],"[640.0, 512.0]",horizontal,"(390.0, 262.0)",[0.8333333333333334],[0.723],1,2136.872
3,False,125,0.82,49,[],[],"[(1112, 863)]",[],[1],[51],[0.85],"[640.0, 512.0]",horizontal,"(890.0, 762.0)",[1.3666666666666667],[0.803],0,2141.249
3,False,126,0.856,51,[],[],"[(1123, 884)]",[],[1],[34],[0.5666666666666667],"[640.0, 512.0]",horizontal,"(890.0, 762.0)",[0.65],[0.53],1,2146.297
3,False,127,0.513,30,[],[],"[(1068, 870)]",[],[1],[34],[0.5666666666666667],"[640.0, 512.0]",vertical,"(890.0, 762.0)",[1.3666666666666667],[0.527],1,2182.385
3,False,128,1.183,70,[],[],"[(1086, 870)]",[],[1],[34],[0.5666666666666667],"[640.0, 512.0]",horizontal,"(390.0, 762.0)",[0.5166666666666666],[0.527],1,2186.891
3,False,129,0.796,47,[],[],"[(1078, 868)]",[],[1],[34],[0.5666666666666667],"[640.0, 512.0]",horizontal,"(390.0, 762.0)",[0.8],[0.524],1,2191.118
3,False,130,1.066,63,[],[],"[(1050, 875)]",[],[1],[35],[0.5833333333333334],"[640.0, 512.0]",horizontal,"(390.0, 762.0)",[1.5833333333333333],[0.542],1,2195.326
3,False,131,0.777,46,[],[],"[(1060, 868)]",[],[1],[34],[0.5666666666666667],"[640.0, 512.0]",horizontal,"(890.0, 262.0)",[1.0833333333333333],[0.526],1,2200.59
3,False,132,0.618,37,[],[],"[(1077, 856)]",[],[1],[33],[0.55],"[640.0, 512.0]",vertical,"(890.0, 262.0)",[1.5666666666666667],[0.507],1,2205.006
3,False,133,0.923,55,[],[],"[(1108, 861)]",[],[1],[35],[0.5833333333333334],"[640.0, 512.0]",horizontal,"(890.0, 262.0)",[1.65],[0.543],1,2209.785
3,False,134,0.811,48,[],[],"[(1050, 843)]",[],[1],[34],[0.5666666666666667],"[640.0, 512.0]",vertical,"(890.0, 262.0)",[0.8333333333333334],[0.525],1,2214.948
3,False,135,1.173,70,[],[],"[(1080, 882)]",[],[1],[29],[0.48333333333333334],"[640.0, 512.0]",vertical,"(890.0, 262.0)",[1.5833333333333333],[0.437],1,2219.011
3,False,136,0.742,44,[],[],"[(1056, 858)]",[],[1],[34],[0.5666666666666667],"[640.0, 512.0]",vertical,"(890.0, 762.0)",[0.9166666666666666],[0.523],1,2224.235
3,False,137,1.03,61,[],[],"[(1050, 871)]",[],[1],[36],[0.6],"[640.0, 512.0]",vertical,"(390.0, 262.0)",[1.2333333333333334],[0.561],1,2228.53
3,False,138,0.873,52,[],[],"[(1050, 860)]",[],[1],[31],[0.5166666666666666],"[640.0, 512.0]",horizontal,"(890.0, 262.0)",[1.1333333333333333],[0.477],1,2233.289
3,False,139,0.821,49,[],[],"[(1078, 875)]",[],[1],[43],[0.7166666666666667],"[640.0, 512.0]",horizontal,"(890.0, 762.0)",[1.1833333333333333],[0.672],1,2237.99
3,False,140,0.771,46,[],[],"[(1123, 861)]",[],[1],[41],[0.6833333333333333],"[640.0, 512.0]",vertical,"(390.0, 762.0)",[1.4666666666666666],[0.642],1,2242.705
3,False,141,0.926,55,[],[],"[(1063, 878)]",[],[1],[35],[0.5833333333333334],"[640.0, 512.0]",vertical,"(390.0, 762.0)",[0.6833333333333333],[0.539],1,2247.612
3,False,142,1.083,64,[],[],"[(1092, 863)]",[],[1],[36],[0.6],"[640.0, 512.0]",vertical,"(390.0, 762.0)",[1.25],[0.562],1,2251.756
3,False,143,0.85,51,[],[],"[(1034, 876)]",[],[1],[35],[0.5833333333333334],"[640.0, 512.0]",horizontal,"(890.0, 762.0)",[0.5],[0.541],1,2256.604
3,False,144,1.027,61,[],[],"[(1081, 861)]",[],[1],[36],[0.6],"[640.0, 512.0]",vertical,"(890.0, 762.0)",[1.55],[0.559],1,2260.485
3,False,145,0.628,37,[],[],"[(1063, 886)]",[],[1],[48],[0.8],"[640.0, 512.0]",vertical,"(890.0, 762.0)",[1.1166666666666667],[0.766],1,2266.22
3,False,146,0.593,35,[],[],"[(1081, 831)]",[],[1],[35],[0.5833333333333334],"[640.0, 512.0]",vertical,"(390.0, 762.0)",[1.55],[0.539],1,2270.685
3,False,147,0.838,50,[],[],"[(1010, 893), (1098, 868)]",[],"[0, 1]",[41],[0.6833333333333333],"[640.0, 512.0]",horizontal,"(890.0, 762.0)",[1.3166666666666667],[0.644],1,2275.356
3,False,148,0.889,53,[],[],"[(1098, 856)]",[],[1],[42],[0.7],"[640.0, 512.0]",horizontal,"(390.0, 762.0)",[1.6333333333333333],[0.65],1,2282.09
3,False,149,0.885,53,[],[],"[(1080, 861)]",[],[1],[36],[0.6],"[640.0, 512.0]",vertical,"(890.0, 762.0)",[1.4666666666666666],[0.563],1,2288.003
3,False,150,0.551,33,[],[],"[(1060, 845)]",[],[1],[34],[0.5666666666666667],"[640.0, 512.0]",horizontal,"(890.0, 762.0)",[0.7666666666666666],[0.524],1,2293.134
3,False,151,0.652,39,[],[],"[(1082, 869)]",[],[1],[40],[0.6666666666666666],"[640.0, 512.0]",vertical,"(390.0, 762.0)",[1.25],[0.63],1,2297.165
3,False,152,0.561,33,[],[],"[(1093, 862)]",[],[1],[35],[0.5833333333333334],"[640.0, 512.0]",horizontal,"(390.0, 762.0)",[0.9833333333333333],[0.554],1,2301.775
3,False,153,0.611,36,[],[],"[(1118, 873)]",[],[1],[35],[0.5833333333333334],"[640.0, 512.0]",horizontal,"(390.0, 762.0)",[1.4],[0.552],1,2305.889
3,False,154,0.973,58,[],[],"[(1093, 866)]",[],[1],[34],[0.5666666666666667],"[640.0, 512.0]",horizontal,"(890.0, 262.0)",[1.2333333333333334],[0.523],1,2310.527
3,False,155,0.661,39,[],[],"[(1075, 847)]",[],[1],[40],[0.6666666666666666],"[640.0, 512.0]",horizontal,"(390.0, 262.0)",[1.0166666666666666],[0.625],1,2315.268
3,False,156,0.879,52,[],[],"[(1099, 866)]",[],[1],[39],[0.65],"[640.0, 512.0]",horizontal,"(890.0, 762.0)",[0.5666666666666667],[0.601],1,2319.656
3,False,157,0.566,33,[],[],"[(1087, 902)]",[],[1],[35],[0.5833333333333334],"[640.0, 512.0]",horizontal,"(890.0, 262.0)",[0.6166666666666667],[0.54],1,2323.755
3,False,158,0.56,33,[],[],"[(1128, 865)]",[],[1],[32],[0.5333333333333333],"[640.0, 512.0]",horizontal,"(390.0, 262.0)",[0.7166666666666667],[0.496],1,2327.391
3,False,159,0.574,34,[],[],"[(1068, 858)]",[],[1],[36],[0.6],"[640.0, 512.0]",horizontal,"(890.0, 762.0)",[1.2166666666666666],[0.56],1,2331.267
3,False,160,0.511,30,[],[],"[(1086, 870)]",[],[1],[37],[0.6166666666666667],"[640.0, 512.0]",horizontal,"(390.0, 762.0)",[0.5333333333333333],[0.581],1,2335.642
3,False,161,0.591,35,[],[],"[(1074, 878)]",[],[1],[39],[0.65],"[640.0, 512.0]",horizontal,"(890.0, 262.0)",[0.7666666666666666],[0.604],1,2339.125
3,False,162,0.506,30,[],[],"[(1040, 859)]",[],[1],[43],[0.7166666666666667],"[640.0, 512.0]",vertical,"(390.0, 262.0)",[0.7833333333333333],[0.68],1,2343.137
3,False,163,0.891,53,[],[],"[(1058, 881)]",[],[1],[34],[0.5666666666666667],"[640.0, 512.0]",horizontal,"(890.0, 762.0)",[1.4333333333333333],[0.527],1,2347.169
3,False,164,0.587,35,[],[],"[(1091, 853)]",[],[1],[44],[0.7333333333333333],"[640.0, 512.0]",horizontal,"(890.0, 762.0)",[1.5166666666666666],[0.685],1,2351.988
3,False,165,1.107,66,[],[],"[(1026, 860), (1139, 863)]",[],"[0, 1]",[],[],"[640.0, 512.0]",horizontal,"(890.0, 762.0)",[],[0],0,2356.839
3,False,166,0.526,31,[],[],"[(1148, 881)]",[],[1],[40],[0.6666666666666666],"[640.0, 512.0]",horizontal,"(890.0, 762.0)",[1.6333333333333333],[0.622],1,2361.823
3,False,167,0.752,45,[],[],"[(1098, 875)]",[],[1],[40],[0.6666666666666666],"[640.0, 512.0]",vertical,"(390.0, 762.0)",[1.3333333333333333],[0.623],1,2371.302
3,False,168,0.708,42,[],[],"[(1111, 857)]",[],[1],[27],[0.45],"[640.0, 512.0]",vertical,"(890.0, 262.0)",[1.55],[0.411],1,2376.198
3,False,169,0.87,52,[],[],"[(1081, 861)]",[],[1],[35],[0.5833333333333334],"[640.0, 512.0]",vertical,"(390.0, 762.0)",[1.4833333333333334],[0.542],1,2380.973
3,False,170,1.162,69,[],[],"[(1113, 852)]",[],[1],[33],[0.55],"[640.0, 512.0]",horizontal,"(890.0, 762.0)",[1.35],[0.511],1,2386.005
3,False,171,0.795,47,[],[],"[(1101, 877)]",[],[1],[32],[0.5333333333333333],"[640.0, 512.0]",horizontal,"(890.0, 762.0)",[1.4666666666666666],[0.491],1,2390.901
3,False,172,1.178,70,[],[],"[(1086, 877)]",[],[1],[33],[0.55],"[640.0, 512.0]",horizontal,"(390.0, 262.0)",[1.35],[0.507],1,2395.758
3,False,173,1.038,62,[],[],"[(1099, 865)]",[],[1],[39],[0.65],"[640.0, 512.0]",vertical,"(390.0, 262.0)",[0.9833333333333333],[0.607],1,2400.726
3,False,174,1.114,66,[],[],"[(1093, 884)]",[],[1],[37],[0.6166666666666667],"[640.0, 512.0]",vertical,"(390.0, 262.0)",[0.6666666666666666],[0.58],1,2405.384
3,False,175,1.045,62,[],[],"[(1094, 878)]",[],[1],[39],[0.65],"[640.0, 512.0]",horizontal,"(890.0, 762.0)",[1.1166666666666667],[0.608],1,2409.807
3,False,176,1.01,60,[],[],"[(1093, 842)]",[],[1],[35],[0.5833333333333334],"[640.0, 512.0]",horizontal,"(890.0, 262.0)",[0.9833333333333333],[0.545],1,2414.456
3,False,177,0.609,36,[],[],"[(1099, 851)]",[],[1],[38],[0.6333333333333333],"[640.0, 512.0]",horizontal,"(890.0, 262.0)",[1.6333333333333333],[0.588],1,2419.087
3,False,178,0.51,30,[],[],"[(1093, 843)]",[],[1],[34],[0.5666666666666667],"[640.0, 512.0]",horizontal,"(390.0, 262.0)",[1.1166666666666667],[0.528],1,2423.985
3,False,179,0.633,37,[],[],"[(1092, 853)]",[],[1],[40],[0.6666666666666666],"[640.0, 512.0]",vertical,"(390.0, 762.0)",[1.1],[0.622],1,2428.255
3,False,180,0.601,36,[],[],"[(1092, 848)]",[],[1],[33],[0.55],"[640.0, 512.0]",vertical,"(890.0, 762.0)",[1.3333333333333333],[0.508],1,2432.578
4,False,181,0.725,43,[],[],"[(1059, 883)]",[],[1],[35],[0.5833333333333334],"[640.0, 512.0]",vertical,"(390.0, 762.0)",[1.3333333333333333],[0.547],1,2437.975
4,False,182,1.13,67,[],[],"[(1094, 868)]",[],[1],[34],[0.5666666666666667],"[640.0, 512.0]",vertical,"(390.0, 762.0)",[1.6666666666666667],[0.526],1,2442.726
4,False,183,0.524,31,[],[],"[(1080, 884)]",[],[1],[33],[0.55],"[640.0, 512.0]",horizontal,"(890.0, 262.0)",[1.6333333333333333],[0.515],1,2448.124
4,False,184,1.123,67,[],[],"[(1166, 849)]",[],[1],[50],[0.8333333333333334],"[640.0, 512.0]",vertical,"(390.0, 762.0)",[1.35],[0.79],1,2452.891
4,False,185,0.675,40,[],[],"[(1056, 848)]",[],[1],[34],[0.5666666666666667],"[640.0, 512.0]",vertical,"(890.0, 262.0)",[1.5333333333333332],[0.53],1,2466.059
4,False,186,0.908,54,[],[],"[(1083, 875)]",[],[1],[35],[0.5833333333333334],"[640.0, 512.0]",vertical,"(890.0, 762.0)",[0.5166666666666666],[0.54],1,2471.741
4,False,187,0.887,53,[],[],"[(1123, 865)]",[],[1],[34],[0.5666666666666667],"[640.0, 512.0]",horizontal,"(890.0, 262.0)",[1.15],[0.535],1,2475.841
4,False,188,0.525,31,[],[],"[(1068, 854)]",[],[1],[35],[0.5833333333333334],"[640.0, 512.0]",horizontal,"(390.0, 762.0)",[1.6666666666666667],[0.551],1,2480.65
4,False,189,0.965,57,[],[],"[(1147, 871)]",[],[1],[34],[0.5666666666666667],"[640.0, 512.0]",horizontal,"(390.0, 262.0)",[1.5166666666666666],[0.536],1,2485.553
4,False,190,1.062,63,[],[],"[(1098, 886)]",[],[1],[37],[0.6166666666666667],"[640.0, 512.0]",horizontal,"(390.0, 762.0)",[1.0],[0.58],1,2490.472
4,False,191,0.852,51,[],[],"[(1129, 878)]",[],[1],[39],[0.65],"[640.0, 512.0]",vertical,"(890.0, 762.0)",[1.1833333333333333],[0.606],1,2495.271
4,False,192,0.554,33,[],[],"[(1056, 852)]",[],[1],[41],[0.6833333333333333],"[640.0, 512.0]",horizontal,"(890.0, 762.0)",[1.2166666666666666],[0.637],1,2499.969
4,False,193,0.554,33,[],[],"[(1049, 863)]",[],[1],[32],[0.5333333333333333],"[640.0, 512.0]",vertical,"(390.0, 762.0)",[1.3],[0.501],1,2505.022
4,False,194,0.936,56,[],[],"[(1032, 870)]",[],[1],[47],[0.7833333333333333],"[640.0, 512.0]",horizontal,"(890.0, 262.0)",[1.6666666666666667],[0.742],1,2509.38
4,False,195,1.189,71,[],[],"[(1044, 885)]",[],[1],[41],[0.6833333333333333],"[640.0, 512.0]",horizontal,"(390.0, 762.0)",[0.6666666666666666],[0.644],1,2518.487
4,False,196,1.064,63,[],[],"[(1087, 860)]",[],[1],[],[],"[640.0, 512.0]",vertical,"(890.0, 762.0)",[],[0],0,2522.988
4,False,197,1.13,67,[],[],"[(1148, 871)]",[],[1],[],[],"[640.0, 512.0]",horizontal,"(390.0, 762.0)",[],[0],0,2525.951
4,False,198,0.508,30,[],[],"[(1089, 851)]",[],[1],[34],[0.5666666666666667],"[640.0, 512.0]",vertical,"(390.0, 262.0)",[1.1833333333333333],[0.524],1,2569.802
4,False,199,0.745,44,[],[],"[(1091, 861)]",[],[1],[33],[0.55],"[640.0, 512.0]",horizontal,"(390.0, 762.0)",[0.65],[0.512],1,2574.455
4,False,200,0.551,33,[],[],"[(1087, 870)]",[],[1],[34],[0.5666666666666667],"[640.0, 512.0]",vertical,"(890.0, 262.0)",[1.6166666666666667],[0.53],1,2578.42
4,False,201,0.734,44,[],[],"[(1087, 872)]",[],[1],[40],[0.6666666666666666],"[640.0, 512.0]",horizontal,"(890.0, 262.0)",[1.3166666666666667],[0.632],1,2582.99
4,False,202,1.032,61,[],[],"[(1089, 879)]",[],[1],[37],[0.6166666666666667],"[640.0, 512.0]",horizontal,"(390.0, 762.0)",[1.6833333333333333],[0.577],1,2587.624
4,False,203,1.105,66,[],[],"[(1093, 867)]",[],[1],[33],[0.55],"[640.0, 512.0]",horizontal,"(890.0, 262.0)",[0.5833333333333334],[0.513],1,2593.004
4,False,204,0.597,35,[],[],"[(1061, 855)]",[],[1],[39],[0.65],"[640.0, 512.0]",vertical,"(390.0, 262.0)",[1.6333333333333333],[0.616],1,2597.242
4,False,205,1.191,71,[],[],"[(1048, 893)]",[],[1],[35],[0.5833333333333334],"[640.0, 512.0]",vertical,"(390.0, 762.0)",[1.1333333333333333],[0.541],1,2602.103
4,False,206,0.959,57,[],[],"[(1103, 837)]",[],[1],[46],[0.7666666666666666],"[640.0, 512.0]",horizontal,"(890.0, 762.0)",[1.55],[0.728],1,2607.198
4,False,207,0.693,41,[],[],"[(1099, 865)]",[],[1],[34],[0.5666666666666667],"[640.0, 512.0]",horizontal,"(890.0, 262.0)",[1.1666666666666667],[0.525],1,2612.674
4,False,208,0.653,39,[],[],"[(1069, 846)]",[],[1],[38],[0.6333333333333333],"[640.0, 512.0]",vertical,"(890.0, 762.0)",[1.2],[0.591],1,2617.015
4,False,209,0.663,39,[],[],"[(1093, 868)]",[],[1],[36],[0.6],"[640.0, 512.0]",vertical,"(890.0, 262.0)",[1.55],[0.562],1,2621.813
4,False,210,0.613,36,[],[],"[(1099, 860)]",[],[1],[35],[0.5833333333333334],"[640.0, 512.0]",horizontal,"(390.0, 262.0)",[0.9],[0.541],1,2626.696
4,False,211,0.611,36,[],[],"[(1076, 893)]",[],[1],[36],[0.6],"[640.0, 512.0]",horizontal,"(890.0, 262.0)",[0.7],[0.557],1,2630.764
4,False,212,0.783,46,[],[],"[(1050, 838)]",[],[1],[35],[0.5833333333333334],"[640.0, 512.0]",vertical,"(390.0, 262.0)",[0.7],[0.541],1,2634.984
4,False,213,0.624,37,[],[],"[(1082, 875)]",[],[1],[34],[0.5666666666666667],"[640.0, 512.0]",horizontal,"(890.0, 262.0)",[1.3833333333333333],[0.526],1,2639.287
4,False,214,1.11,66,[],[],"[(1082, 883)]",[],[1],[37],[0.6166666666666667],"[640.0, 512.0]",vertical,"(890.0, 262.0)",[1.2333333333333334],[0.577],1,2643.751
4,False,215,0.888,53,[],[],"[(1086, 869)]",[],[1],[40],[0.6666666666666666],"[640.0, 512.0]",horizontal,"(890.0, 762.0)",[1.5833333333333333],[0.622],1,2648.737
4,False,216,0.719,43,[],[],"[(1079, 866)]",[],[1],[35],[0.5833333333333334],"[640.0, 512.0]",vertical,"(890.0, 262.0)",[1.0166666666666666],[0.546],1,2654.043
4,False,217,1.127,67,[],[],"[(1086, 896)]",[],[1],[34],[0.5666666666666667],"[640.0, 512.0]",horizontal,"(890.0, 262.0)",[0.75],[0.527],1,2658.357
4,False,218,0.629,37,[],[],"[(1086, 865)]",[],[1],[34],[0.5666666666666667],"[640.0, 512.0]",vertical,"(390.0, 762.0)",[1.55],[0.525],1,2662.774
4,False,219,0.828,49,[],[],"[(1148, 880)]",[],[1],[34],[0.5666666666666667],"[640.0, 512.0]",vertical,"(890.0, 762.0)",[1.5],[0.526],1,2667.473
4,False,220,1.14,68,[],[],"[(361, 512), (513, 670), (1123, 900)]",[],"[0, 0, 1]",[51],[0.85],"[640.0, 512.0]",horizontal,"(890.0, 262.0)",[0.55],[0.806],0,2672.509
4,False,221,1.125,67,[],[],"[(1142, 862)]",[],[1],[],[],"[640.0, 512.0]",horizontal,"(390.0, 762.0)",[],[0],0,3506.858
4,False,222,1.179,70,[],[],"[(1113, 859)]",[],[1],[36],[0.6],"[640.0, 512.0]",vertical,"(390.0, 762.0)",[1.2],[0.567],1,3511.14
4,False,223,0.508,30,[],[],"[(1106, 854)]",[],[1],[33],[0.55],"[640.0, 512.0]",vertical,"(390.0, 762.0)",[0.7],[0.509],1,3517.292
4,False,224,0.862,51,[],[],"[(1123, 850)]",[],[1],[40],[0.6666666666666666],"[640.0, 512.0]",horizontal,"(390.0, 262.0)",[1.0333333333333332],[0.631],1,3521.497
4,False,225,1.164,69,[],[],"[(1122, 863)]",[],[1],[35],[0.5833333333333334],"[640.0, 512.0]",vertical,"(890.0, 262.0)",[0.5],[0.555],1,3526.904
4,False,226,0.835,50,[],[],"[(1074, 861)]",[],[1],[33],[0.55],"[640.0, 512.0]",vertical,"(390.0, 762.0)",[0.5833333333333334],[0.509],1,3531.804
4,False,227,1.025,61,[],[],"[(1080, 882)]",[],[1],[26],[0.43333333333333335],"[640.0, 512.0]",vertical,"(890.0, 262.0)",[1.55],[0.395],1,3537.203
4,False,228,0.541,32,[],[],"[(1104, 865)]",[],[1],[31],[0.5166666666666666],"[640.0, 512.0]",vertical,"(390.0, 762.0)",[1.1333333333333333],[0.478],1,3542.109
4,False,229,1.158,69,[],[],"[(1093, 865)]",[],[1],[51],[0.85],"[640.0, 512.0]",horizontal,"(390.0, 762.0)",[1.05],[0.809],0,3546.241
4,False,230,0.878,52,[],[],"[(1154, 868)]",[],[1],[31],[0.5166666666666666],"[640.0, 512.0]",vertical,"(890.0, 762.0)",[1.3333333333333333],[0.475],1,3551.241
4,False,231,0.568,34,[],[],"[(1113, 871)]",[],[1],[30],[0.5],"[640.0, 512.0]",vertical,"(390.0, 762.0)",[1.5166666666666666],[0.461],1,3601.058
4,False,232,0.925,55,[],[],"[(1095, 880)]",[],[1],[33],[0.55],"[640.0, 512.0]",horizontal,"(890.0, 262.0)",[0.85],[0.506],1,3605.776
4,False,233,1.15,69,[],[],"[(1083, 856)]",[],[1],[37],[0.6166666666666667],"[640.0, 512.0]",vertical,"(890.0, 262.0)",[0.9333333333333333],[0.577],1,3612.54
4,False,234,0.886,53,[],[],"[(1080, 860)]",[],[1],[32],[0.5333333333333333],"[640.0, 512.0]",vertical,"(890.0, 262.0)",[0.6333333333333333],[0.49],1,3617.178
4,False,235,0.546,32,[],[],"[(1026, 862), (1168, 878)]",[],"[0, 1]",[33],[0.55],"[640.0, 512.0]",horizontal,"(390.0, 762.0)",[1.0],[0.51],1,3621.092
4,False,236,0.916,54,[],[],"[(1031, 879)]",[],[1],[],[],"[640.0, 512.0]",horizontal,"(890.0, 762.0)",[],[0],0,3627.104
4,False,237,0.758,45,[],[],"[(1093, 855)]",[],[1],[34],[0.5666666666666667],"[640.0, 512.0]",horizontal,"(890.0, 262.0)",[1.0333333333333332],[0.528],1,3631.338
4,False,238,0.927,55,[],[],"[(1045, 863)]",[],[1],[37],[0.6166666666666667],"[640.0, 512.0]",horizontal,"(890.0, 262.0)",[1.4833333333333334],[0.573],1,3635.903
4,False,239,0.536,32,[],[],"[(1105, 875)]",[],[1],[31],[0.5166666666666666],"[640.0, 512.0]",vertical,"(890.0, 262.0)",[1.4833333333333334],[0.476],1,3641.414
4,False,240,0.996,59,[],[],"[(1093, 872)]",[],[1],[32],[0.5333333333333333],"[640.0, 512.0]",horizontal,"(890.0, 262.0)",[1.1666666666666667],[0.493],1,3645.962
5,False,241,0.793,47,[],[],"[(1098, 840)]",[],[1],[34],[0.5666666666666667],"[640.0, 512.0]",horizontal,"(890.0, 762.0)",[0.9],[0.53],1,3651.036
5,False,242,0.644,38,[],[],"[(1086, 862)]",[],[1],[35],[0.5833333333333334],"[640.0, 512.0]",vertical,"(390.0, 762.0)",[1.15],[0.546],1,3655.061
5,False,243,0.544,32,[],[3677713],"[(1113, 852)]","[(1088, 869)]",[1],[24],[0.4],"[640.0, 512.0]",horizontal,"(890.0, 262.0)",[],[0],0,3659.544
5,False,244,0.746,44,[],[],"[(1087, 880)]",[],[1],[34],[0.5666666666666667],"[640.0, 512.0]",vertical,"(890.0, 262.0)",[1.5166666666666666],[0.527],1,3661.989
5,False,245,0.664,39,[],[],"[(1032, 849)]",[],[1],[33],[0.55],"[640.0, 512.0]",horizontal,"(390.0, 262.0)",[1.2166666666666666],[0.511],1,3682.339
5,False,246,1.186,71,[],[],"[(1077, 852)]",[],[1],[32],[0.5333333333333333],"[640.0, 512.0]",horizontal,"(390.0, 262.0)",[1.6],[0.494],1,3686.823
5,False,247,0.67,40,[],[],"[(1073, 859)]",[],[1],[36],[0.6],"[640.0, 512.0]",vertical,"(390.0, 262.0)",[0.9166666666666666],[0.563],1,3692.031
5,False,248,0.84,50,[],[],"[(1110, 870)]",[],[1],[32],[0.5333333333333333],"[640.0, 512.0]",vertical,"(890.0, 262.0)",[1.0833333333333333],[0.493],1,3697.033
5,False,249,0.576,34,[],[],"[(1102, 879)]",[],[1],[33],[0.55],"[640.0, 512.0]",horizontal,"(390.0, 762.0)",[1.0666666666666667],[0.504],1,3701.297
5,False,250,1.087,65,[],[],"[(1081, 874)]",[],[1],[35],[0.5833333333333334],"[640.0, 512.0]",horizontal,"(890.0, 262.0)",[1.1166666666666667],[0.547],1,3705.39
5,False,251,0.944,56,[],[],"[(1102, 889)]",[],[1],[37],[0.6166666666666667],"[640.0, 512.0]",vertical,"(890.0, 762.0)",[0.95],[0.572],1,3710.666
5,False,252,0.979,58,[],[],"[(1117, 853)]",[],[1],[37],[0.6166666666666667],"[640.0, 512.0]",vertical,"(390.0, 262.0)",[1.3333333333333333],[0.565],1,3715.324
5,False,253,1.001,60,[],[],"[(1071, 863)]",[],[1],[51],[0.85],"[640.0, 512.0]",vertical,"(390.0, 762.0)",[0.8],[0.802],0,3732.889
5,False,254,0.752,45,[],[],"[(1013, 906), (1056, 873)]",[],"[0, 1]",[33],[0.55],"[640.0, 512.0]",vertical,"(390.0, 262.0)",[0.9833333333333333],[0.505],1,3737.528
5,False,255,0.541,32,[],[],"[(1009, 868), (1130, 869)]",[],"[0, 1]",[42],[0.7],"[640.0, 512.0]",vertical,"(390.0, 262.0)",[0.6333333333333333],[0.656],1,3754.233
5,False,256,0.89,53,[],[],"[(1042, 868)]",[],[1],[33],[0.55],"[640.0, 512.0]",vertical,"(890.0, 262.0)",[0.8],[0.508],1,3760.322
5,False,257,1.101,66,[],[],"[(1020, 877), (1125, 872)]",[],"[0, 1]",[],[],"[640.0, 512.0]",vertical,"(890.0, 762.0)",[],[0],0,3765.611
5,False,258,0.865,51,[],[],"[(1077, 870)]",[],[1],[31],[0.5166666666666666],"[640.0, 512.0]",horizontal,"(890.0, 762.0)",[1.3833333333333333],[0.476],1,3774.556
5,False,259,0.782,46,[],[],"[(1020, 844), (1147, 856)]",[],"[0, 1]",[35],[0.5833333333333334],"[640.0, 512.0]",vertical,"(890.0, 762.0)",[1.65],[0.548],1,3781.985
5,False,260,1.161,69,[],[],"[(1079, 877)]",[],[1],[38],[0.6333333333333333],"[640.0, 512.0]",vertical,"(390.0, 262.0)",[0.85],[0.593],1,3792.01
5,False,261,0.96,57,[],[],"[(1044, 862)]",[],[1],[35],[0.5833333333333334],"[640.0, 512.0]",horizontal,"(390.0, 762.0)",[0.6833333333333333],[0.543],1,3796.539
5,False,262,0.502,30,[],[],"[(1045, 877)]",[],[1],[34],[0.5666666666666667],"[640.0, 512.0]",vertical,"(390.0, 262.0)",[1.05],[0.527],1,3800.892
5,False,263,0.63,37,[],[],"[(1142, 870)]",[],[1],[35],[0.5833333333333334],"[640.0, 512.0]",horizontal,"(390.0, 262.0)",[0.9666666666666667],[0.545],1,3805.082
5,False,264,0.891,53,[],[],"[(1072, 862)]",[],[1],[51],[0.85],"[640.0, 512.0]",horizontal,"(390.0, 762.0)",[1.6833333333333333],[0.806],0,3811.494
5,False,265,0.965,57,[],[],"[(203, 108), (116, 424), (1093, 907)]",[],"[0, 0, 1]",[],[],"[640.0, 512.0]",vertical,"(890.0, 762.0)",[],[0],0,3816.826
5,False,266,0.904,54,[],[],"[(1096, 865)]",[],[1],[35],[0.5833333333333334],"[640.0, 512.0]",horizontal,"(390.0, 262.0)",[1.45],[0.546],1,4118.432
5,False,267,0.867,52,[],[],"[(1083, 889)]",[],[1],[36],[0.6],"[640.0, 512.0]",horizontal,"(890.0, 262.0)",[1.4],[0.562],1,4123.88
5,False,268,1.083,64,[],[],"[(1050, 875)]",[],[1],[42],[0.7],"[640.0, 512.0]",horizontal,"(390.0, 262.0)",[1.5],[0.666],1,4128.86
5,False,269,0.581,34,[],[],"[(1031, 870)]",[],[1],[33],[0.55],"[640.0, 512.0]",horizontal,"(390.0, 762.0)",[1.45],[0.506],1,4134.225
5,False,270,1.006,60,[],[],"[(1051, 860)]",[],[1],[33],[0.55],"[640.0, 512.0]",horizontal,"(390.0, 762.0)",[0.6166666666666667],[0.509],1,4139.878
5,False,271,0.763,45,[],[],"[(1093, 869)]",[],[1],[34],[0.5666666666666667],"[640.0, 512.0]",horizontal,"(890.0, 762.0)",[0.8666666666666667],[0.523],1,4144.028
5,False,272,1.046,62,[],[],"[(1074, 858)]",[],[1],[33],[0.55],"[640.0, 512.0]",vertical,"(890.0, 762.0)",[0.7],[0.509],1,4148.157
5,False,273,0.533,31,[],[],"[(1099, 870)]",[],[1],[37],[0.6166666666666667],"[640.0, 512.0]",horizontal,"(890.0, 762.0)",[1.65],[0.572],1,4152.329
5,False,274,0.701,42,[],[],"[(1044, 862)]",[],[1],[32],[0.5333333333333333],"[640.0, 512.0]",horizontal,"(890.0, 762.0)",[0.85],[0.496],1,4157.095
5,False,275,1.196,71,[],[],"[(1050, 851)]",[],[1],[34],[0.5666666666666667],"[640.0, 512.0]",horizontal,"(890.0, 262.0)",[0.9333333333333333],[0.521],1,4161.159
5,False,276,0.657,39,[],[],"[(1080, 867)]",[],[1],[35],[0.5833333333333334],"[640.0, 512.0]",horizontal,"(390.0, 762.0)",[0.6333333333333333],[0.552],1,4166.936
5,False,277,0.84,50,[],[],"[(1058, 868)]",[],[1],[33],[0.55],"[640.0, 512.0]",horizontal,"(890.0, 262.0)",[1.5666666666666667],[0.509],1,4170.745
5,False,278,1.06,63,[],[],"[(1032, 882)]",[],[1],[31],[0.5166666666666666],"[640.0, 512.0]",horizontal,"(890.0, 262.0)",[0.85],[0.479],1,4175.596
5,False,279,1.073,64,[],[],"[(1056, 880)]",[],[1],[43],[0.7166666666666667],"[640.0, 512.0]",vertical,"(390.0, 262.0)",[1.2833333333333332],[0.677],1,4179.924
5,False,280,1.057,63,[],[],"[(1076, 870)]",[],[1],[44],[0.7333333333333333],"[640.0, 512.0]",horizontal,"(890.0, 762.0)",[1.6166666666666667],[0.696],1,4185.046
5,False,281,0.895,53,[],[],"[(1037, 880)]",[],[1],[36],[0.6],"[640.0, 512.0]",horizontal,"(390.0, 762.0)",[1.4666666666666666],[0.563],1,4190.562
5,False,282,0.841,50,[],[],"[(1056, 846)]",[],[1],[37],[0.6166666666666667],"[640.0, 512.0]",vertical,"(390.0, 762.0)",[0.8],[0.576],1,4195.628
5,False,283,1.158,69,[],[],"[(1050, 856)]",[],[1],[33],[0.55],"[640.0, 512.0]",horizontal,"(890.0, 262.0)",[1.4833333333333334],[0.509],1,4199.799
5,False,284,0.811,48,[],[],"[(1099, 866)]",[],[1],[33],[0.55],"[640.0, 512.0]",vertical,"(890.0, 762.0)",[1.5],[0.508],1,4204.946
5,False,285,0.719,43,[],[],"[(1081, 860)]",[],[1],[43],[0.7166666666666667],"[640.0, 512.0]",vertical,"(890.0, 762.0)",[1.0],[0.67],1,4209.776
5,False,286,0.563,33,[],[],"[(1052, 858)]",[],[1],[35],[0.5833333333333334],"[640.0, 512.0]",horizontal,"(890.0, 762.0)",[1.0166666666666666],[0.541],1,4214.22
5,False,287,1.062,63,[],[],"[(1093, 876)]",[],[1],[39],[0.65],"[640.0, 512.0]",vertical,"(890.0, 762.0)",[0.8],[0.606],1,4218.314
5,False,288,0.931,55,[],[],"[(1075, 866)]",[],[1],[36],[0.6],"[640.0, 512.0]",horizontal,"(890.0, 762.0)",[0.6666666666666666],[0.562],1,4222.842
5,False,289,1.031,61,[],[],"[(1087, 883)]",[],[1],[43],[0.7166666666666667],"[640.0, 512.0]",horizontal,"(890.0, 762.0)",[0.75],[0.674],1,4227.121
5,False,290,0.727,43,[],[],"[(1063, 879)]",[],[1],[35],[0.5833333333333334],"[640.0, 512.0]",horizontal,"(890.0, 762.0)",[1.1],[0.542],1,4231.455
5,False,291,0.771,46,[],[],"[(1088, 859)]",[],[1],[41],[0.6833333333333333],"[640.0, 512.0]",vertical,"(890.0, 262.0)",[1.4833333333333334],[0.649],1,4236.386
5,False,292,0.803,48,[],[],"[(1077, 875)]",[],[1],[36],[0.6],"[640.0, 512.0]",vertical,"(390.0, 762.0)",[0.7166666666666667],[0.562],1,4241.402
5,False,293,1.073,64,[],[],"[(1087, 870)]",[],[1],[35],[0.5833333333333334],"[640.0, 512.0]",horizontal,"(390.0, 762.0)",[0.7166666666666667],[0.551],1,4247.123
5,False,294,0.582,34,[],[],"[(1046, 866)]",[],[1],[38],[0.6333333333333333],"[640.0, 512.0]",vertical,"(390.0, 762.0)",[1.6333333333333333],[0.589],1,4251.495
5,False,295,0.782,46,[],[],"[(1050, 870)]",[],[1],[51],[0.85],"[640.0, 512.0]",vertical,"(890.0, 762.0)",[1.5333333333333332],[0.799],0,4256.344
5,False,296,1.076,64,[],[],"[(1049, 873)]",[],[1],[34],[0.5666666666666667],"[640.0, 512.0]",horizontal,"(890.0, 262.0)",[0.85],[0.528],1,4261.477
5,False,297,1.0,60,[],[],"[(1013, 884), (1141, 870)]",[],"[0, 1]",[34],[0.5666666666666667],"[640.0, 512.0]",horizontal,"(390.0, 262.0)",[1.1166666666666667],[0.525],1,4276.709
5,False,298,0.951,57,[],[],"[(1056, 865)]",[],[1],[40],[0.6666666666666666],"[640.0, 512.0]",vertical,"(390.0, 262.0)",[0.7333333333333333],[0.627],1,4284.506
5,False,299,0.563,33,[],[],"[(1080, 877)]",[],[1],[31],[0.5166666666666666],"[640.0, 512.0]",horizontal,"(390.0, 262.0)",[1.6666666666666667],[0.477],1,4288.796
5,False,300,0.658,39,[],[],"[(1077, 850)]",[],[1],[35],[0.5833333333333334],"[640.0, 512.0]",vertical,"(390.0, 762.0)",[1.4666666666666666],[0.542],1,4293.663
6,False,301,0.709,42,[],[],"[(1044, 881)]",[],[1],[36],[0.6],"[640.0, 512.0]",horizontal,"(890.0, 262.0)",[0.85],[0.561],1,4298.275
6,False,302,0.704,42,[],[],"[(1052, 861)]",[],[1],[42],[0.7],"[640.0, 512.0]",horizontal,"(390.0, 762.0)",[1.4333333333333333],[0.66],1,4302.291
6,False,303,0.939,56,[],[],"[(1046, 876)]",[],[1],[38],[0.6333333333333333],"[640.0, 512.0]",horizontal,"(890.0, 262.0)",[1.2],[0.596],1,4307.21
6,False,304,0.766,45,[],[],"[(1068, 870)]",[],[1],[34],[0.5666666666666667],"[640.0, 512.0]",horizontal,"(390.0, 762.0)",[1.3],[0.529],1,4311.979
6,False,305,1.155,69,[],[],"[(1053, 873)]",[],[1],[35],[0.5833333333333334],"[640.0, 512.0]",vertical,"(890.0, 262.0)",[1.3166666666666667],[0.54],1,4316.509
6,False,306,1.185,71,[],[],"[(1047, 880)]",[],[1],[51],[0.85],"[640.0, 512.0]",vertical,"(390.0, 762.0)",[1.4666666666666666],[0.804],0,4322.08
6,False,307,1.186,71,[],[],"[(1099, 865)]",[],[1],[34],[0.5666666666666667],"[640.0, 512.0]",horizontal,"(890.0, 262.0)",[0.6333333333333333],[0.527],1,4328.713
6,False,308,0.865,51,[],[],"[(1055, 870)]",[],[1],[39],[0.65],"[640.0, 512.0]",horizontal,"(390.0, 262.0)",[1.6166666666666667],[0.61],1,4334.645
6,False,309,1.176,70,[],[],"[(1056, 856)]",[],[1],[35],[0.5833333333333334],"[640.0, 512.0]",vertical,"(390.0, 762.0)",[1.45],[0.557],1,4340.528
6,False,310,0.524,31,[],[],"[(1105, 870)]",[],[1],[44],[0.7333333333333333],"[640.0, 512.0]",horizontal,"(890.0, 762.0)",[1.5],[0.687],1,4345.823
6,False,311,0.688,41,[],[],"[(1076, 857)]",[],[1],[32],[0.5333333333333333],"[640.0, 512.0]",horizontal,"(390.0, 262.0)",[1.35],[0.499],1,4350.494
6,False,312,0.5,30,[],[],"[(1058, 868)]",[],[1],[35],[0.5833333333333334],"[640.0, 512.0]",vertical,"(390.0, 262.0)",[1.35],[0.539],1,4354.996
6,False,313,0.514,30,[],[],"[(1049, 875)]",[],[1],[35],[0.5833333333333334],"[640.0, 512.0]",vertical,"(390.0, 762.0)",[0.8166666666666667],[0.544],1,4359.343
6,False,314,1.056,63,[],[],"[(1076, 873)]",[],[1],[38],[0.6333333333333333],"[640.0, 512.0]",horizontal,"(890.0, 262.0)",[0.8333333333333334],[0.591],1,4363.379
6,False,315,1.2,72,[],[],"[(1093, 869)]",[],[1],[33],[0.55],"[640.0, 512.0]",vertical,"(390.0, 262.0)",[1.1],[0.513],1,4367.967
6,False,316,0.747,44,[],[],"[(1096, 868)]",[],[1],[38],[0.6333333333333333],"[640.0, 512.0]",vertical,"(890.0, 762.0)",[1.0],[0.59],1,4372.647
6,False,317,0.888,53,[],[],"[(1063, 867)]",[],[1],[36],[0.6],"[640.0, 512.0]",vertical,"(890.0, 262.0)",[1.5666666666666667],[0.556],1,4377.097
6,False,318,0.636,38,[],[],"[(1030, 874)]",[],[1],[35],[0.5833333333333334],"[640.0, 512.0]",horizontal,"(890.0, 262.0)",[0.5833333333333334],[0.537],1,4447.063
6,False,319,0.922,55,[],[],"[(1050, 870)]",[],[1],[35],[0.5833333333333334],"[640.0, 512.0]",horizontal,"(390.0, 262.0)",[0.6333333333333333],[0.541],1,4451.113
6,False,320,0.562,33,[],[],"[(1074, 849)]",[],[1],[34],[0.5666666666666667],"[640.0, 512.0]",vertical,"(890.0, 262.0)",[0.7833333333333333],[0.526],1,4455.125
6,False,321,0.62,37,[],[],"[(1055, 851)]",[],[1],[35],[0.5833333333333334],"[640.0, 512.0]",vertical,"(390.0, 262.0)",[0.85],[0.544],1,4459.369
6,False,322,0.632,37,[],[],"[(1044, 867)]",[],[1],[37],[0.6166666666666667],"[640.0, 512.0]",vertical,"(890.0, 762.0)",[1.0666666666666667],[0.581],1,4463.219
6,False,323,1.193,71,[],[],"[(1051, 856)]",[],[1],[34],[0.5666666666666667],"[640.0, 512.0]",horizontal,"(890.0, 262.0)",[1.55],[0.53],1,4468.135
6,False,324,0.649,38,[],[],"[(1052, 837)]",[],[1],[39],[0.65],"[640.0, 512.0]",vertical,"(390.0, 762.0)",[0.7],[0.605],1,4473.363
6,False,325,0.989,59,[],[],"[(1104, 857)]",[],[1],[51],[0.85],"[640.0, 512.0]",horizontal,"(390.0, 262.0)",[0.7333333333333333],[0.806],0,4478.163
6,False,326,1.009,60,[],[],"[(1032, 884)]",[],[1],[35],[0.5833333333333334],"[640.0, 512.0]",horizontal,"(390.0, 262.0)",[1.4],[0.548],1,4482.564
6,False,327,0.863,51,[],[],"[(1097, 921)]",[],[1],[51],[0.85],"[640.0, 512.0]",horizontal,"(390.0, 262.0)",[1.4],[0.803],0,4491.748
6,False,328,0.625,37,[],[],"[(1133, 861)]",[],[1],[44],[0.7333333333333333],"[640.0, 512.0]",horizontal,"(890.0, 762.0)",[1.05],[0.693],1,4564.585
6,False,329,0.962,57,[],[],"[(1060, 880)]",[],[1],[],[],"[640.0, 512.0]",vertical,"(390.0, 762.0)",[],[0],0,4568.854
6,False,330,0.998,59,[],[],"[(1088, 894)]",[],[1],[35],[0.5833333333333334],"[640.0, 512.0]",horizontal,"(890.0, 762.0)",[0.9],[0.552],1,4573.168
6,False,331,0.887,53,[],[],"[(1087, 892)]",[],[1],[34],[0.5666666666666667],"[640.0, 512.0]",vertical,"(390.0, 762.0)",[1.0166666666666666],[0.53],1,4578.124
6,False,332,1.088,65,[],[],"[(1074, 875)]",[],[1],[35],[0.5833333333333334],"[640.0, 512.0]",vertical,"(390.0, 262.0)",[1.5833333333333333],[0.545],1,4582.459
6,False,333,0.922,55,[],[],"[(1096, 858)]",[],[1],[34],[0.5666666666666667],"[640.0, 512.0]",horizontal,"(890.0, 762.0)",[0.5666666666666667],[0.526],1,4587.729
6,False,334,0.77,46,[],[],"[(1069, 851)]",[],[1],[37],[0.6166666666666667],"[640.0, 512.0]",vertical,"(890.0, 262.0)",[1.2166666666666666],[0.571],1,4591.841
6,False,335,0.946,56,[],[],"[(1086, 872)]",[],[1],[40],[0.6666666666666666],"[640.0, 512.0]",horizontal,"(890.0, 762.0)",[0.6166666666666667],[0.621],1,4596.385
6,False,336,0.72,43,[],[],"[(1063, 893)]",[],[1],[31],[0.5166666666666666],"[640.0, 512.0]",vertical,"(890.0, 262.0)",[1.3833333333333333],[0.472],1,4600.631
6,False,337,0.711,42,[],[],"[(1116, 864)]",[],[1],[36],[0.6],"[640.0, 512.0]",vertical,"(390.0, 762.0)",[1.0166666666666666],[0.554],1,4605.262
6,False,338,0.547,32,[],[],"[(1056, 875)]",[],[1],[33],[0.55],"[640.0, 512.0]",horizontal,"(890.0, 262.0)",[1.6666666666666667],[0.514],1,4609.561
6,False,339,0.716,42,[],[],"[(1099, 871)]",[],[1],[37],[0.6166666666666667],"[640.0, 512.0]",horizontal,"(890.0, 762.0)",[0.5666666666666667],[0.573],1,4614.326
6,False,340,1.033,61,[],[],"[(1074, 870)]",[],[1],[35],[0.5833333333333334],"[640.0, 512.0]",vertical,"(390.0, 762.0)",[1.6333333333333333],[0.546],1,4618.205
6,False,341,0.929,55,[],[],"[(1099, 877)]",[],[1],[39],[0.65],"[640.0, 512.0]",horizontal,"(890.0, 762.0)",[1.3666666666666667],[0.607],1,4623.996
6,False,342,0.84,50,[],[],"[(1069, 870)]",[],[1],[39],[0.65],"[640.0, 512.0]",vertical,"(890.0, 262.0)",[0.9833333333333333],[0.607],1,4628.947
6,False,343,0.702,42,[],[4651447],"[(1073, 885)]","[(1101, 896)]",[1],[1],[0.016666666666666666],"[640.0, 512.0]",vertical,"(890.0, 262.0)",[],[0],0,4633.38
6,False,344,0.648,38,[],[],"[(1145, 900)]",[],[1],[51],[0.85],"[640.0, 512.0]",vertical,"(390.0, 262.0)",[1.2],[0.809],0,4635.724
6,False,345,0.998,59,[],[],"[(1141, 893)]",[],[1],[51],[0.85],"[640.0, 512.0]",horizontal,"(890.0, 262.0)",[1.2666666666666666],[0.8],0,5139.676
6,False,346,0.982,58,[],[],"[(1135, 890)]",[],[1],[],[],"[640.0, 512.0]",vertical,"(390.0, 262.0)",[],[0],0,5151.195
6,False,347,0.703,42,[],[],"[(1160, 901)]",[],[1],[51],[0.85],"[640.0, 512.0]",horizontal,"(390.0, 262.0)",[1.5166666666666666],[0.802],0,5154.763
6,False,348,1.174,70,[],[],"[(1135, 899)]",[],[1],[],[],"[640.0, 512.0]",vertical,"(390.0, 262.0)",[],[0],0,5160.982
6,False,349,1.178,70,[],[],"[(1130, 901)]",[],[1],[51],[0.85],"[640.0, 512.0]",vertical,"(390.0, 762.0)",[1.2333333333333334],[0.794],0,5171.159
6,False,350,0.818,49,[],[],"[(1130, 892)]",[],[1],[51],[0.85],"[640.0, 512.0]",horizontal,"(890.0, 762.0)",[1.4666666666666666],[0.798],0,5176.578
6,False,351,0.919,55,[],[],"[(1154, 902)]",[],[1],[51],[0.85],"[640.0, 512.0]",horizontal,"(890.0, 262.0)",[1.3166666666666667],[0.808],0,5183.477
6,False,352,0.865,51,[],[],"[(1158, 902)]",[],[1],[],[],"[640.0, 512.0]",vertical,"(890.0, 762.0)",[],[0],0,5191.338
6,False,353,1.04,62,[],[],"[(1090, 880)]",[],[1],[39],[0.65],"[640.0, 512.0]",vertical,"(390.0, 762.0)",[0.6666666666666666],[0.603],1,5249.844
6,False,354,0.641,38,[],[],"[(1083, 871)]",[],[1],[36],[0.6],"[640.0, 512.0]",horizontal,"(890.0, 762.0)",[1.0333333333333332],[0.559],1,5254.743
6,False,355,1.093,65,[],[],"[(1050, 882)]",[],[1],[35],[0.5833333333333334],"[640.0, 512.0]",vertical,"(890.0, 762.0)",[0.55],[0.541],1,5259.053
6,False,356,1.102,66,[],[],"[(1093, 876)]",[],[1],[32],[0.5333333333333333],"[640.0, 512.0]",vertical,"(890.0, 262.0)",[0.55],[0.489],1,5263.163
6,False,357,1.164,69,[],[],"[(1105, 884)]",[],[1],[35],[0.5833333333333334],"[640.0, 512.0]",vertical,"(390.0, 762.0)",[0.8],[0.54],1,5267.297
6,False,358,0.923,55,[],[],"[(1091, 878)]",[],[1],[36],[0.6],"[640.0, 512.0]",horizontal,"(890.0, 762.0)",[1.0],[0.557],1,5271.807
6,False,359,1.124,67,[],[],"[(1100, 862)]",[],[1],[34],[0.5666666666666667],"[640.0, 512.0]",horizontal,"(890.0, 262.0)",[0.9333333333333333],[0.527],1,5276.497
6,False,360,0.585,35,[],[],"[(1075, 864)]",[],[1],[36],[0.6],"[640.0, 512.0]",vertical,"(890.0, 762.0)",[0.9],[0.56],1,5280.968
7,False,361,0.836,50,[],[],"[(1081, 880)]",[],[1],[34],[0.5666666666666667],"[640.0, 512.0]",horizontal,"(890.0, 262.0)",[1.4666666666666666],[0.529],1,5285.083
7,False,362,1.076,64,[],[],"[(1044, 875)]",[],[1],[28],[0.4666666666666667],"[640.0, 512.0]",horizontal,"(890.0, 262.0)",[1.65],[0.425],1,5289.998
7,False,363,1.155,69,[],[],"[(1070, 863)]",[],[1],[27],[0.45],"[640.0, 512.0]",vertical,"(890.0, 262.0)",[1.2166666666666666],[0.411],1,5296.098
7,False,364,1.002,60,[],[],"[(1093, 856)]",[],[1],[29],[0.48333333333333334],"[640.0, 512.0]",vertical,"(390.0, 262.0)",[1.4666666666666666],[0.456],1,5300.962
7,False,365,0.65,39,[],[],"[(1063, 872)]",[],[1],[34],[0.5666666666666667],"[640.0, 512.0]",vertical,"(890.0, 762.0)",[1.6166666666666667],[0.525],1,5305.858
7,False,366,1.103,66,[],[],"[(1098, 880)]",[],[1],[44],[0.7333333333333333],"[640.0, 512.0]",horizontal,"(390.0, 262.0)",[1.05],[0.7],1,5310.769
7,False,367,0.945,56,[],[],"[(1075, 872)]",[],[1],[23],[0.3833333333333333],"[640.0, 512.0]",horizontal,"(390.0, 262.0)",[1.4166666666666667],[0.346],1,5315.585
7,False,368,0.877,52,[],[],"[(1090, 859)]",[],[1],[46],[0.7666666666666666],"[640.0, 512.0]",vertical,"(390.0, 262.0)",[1.3666666666666667],[0.721],1,5320.485
7,False,369,1.071,64,[],[],"[(1065, 878)]",[],[1],[41],[0.6833333333333333],"[640.0, 512.0]",vertical,"(390.0, 762.0)",[1.1166666666666667],[0.64],1,5325.338
7,False,370,0.932,55,[],[],"[(1076, 869)]",[],[1],[35],[0.5833333333333334],"[640.0, 512.0]",vertical,"(390.0, 762.0)",[0.5833333333333334],[0.547],1,5330.255
7,False,371,1.133,67,[],[],"[(1074, 880)]",[],[1],[35],[0.5833333333333334],"[640.0, 512.0]",vertical,"(390.0, 762.0)",[0.6],[0.542],1,5334.32
7,False,372,1.068,64,[],[],"[(1038, 857)]",[],[1],[46],[0.7666666666666666],"[640.0, 512.0]",vertical,"(390.0, 762.0)",[0.5166666666666666],[0.729],1,5338.629
7,False,373,0.816,48,[],[],"[(1108, 853)]",[],[1],[34],[0.5666666666666667],"[640.0, 512.0]",horizontal,"(390.0, 262.0)",[1.5333333333333332],[0.529],1,5342.941
7,False,374,0.886,53,[],[],"[(1099, 882)]",[],[1],[36],[0.6],"[640.0, 512.0]",vertical,"(890.0, 762.0)",[1.6166666666666667],[0.561],1,5347.782
7,False,375,0.768,46,[],[],"[(1069, 876)]",[],[1],[44],[0.7333333333333333],"[640.0, 512.0]",horizontal,"(890.0, 762.0)",[1.3833333333333333],[0.685],1,5352.843
7,False,376,0.927,55,[],[],"[(1080, 872)]",[],[1],[34],[0.5666666666666667],"[640.0, 512.0]",vertical,"(390.0, 762.0)",[1.4666666666666666],[0.526],1,5358.294
7,False,377,0.662,39,[],[],"[(1089, 875)]",[],[1],[39],[0.65],"[640.0, 512.0]",vertical,"(890.0, 262.0)",[1.3],[0.613],1,5363.378
7,False,378,0.749,44,[],[],"[(1092, 880)]",[],[1],[35],[0.5833333333333334],"[640.0, 512.0]",vertical,"(890.0, 762.0)",[0.6166666666666667],[0.539],1,5367.97
7,False,379,0.646,38,[],[],"[(1078, 882)]",[],[1],[35],[0.5833333333333334],"[640.0, 512.0]",horizontal,"(390.0, 762.0)",[0.55],[0.543],1,5371.914
7,False,380,1.178,70,[],[],"[(1086, 864)]",[],[1],[44],[0.7333333333333333],"[640.0, 512.0]",vertical,"(390.0, 762.0)",[1.4166666666666667],[0.687],1,5375.651
7,False,381,0.512,30,[],[],"[(1070, 882)]",[],[1],[34],[0.5666666666666667],"[640.0, 512.0]",horizontal,"(390.0, 262.0)",[1.2],[0.53],1,5380.799
7,False,382,0.681,40,[],[],"[(1075, 870)]",[],[1],[40],[0.6666666666666666],"[640.0, 512.0]",horizontal,"(390.0, 762.0)",[0.65],[0.627],1,5385.266
7,False,383,0.774,46,[],[],"[(1042, 875)]",[],[1],[39],[0.65],"[640.0, 512.0]",horizontal,"(390.0, 262.0)",[0.8],[0.612],1,5389.1
7,False,384,0.569,34,[],[],"[(1086, 877)]",[],[1],[34],[0.5666666666666667],"[640.0, 512.0]",horizontal,"(390.0, 762.0)",[0.9666666666666667],[0.527],1,5393.582
7,False,385,0.663,39,[],[],"[(1077, 860)]",[],[1],[35],[0.5833333333333334],"[640.0, 512.0]",horizontal,"(890.0, 762.0)",[0.9333333333333333],[0.542],1,5397.655
7,False,386,0.999,59,[],[],"[(1095, 867)]",[],[1],[48],[0.8],"[640.0, 512.0]",horizontal,"(390.0, 262.0)",[1.4],[0.75],1,5401.775
7,False,387,0.884,53,[],[],"[(1087, 864)]",[],[1],[36],[0.6],"[640.0, 512.0]",vertical,"(390.0, 262.0)",[1.2333333333333334],[0.555],1,5406.893
7,False,388,0.666,39,[],[],"[(1085, 880)]",[],[1],[36],[0.6],"[640.0, 512.0]",horizontal,"(390.0, 762.0)",[0.7833333333333333],[0.554],1,5411.491
7,False,389,0.836,50,[],[],"[(1044, 870)]",[],[1],[43],[0.7166666666666667],"[640.0, 512.0]",vertical,"(890.0, 762.0)",[0.6833333333333333],[0.671],1,5415.576
7,False,390,1.045,62,[],[],"[(1074, 862)]",[],[1],[33],[0.55],"[640.0, 512.0]",vertical,"(390.0, 762.0)",[1.45],[0.507],1,5419.928
7,False,391,0.91,54,[],[],"[(1087, 889)]",[],[1],[39],[0.65],"[640.0, 512.0]",vertical,"(890.0, 262.0)",[0.6666666666666666],[0.614],1,5424.812
7,False,392,1.096,65,[],[],"[(1087, 865)]",[],[1],[41],[0.6833333333333333],"[640.0, 512.0]",vertical,"(890.0, 762.0)",[1.7],[0.643],1,5429.098
7,False,393,0.57,34,[],[],"[(1042, 868)]",[],[1],[35],[0.5833333333333334],"[640.0, 512.0]",vertical,"(890.0, 762.0)",[0.9166666666666666],[0.541],1,5434.498
7,False,394,0.565,33,[],[],"[(1090, 876)]",[],[1],[37],[0.6166666666666667],"[640.0, 512.0]",vertical,"(390.0, 762.0)",[0.55],[0.576],1,5438.496
7,False,395,1.029,61,[],[],"[(1075, 858)]",[],[1],[34],[0.5666666666666667],"[640.0, 512.0]",horizontal,"(390.0, 762.0)",[0.8833333333333333],[0.531],1,5443.316
7,False,396,0.511,30,[],[],"[(1086, 872)]",[],[1],[39],[0.65],"[640.0, 512.0]",horizontal,"(390.0, 262.0)",[1.0],[0.613],1,5447.745
7,False,397,0.901,54,[],[],"[(1113, 892)]",[],[1],[35],[0.5833333333333334],"[640.0, 512.0]",horizontal,"(890.0, 262.0)",[1.05],[0.543],1,5451.768
7,False,398,0.559,33,[],[],"[(1110, 875)]",[],[1],[36],[0.6],"[640.0, 512.0]",vertical,"(390.0, 762.0)",[0.5833333333333334],[0.558],1,6440.126
7,False,399,0.786,47,[],[],"[(1050, 866)]",[],[1],[41],[0.6833333333333333],"[640.0, 512.0]",horizontal,"(890.0, 762.0)",[1.5833333333333333],[0.642],1,6444.509
7,False,400,1.079,64,[],[],"[(1046, 875)]",[],[1],[35],[0.5833333333333334],"[640.0, 512.0]",vertical,"(390.0, 762.0)",[1.4166666666666667],[0.542],1,6449.621
7,False,401,0.653,39,[],[],"[(1054, 868)]",[],[1],[35],[0.5833333333333334],"[640.0, 512.0]",horizontal,"(890.0, 762.0)",[1.5333333333333332],[0.537],1,6454.535
7,False,402,0.977,58,[],[],"[(1093, 859)]",[],[1],[34],[0.5666666666666667],"[640.0, 512.0]",horizontal,"(890.0, 762.0)",[1.2666666666666666],[0.523],1,6459.213
7,False,403,1.186,71,[],[],"[(1069, 867)]",[],[1],[34],[0.5666666666666667],"[640.0, 512.0]",vertical,"(390.0, 762.0)",[1.1166666666666667],[0.523],1,6464.08
7,False,404,0.665,39,[],[],"[(1050, 838)]",[],[1],[40],[0.6666666666666666],"[640.0, 512.0]",horizontal,"(390.0, 762.0)",[0.9166666666666666],[0.626],1,6468.863
7,False,405,0.851,51,[],[],"[(1075, 878)]",[],[1],[33],[0.55],"[640.0, 512.0]",vertical,"(390.0, 762.0)",[1.0666666666666667],[0.509],1,6473.089
7,False,406,0.547,32,[],[],"[(1072, 877)]",[],[1],[40],[0.6666666666666666],"[640.0, 512.0]",vertical,"(890.0, 262.0)",[0.6666666666666666],[0.623],1,6477.539
7,False,407,0.948,56,[],[],"[(1049, 861)]",[],[1],[33],[0.55],"[640.0, 512.0]",vertical,"(890.0, 762.0)",[1.35],[0.515],1,6481.378
7,False,408,1.036,62,[],[],"[(1032, 881)]",[],[1],[30],[0.5],"[640.0, 512.0]",vertical,"(890.0, 262.0)",[0.9166666666666666],[0.458],1,6486.105
7,False,409,1.195,71,[],[],"[(1087, 868)]",[],[1],[32],[0.5333333333333333],"[640.0, 512.0]",vertical,"(890.0, 262.0)",[1.0166666666666666],[0.49],1,6490.736
7,False,410,0.905,54,[],[],"[(1081, 883)]",[],[1],[34],[0.5666666666666667],"[640.0, 512.0]",vertical,"(890.0, 262.0)",[1.0],[0.525],1,6495.456
7,False,411,0.548,32,[],[],"[(1093, 887)]",[],[1],[36],[0.6],"[640.0, 512.0]",vertical,"(390.0, 262.0)",[1.6833333333333333],[0.555],1,6499.82
7,False,412,0.628,37,[],[],"[(1028, 863), (1123, 870)]",[],"[0, 1]",[51],[0.85],"[640.0, 512.0]",vertical,"(390.0, 262.0)",[1.0],[0.797],0,6504.538
7,False,413,0.996,59,[],[],"[(1148, 865)]",[],[1],[38],[0.6333333333333333],"[640.0, 512.0]",vertical,"(890.0, 762.0)",[1.3166666666666667],[0.591],1,6511.301
7,False,414,0.703,42,[],[],"[(1108, 861)]",[],[1],[26],[0.43333333333333335],"[640.0, 512.0]",vertical,"(390.0, 262.0)",[1.6333333333333333],[0.393],1,6516.23
7,False,415,0.577,34,[],[],"[(1073, 863)]",[],[1],[32],[0.5333333333333333],"[640.0, 512.0]",horizontal,"(890.0, 262.0)",[1.4166666666666667],[0.488],1,6520.971
7,False,416,0.657,39,[],[],"[(1107, 875)]",[],[1],[39],[0.65],"[640.0, 512.0]",horizontal,"(890.0, 762.0)",[1.4666666666666666],[0.61],1,6525.435
7,False,417,0.667,40,[],[],"[(1074, 873)]",[],[1],[],[],"[640.0, 512.0]",vertical,"(890.0, 262.0)",[],[0],0,6530.141
7,False,418,0.812,48,[],[],"[(1073, 859)]",[],[1],[34],[0.5666666666666667],"[640.0, 512.0]",vertical,"(390.0, 262.0)",[0.9166666666666666],[0.52],1,6534.274
7,False,419,0.905,54,[],[],"[(1099, 874)]",[],[1],[37],[0.6166666666666667],"[640.0, 512.0]",horizontal,"(390.0, 762.0)",[0.6333333333333333],[0.574],1,6538.728
7,False,420,1.085,65,[],[],"[(1062, 875)]",[],[1],[19],[0.31666666666666665],"[640.0, 512.0]",vertical,"(890.0, 262.0)",[1.6166666666666667],[0.282],1,6542.853
8,False,421,1.19,71,[],[],"[(1049, 856)]",[],[1],[],[],"[640.0, 512.0]",vertical,"(390.0, 262.0)",[],[0],0,6547.878
8,False,422,0.655,39,[],[],"[(1063, 856)]",[],[1],[22],[0.36666666666666664],"[640.0, 512.0]",vertical,"(390.0, 762.0)",[1.5166666666666666],[0.326],1,6604.92
8,False,423,1.114,66,[],[],"[(1091, 832)]",[],[1],[25],[0.4166666666666667],"[640.0, 512.0]",vertical,"(390.0, 262.0)",[1.3666666666666667],[0.374],1,6610.077
8,False,424,0.535,32,[],[],"[(208, 734), (1035, 897)]",[],"[0, 1]",[34],[0.5666666666666667],"[640.0, 512.0]",vertical,"(890.0, 762.0)",[1.55],[0.521],1,6621.502
8,False,425,0.554,33,[],[],"[(1091, 867)]",[],[1],[34],[0.5666666666666667],"[640.0, 512.0]",horizontal,"(390.0, 262.0)",[0.8166666666666667],[0.522],1,7706.724
8,False,426,0.536,32,[],[],"[(1046, 846)]",[],[1],[33],[0.55],"[640.0, 512.0]",vertical,"(890.0, 762.0)",[1.3666666666666667],[0.505],1,7710.712
8,False,427,0.895,53,[],[],"[(1072, 881)]",[],[1],[33],[0.55],"[640.0, 512.0]",vertical,"(890.0, 762.0)",[0.85],[0.507],1,7715.027
8,False,428,1.076,64,[],[],"[(1073, 880)]",[],[1],[31],[0.5166666666666666],"[640.0, 512.0]",vertical,"(390.0, 262.0)",[1.4833333333333334],[0.478],1,7719.29
8,False,429,1.193,71,[],[],"[(1026, 870), (1117, 883)]",[],"[0, 1]",[33],[0.55],"[640.0, 512.0]",vertical,"(890.0, 262.0)",[1.3166666666666667],[0.512],1,7724.279
8,False,430,0.716,42,[],[],"[(1075, 859)]",[],[1],[37],[0.6166666666666667],"[640.0, 512.0]",vertical,"(890.0, 262.0)",[1.0333333333333332],[0.571],1,7744.4
8,False,431,0.619,37,[],[],"[(1032, 880)]",[],[1],[32],[0.5333333333333333],"[640.0, 512.0]",horizontal,"(390.0, 262.0)",[1.25],[0.495],1,7748.747
8,False,432,1.086,65,[],[],"[(1030, 876)]",[],[1],[36],[0.6],"[640.0, 512.0]",vertical,"(890.0, 762.0)",[0.5],[0.554],1,7754.374
8,False,433,0.821,49,[],[],"[(1066, 883)]",[],[1],[34],[0.5666666666666667],"[640.0, 512.0]",horizontal,"(890.0, 762.0)",[1.4],[0.523],1,7758.5
8,False,434,1.144,68,[],[],"[(1026, 857), (1099, 866)]",[],"[0, 1]",[39],[0.65],"[640.0, 512.0]",horizontal,"(890.0, 762.0)",[1.65],[0.6],1,7763.173
8,False,435,0.834,50,[],[],"[(1052, 866)]",[],[1],[32],[0.5333333333333333],"[640.0, 512.0]",vertical,"(890.0, 262.0)",[1.5333333333333332],[0.491],1,7770.592
8,False,436,0.895,53,[],[],"[(1026, 851), (1161, 875)]",[],"[0, 1]",[34],[0.5666666666666667],"[640.0, 512.0]",horizontal,"(390.0, 262.0)",[1.5666666666666667],[0.529],1,7775.504
8,False,437,0.512,30,[],[],"[(1052, 874)]",[],[1],[32],[0.5333333333333333],"[640.0, 512.0]",vertical,"(390.0, 262.0)",[0.9833333333333333],[0.491],1,7782.035
8,False,438,0.633,37,[],[],"[(1117, 867)]",[],[1],[36],[0.6],"[640.0, 512.0]",horizontal,"(390.0, 262.0)",[0.55],[0.555],1,7786.017
8,False,439,0.798,47,[],[],"[(996, 855), (1129, 869)]",[],"[0, 1]",[43],[0.7166666666666667],"[640.0, 512.0]",vertical,"(890.0, 262.0)",[1.2333333333333334],[0.67],1,7789.7
8,False,440,1.126,67,[],[],"[(1080, 883)]",[],[1],[43],[0.7166666666666667],"[640.0, 512.0]",vertical,"(890.0, 262.0)",[0.9666666666666667],[0.669],1,7796.071
8,False,441,0.944,56,[],[],"[(1083, 889)]",[],[1],[35],[0.5833333333333334],"[640.0, 512.0]",vertical,"(390.0, 262.0)",[1.4333333333333333],[0.541],1,7800.686
8,False,442,0.533,31,[],[],"[(1057, 889)]",[],[1],[36],[0.6],"[640.0, 512.0]",vertical,"(890.0, 262.0)",[1.3666666666666667],[0.559],1,7805.508
8,False,443,1.163,69,[],[],"[(1076, 885)]",[],[1],[35],[0.5833333333333334],"[640.0, 512.0]",horizontal,"(890.0, 262.0)",[0.9166666666666666],[0.536],1,7810.073
8,False,444,0.795,47,[],[],"[(1085, 856)]",[],[1],[36],[0.6],"[640.0, 512.0]",horizontal,"(890.0, 762.0)",[0.7833333333333333],[0.556],1,7814.746
8,False,445,0.915,54,[],[],"[(1082, 897)]",[],[1],[37],[0.6166666666666667],"[640.0, 512.0]",horizontal,"(890.0, 262.0)",[1.05],[0.57],1,7818.873
8,False,446,1.082,64,[],[],"[(1080, 893)]",[],[1],[33],[0.55],"[640.0, 512.0]",vertical,"(390.0, 262.0)",[1.6333333333333333],[0.509],1,7823.458
8,False,447,0.659,39,[],[],"[(1081, 902)]",[],[1],[36],[0.6],"[640.0, 512.0]",horizontal,"(390.0, 262.0)",[1.3],[0.554],1,7828.686
8,False,448,1.131,67,[],[],"[(1085, 881)]",[],[1],[38],[0.6333333333333333],"[640.0, 512.0]",vertical,"(890.0, 762.0)",[0.6333333333333333],[0.592],1,7833.302
8,False,449,0.655,39,[],[],"[(1077, 866)]",[],[1],[37],[0.6166666666666667],"[640.0, 512.0]",horizontal,"(890.0, 762.0)",[1.6166666666666667],[0.572],1,7837.539
8,False,450,0.604,36,[],[],"[(1082, 870)]",[],[1],[37],[0.6166666666666667],"[640.0, 512.0]",horizontal,"(890.0, 762.0)",[1.15],[0.574],1,7842.255
8,False,451,1.112,66,[],[],"[(1093, 890)]",[],[1],[36],[0.6],"[640.0, 512.0]",vertical,"(390.0, 762.0)",[1.4666666666666666],[0.561],1,7846.557
8,False,452,0.871,52,[],[],"[(1089, 862)]",[],[1],[36],[0.6],"[640.0, 512.0]",horizontal,"(390.0, 762.0)",[1.2333333333333334],[0.554],1,7851.621
8,False,453,1.189,71,[],[],"[(1076, 879)]",[],[1],[34],[0.5666666666666667],"[640.0, 512.0]",vertical,"(390.0, 262.0)",[1.05],[0.524],1,7856.158
8,False,454,1.18,70,[],[],"[(1059, 861)]",[],[1],[35],[0.5833333333333334],"[640.0, 512.0]",vertical,"(390.0, 262.0)",[0.7],[0.535],1,7861.189
8,False,455,0.664,39,[],[],"[(1056, 887)]",[],[1],[36],[0.6],"[640.0, 512.0]",vertical,"(390.0, 262.0)",[0.7166666666666667],[0.554],1,7865.539
8,False,456,0.754,45,[],[],"[(1080, 881)]",[],[1],[33],[0.55],"[640.0, 512.0]",horizontal,"(890.0, 262.0)",[1.4166666666666667],[0.506],1,7869.368
8,False,457,0.746,44,[],[],"[(1050, 876)]",[],[1],[37],[0.6166666666666667],"[640.0, 512.0]",vertical,"(390.0, 762.0)",[0.6],[0.581],1,7873.985
8,False,458,0.607,36,[],[],"[(1093, 887)]",[],[1],[36],[0.6],"[640.0, 512.0]",horizontal,"(890.0, 762.0)",[1.5833333333333333],[0.557],1,7877.868
8,False,459,0.977,58,[],[],"[(1077, 874)]",[],[1],[51],[0.85],"[640.0, 512.0]",vertical,"(390.0, 762.0)",[1.3],[0.8],0,7882.639
8,False,460,0.604,36,[],[],"[(1101, 866)]",[],[1],[51],[0.85],"[640.0, 512.0]",vertical,"(390.0, 262.0)",[0.5],[0.798],0,7888.973
8,False,461,1.121,67,[],[],"[(1135, 877)]",[],[1],[35],[0.5833333333333334],"[640.0, 512.0]",vertical,"(890.0, 762.0)",[1.6166666666666667],[0.545],1,7893.011
8,False,462,0.605,36,[],[],"[(1064, 879)]",[],[1],[51],[0.85],"[640.0, 512.0]",vertical,"(390.0, 762.0)",[1.5],[0.796],0,7898.15
8,False,463,1.098,65,[],[],"[(1123, 896)]",[],[1],[31],[0.5166666666666666],"[640.0, 512.0]",horizontal,"(890.0, 262.0)",[1.2666666666666666],[0.474],1,7903.155
8,False,464,0.899,53,[],[],"[(1087, 877)]",[],[1],[47],[0.7833333333333333],"[640.0, 512.0]",vertical,"(890.0, 262.0)",[1.1666666666666667],[0.737],1,7939.132
8,False,465,1.01,60,[],[],"[(1099, 875)]",[],[1],[37],[0.6166666666666667],"[640.0, 512.0]",vertical,"(890.0, 262.0)",[1.05],[0.574],1,7943.791
8,False,466,0.839,50,[],[],"[(1080, 854)]",[],[1],[33],[0.55],"[640.0, 512.0]",horizontal,"(390.0, 262.0)",[0.8666666666666667],[0.51],1,7950.272
8,False,467,1.182,70,[],[],"[(1099, 872)]",[],[1],[4],[0.06666666666666667],"[640.0, 512.0]",vertical,"(890.0, 262.0)",[1.2166666666666666],[0.037],1,7955.559
8,False,468,1.029,61,[],[],"[(1093, 883)]",[],[1],[33],[0.55],"[640.0, 512.0]",vertical,"(890.0, 262.0)",[0.6166666666666667],[0.511],1,7960.036
8,False,469,0.576,34,[],[],"[(1093, 859)]",[],[1],[36],[0.6],"[640.0, 512.0]",horizontal,"(390.0, 262.0)",[1.4166666666666667],[0.558],1,7964.189
8,False,470,0.756,45,[],[],"[(1107, 876)]",[],[1],[36],[0.6],"[640.0, 512.0]",horizontal,"(890.0, 762.0)",[0.8333333333333334],[0.557],1,7968.604
8,False,471,1.161,69,[],[],"[(1103, 876)]",[],[1],[33],[0.55],"[640.0, 512.0]",vertical,"(390.0, 762.0)",[1.3],[0.507],1,7972.597
8,False,472,0.774,46,[],[],"[(1093, 880)]",[],[1],[34],[0.5666666666666667],"[640.0, 512.0]",horizontal,"(890.0, 762.0)",[1.55],[0.529],1,7977.595
8,False,473,0.675,40,[],[],"[(1118, 882)]",[],[1],[36],[0.6],"[640.0, 512.0]",horizontal,"(390.0, 762.0)",[0.85],[0.554],1,7982.437
8,False,474,0.937,56,[],[],"[(1097, 861)]",[],[1],[43],[0.7166666666666667],"[640.0, 512.0]",horizontal,"(890.0, 762.0)",[1.0666666666666667],[0.672],1,7986.585
8,False,475,0.729,43,[],[],"[(1109, 884)]",[],[1],[35],[0.5833333333333334],"[640.0, 512.0]",horizontal,"(890.0, 762.0)",[1.6166666666666667],[0.539],1,7991.242
8,False,476,1.088,65,[],[],"[(1080, 865)]",[],[1],[34],[0.5666666666666667],"[640.0, 512.0]",horizontal,"(390.0, 762.0)",[1.05],[0.528],1,7996.054
8,False,477,0.852,51,[],[],"[(1080, 886)]",[],[1],[37],[0.6166666666666667],"[640.0, 512.0]",vertical,"(390.0, 762.0)",[0.7333333333333333],[0.569],1,8000.691
8,False,478,0.633,37,[],[],"[(1026, 882), (1163, 880)]",[],"[0, 1]",[29],[0.48333333333333334],"[640.0, 512.0]",vertical,"(890.0, 262.0)",[1.4666666666666666],[0.439],1,8004.903
8,False,479,0.819,49,[],[],"[(1093, 877)]",[],[1],[33],[0.55],"[640.0, 512.0]",vertical,"(390.0, 762.0)",[0.8333333333333334],[0.509],1,8013.125
8,False,480,1.005,60,[],[],"[(1107, 864)]",[],[1],[36],[0.6],"[640.0, 512.0]",horizontal,"(390.0, 262.0)",[0.6333333333333333],[0.554],1,8017.174
9,False,481,1.173,70,[],[],"[(1094, 873)]",[],[1],[40],[0.6666666666666666],"[640.0, 512.0]",horizontal,"(390.0, 262.0)",[1.35],[0.622],1,8021.238
9,False,482,1.192,71,[],[],"[(1076, 874)]",[],[1],[35],[0.5833333333333334],"[640.0, 512.0]",vertical,"(890.0, 262.0)",[1.0666666666666667],[0.545],1,8026.304
9,False,483,0.719,43,[],[],"[(1074, 885)]",[],[1],[35],[0.5833333333333334],"[640.0, 512.0]",horizontal,"(890.0, 762.0)",[0.7666666666666666],[0.541],1,8031.187
9,False,484,0.529,31,[],[],"[(1092, 879)]",[],[1],[36],[0.6],"[640.0, 512.0]",vertical,"(890.0, 762.0)",[1.45],[0.554],1,8035.208
9,False,485,0.928,55,[],[],"[(1034, 855)]",[],[1],[38],[0.6333333333333333],"[640.0, 512.0]",horizontal,"(390.0, 262.0)",[0.7666666666666666],[0.59],1,8039.621
9,False,486,0.84,50,[],[],"[(1081, 865)]",[],[1],[40],[0.6666666666666666],"[640.0, 512.0]",horizontal,"(390.0, 262.0)",[0.65],[0.622],1,8044.157
9,False,487,0.652,39,[],[],"[(1070, 868)]",[],[1],[45],[0.75],"[640.0, 512.0]",vertical,"(890.0, 762.0)",[0.9333333333333333],[0.706],1,8048.405
9,False,488,0.858,51,[],[],"[(1115, 862)]",[],[1],[33],[0.55],"[640.0, 512.0]",horizontal,"(890.0, 762.0)",[0.75],[0.517],1,8052.773
9,False,489,0.686,41,[],[],"[(1116, 875)]",[],[1],[51],[0.85],"[640.0, 512.0]",horizontal,"(390.0, 762.0)",[0.55],[0.803],0,8056.842
9,False,490,0.737,44,[],[],"[(1115, 881)]",[],[1],[43],[0.7166666666666667],"[640.0, 512.0]",vertical,"(890.0, 262.0)",[1.35],[0.67],1,8060.98
9,False,491,1.081,64,[],[],"[(1076, 862)]",[],[1],[37],[0.6166666666666667],"[640.0, 512.0]",vertical,"(890.0, 262.0)",[1.1],[0.576],1,8069.091
9,False,492,0.946,56,[],[],"[(1099, 886)]",[],[1],[34],[0.5666666666666667],"[640.0, 512.0]",vertical,"(390.0, 262.0)",[0.5333333333333333],[0.521],1,8073.77
9,False,493,0.521,31,[],[],"[(1111, 866)]",[],[1],[43],[0.7166666666666667],"[640.0, 512.0]",horizontal,"(890.0, 762.0)",[1.55],[0.664],1,8077.712
9,False,494,0.946,56,[],[],"[(1093, 865)]",[],[1],[36],[0.6],"[640.0, 512.0]",horizontal,"(390.0, 262.0)",[1.1333333333333333],[0.564],1,8082.457
9,False,495,0.916,54,[],[],"[(1106, 892)]",[],[1],[36],[0.6],"[640.0, 512.0]",vertical,"(390.0, 762.0)",[1.15],[0.557],1,8089.258
9,False,496,0.876,52,[],[],"[(1093, 886)]",[],[1],[35],[0.5833333333333334],"[640.0, 512.0]",vertical,"(390.0, 262.0)",[0.7166666666666667],[0.538],1,8093.976
9,False,497,0.685,41,[],[],"[(1097, 886)]",[],[1],[35],[0.5833333333333334],"[640.0, 512.0]",vertical,"(390.0, 762.0)",[0.85],[0.542],1,8098.124
9,False,498,0.66,39,[],[],"[(1099, 872)]",[],[1],[37],[0.6166666666666667],"[640.0, 512.0]",vertical,"(890.0, 262.0)",[1.1166666666666667],[0.574],1,8102.29
9,False,499,1.142,68,[],[],"[(1093, 895)]",[],[1],[33],[0.55],"[640.0, 512.0]",vertical,"(390.0, 262.0)",[1.1],[0.514],1,8106.508
9,False,500,0.896,53,[],[],"[(1042, 899)]",[],[1],[36],[0.6],"[640.0, 512.0]",vertical,"(890.0, 262.0)",[0.5333333333333333],[0.554],1,8111.271
9,False,501,0.551,33,[],[],"[(1080, 865)]",[],[1],[39],[0.65],"[640.0, 512.0]",horizontal,"(890.0, 262.0)",[0.7666666666666666],[0.601],1,8115.174
9,False,502,0.639,38,[],[],"[(1118, 879)]",[],[1],[39],[0.65],"[640.0, 512.0]",vertical,"(890.0, 762.0)",[1.5],[0.608],1,8119.029
9,False,503,1.142,68,[],[],"[(1085, 876)]",[],[1],[40],[0.6666666666666666],"[640.0, 512.0]",horizontal,"(890.0, 262.0)",[1.0666666666666667],[0.621],1,8123.754
9,False,504,0.53,31,[],[],"[(1045, 880)]",[],[1],[38],[0.6333333333333333],"[640.0, 512.0]",vertical,"(390.0, 762.0)",[1.4666666666666666],[0.591],1,8128.508
9,False,505,0.54,32,[],[],"[(1109, 879)]",[],[1],[34],[0.5666666666666667],"[640.0, 512.0]",horizontal,"(390.0, 262.0)",[1.25],[0.525],1,8133.065
9,False,506,0.573,34,[],[],"[(1056, 870)]",[],[1],[35],[0.5833333333333334],"[640.0, 512.0]",horizontal,"(890.0, 262.0)",[1.6833333333333333],[0.54],1,8137.29
9,False,507,0.507,30,[],[],"[(1099, 885)]",[],[1],[36],[0.6],"[640.0, 512.0]",vertical,"(890.0, 262.0)",[1.0833333333333333],[0.557],1,8142.099
9,False,508,0.782,46,[],[],"[(1081, 880)]",[],[1],[35],[0.5833333333333334],"[640.0, 512.0]",vertical,"(890.0, 262.0)",[1.5333333333333332],[0.542],1,8146.25
9,False,509,0.982,58,[],[],"[(1102, 870)]",[],[1],[34],[0.5666666666666667],"[640.0, 512.0]",horizontal,"(890.0, 262.0)",[0.9666666666666667],[0.532],1,8151.025
9,False,510,0.52,31,[],[],"[(1106, 879)]",[],[1],[34],[0.5666666666666667],"[640.0, 512.0]",horizontal,"(390.0, 762.0)",[1.5833333333333333],[0.526],1,8155.459
9,False,511,0.976,58,[],[],"[(1099, 856)]",[],[1],[35],[0.5833333333333334],"[640.0, 512.0]",horizontal,"(390.0, 262.0)",[0.9166666666666666],[0.549],1,8160.125
9,False,512,0.641,38,[],[],"[(1113, 871)]",[],[1],[35],[0.5833333333333334],"[640.0, 512.0]",vertical,"(390.0, 262.0)",[0.65],[0.541],1,8164.502
9,False,513,1.094,65,[],[],"[(1093, 884)]",[],[1],[36],[0.6],"[640.0, 512.0]",vertical,"(390.0, 762.0)",[1.5333333333333332],[0.558],1,8168.382
9,False,514,0.819,49,[],[],"[(1078, 885)]",[],[1],[34],[0.5666666666666667],"[640.0, 512.0]",horizontal,"(890.0, 762.0)",[1.2166666666666666],[0.523],1,8173.505
9,False,515,0.972,58,[],[],"[(1087, 868)]",[],[1],[45],[0.75],"[640.0, 512.0]",vertical,"(890.0, 762.0)",[1.3333333333333333],[0.704],1,8178.035
9,False,516,0.519,31,[],[],"[(1029, 888), (1123, 885)]",[],"[0, 1]",[42],[0.7],"[640.0, 512.0]",vertical,"(890.0, 762.0)",[0.55],[0.656],1,8182.956
9,False,517,0.969,58,[],[],"[(1096, 881)]",[],[1],[35],[0.5833333333333334],"[640.0, 512.0]",horizontal,"(890.0, 762.0)",[1.35],[0.542],1,8188.636
9,False,518,1.13,67,[],[],"[(1080, 875)]",[],[1],[34],[0.5666666666666667],"[640.0, 512.0]",vertical,"(890.0, 262.0)",[1.05],[0.525],1,8193.542
9,False,519,0.676,40,[],[],"[(1080, 889)]",[],[1],[32],[0.5333333333333333],"[640.0, 512.0]",horizontal,"(390.0, 262.0)",[1.4666666666666666],[0.494],1,8198.236
9,False,520,0.688,41,[],[],"[(1118, 868)]",[],[1],[34],[0.5666666666666667],"[640.0, 512.0]",vertical,"(390.0, 262.0)",[1.1],[0.522],1,8202.839
9,False,521,0.682,40,[],[],"[(1096, 897)]",[],[1],[33],[0.55],"[640.0, 512.0]",horizontal,"(890.0, 262.0)",[1.5166666666666666],[0.507],1,8207.187
9,False,522,0.994,59,[],[],"[(1111, 877)]",[],[1],[35],[0.5833333333333334],"[640.0, 512.0]",horizontal,"(390.0, 262.0)",[0.7166666666666667],[0.538],1,8212.002
9,False,523,0.86,51,[],[],"[(1117, 878)]",[],[1],[34],[0.5666666666666667],"[640.0, 512.0]",horizontal,"(390.0, 762.0)",[1.2833333333333332],[0.524],1,8216.242
9,False,524,1.107,66,[],[],"[(1083, 855)]",[],[1],[35],[0.5833333333333334],"[640.0, 512.0]",vertical,"(890.0, 762.0)",[1.3666666666666667],[0.545],1,8220.937
9,False,525,0.728,43,[],[],"[(1026, 880), (1110, 870)]",[],"[0, 1]",[34],[0.5666666666666667],"[640.0, 512.0]",vertical,"(390.0, 762.0)",[1.4333333333333333],[0.532],1,8225.827
9,False,526,1.154,69,[],[],"[(1082, 850)]",[],[1],[38],[0.6333333333333333],"[640.0, 512.0]",horizontal,"(390.0, 262.0)",[0.85],[0.595],1,8235.44
9,False,527,1.061,63,[],[],"[(1093, 850)]",[],[1],[36],[0.6],"[640.0, 512.0]",horizontal,"(890.0, 762.0)",[0.8333333333333334],[0.562],1,8240.002
9,False,528,0.972,58,[],[],"[(1087, 884)]",[],[1],[32],[0.5333333333333333],"[640.0, 512.0]",vertical,"(390.0, 762.0)",[0.8333333333333334],[0.493],1,8244.42
9,False,529,1.101,66,[],[],"[(1053, 851)]",[],[1],[37],[0.6166666666666667],"[640.0, 512.0]",vertical,"(890.0, 762.0)",[1.4333333333333333],[0.571],1,8248.657
9,False,530,0.651,39,[],[],"[(1084, 854)]",[],[1],[35],[0.5833333333333334],"[640.0, 512.0]",horizontal,"(390.0, 262.0)",[1.5166666666666666],[0.542],1,8253.607
9,False,531,0.681,40,[],[],"[(1080, 884)]",[],[1],[46],[0.7666666666666666],"[640.0, 512.0]",vertical,"(390.0, 262.0)",[1.5166666666666666],[0.716],1,8258.34
9,False,532,0.783,46,[],[],"[(1113, 883)]",[],[1],[37],[0.6166666666666667],"[640.0, 512.0]",horizontal,"(890.0, 762.0)",[1.5333333333333332],[0.57],1,8263.304
9,False,533,0.585,35,[],[],"[(1080, 881)]",[],[1],[37],[0.6166666666666667],"[640.0, 512.0]",vertical,"(390.0, 762.0)",[0.8166666666666667],[0.576],1,8268.086
9,False,534,1.185,71,[],[],"[(1080, 856)]",[],[1],[34],[0.5666666666666667],"[640.0, 512.0]",vertical,"(390.0, 262.0)",[0.5833333333333334],[0.527],1,8272.028
9,False,535,0.85,51,[],[],"[(1092, 855)]",[],[1],"[51, 51]","[0.85, 0.85]","[640.0, 512.0]",vertical,"(890.0, 762.0)",[0.8166666666666667],"[0.805, 0.805]",0,8276.32
9,False,536,0.521,31,[],[],"[(1093, 866)]",[],[1],[43],[0.7166666666666667],"[640.0, 512.0]",vertical,"(390.0, 762.0)",[0.75],[0.674],1,8280.774
9,False,537,0.809,48,[],[],"[(1085, 883)]",[],[1],[51],[0.85],"[640.0, 512.0]",horizontal,"(890.0, 262.0)",[0.95],[0.806],0,8285.192
9,False,538,1.151,69,[],[],"[(1099, 902)]",[],[1],[39],[0.65],"[640.0, 512.0]",horizontal,"(890.0, 262.0)",[1.55],[0.604],1,8289.905
9,False,539,0.636,38,[],[],"[(1087, 881)]",[],[1],[35],[0.5833333333333334],"[640.0, 512.0]",horizontal,"(390.0, 762.0)",[1.3333333333333333],[0.543],1,8318.521
9,False,540,0.855,51,[],[],"[(1096, 864)]",[],[1],[42],[0.7],"[640.0, 512.0]",horizontal,"(390.0, 762.0)",[1.6],[0.659],1,8323.077
10,False,541,0.812,48,[],[],"[(1087, 855)]",[],[1],[46],[0.7666666666666666],"[640.0, 512.0]",vertical,"(390.0, 762.0)",[0.7833333333333333],[0.722],1,8328.191
10,False,542,0.741,44,[],[],"[(1117, 885)]",[],[1],[40],[0.6666666666666666],"[640.0, 512.0]",vertical,"(890.0, 262.0)",[0.75],[0.62],1,8332.337
10,False,543,0.731,43,[],[],"[(1059, 879)]",[],[1],[40],[0.6666666666666666],"[640.0, 512.0]",horizontal,"(890.0, 762.0)",[1.3],[0.625],1,8352.559
10,False,544,0.827,49,[],[],"[(1079, 875)]",[],[1],[31],[0.5166666666666666],"[640.0, 512.0]",horizontal,"(890.0, 262.0)",[1.4166666666666667],[0.479],1,8357.122
10,False,545,0.53,31,[],[],"[(1082, 860)]",[],[1],[33],[0.55],"[640.0, 512.0]",vertical,"(890.0, 762.0)",[1.6833333333333333],[0.511],1,8361.875
10,False,546,0.994,59,[],[],"[(1121, 865)]",[],[1],[33],[0.55],"[640.0, 512.0]",horizontal,"(890.0, 762.0)",[0.5],[0.516],1,8366.525
10,False,547,0.549,32,[],[],"[(1081, 880)]",[],[1],[33],[0.55],"[640.0, 512.0]",horizontal,"(890.0, 762.0)",[1.25],[0.511],1,8370.458
10,False,548,0.888,53,[],[],"[(1069, 878)]",[],[1],[46],[0.7666666666666666],"[640.0, 512.0]",vertical,"(390.0, 262.0)",[1.0666666666666667],[0.727],1,8374.714
10,False,549,1.163,69,[],[],"[(1068, 881)]",[],[1],[35],[0.5833333333333334],"[640.0, 512.0]",vertical,"(890.0, 262.0)",[0.9166666666666666],[0.55],1,8381.65
10,False,550,0.544,32,[],[],"[(1120, 854)]",[],[1],[35],[0.5833333333333334],"[640.0, 512.0]",vertical,"(890.0, 762.0)",[1.2666666666666666],[0.541],1,8386.289
10,False,551,1.005,60,[],[],"[(1101, 870)]",[],[1],[51],[0.85],"[640.0, 512.0]",horizontal,"(390.0, 262.0)",[0.7833333333333333],[0.807],0,8390.507
10,False,552,0.593,35,[],[],"[(1144, 894)]",[],[1],[32],[0.5333333333333333],"[640.0, 512.0]",horizontal,"(390.0, 762.0)",[0.65],[0.496],1,8395.008
10,False,553,0.555,33,[],[],"[(1093, 889)]",[],[1],[33],[0.55],"[640.0, 512.0]",vertical,"(390.0, 262.0)",[1.5166666666666666],[0.507],1,8412.19
10,False,554,0.831,49,[],[],"[(1123, 870)]",[],[1],[33],[0.55],"[640.0, 512.0]",horizontal,"(890.0, 262.0)",[1.0166666666666666],[0.514],1,8416.798
10,False,555,0.965,57,[],[],"[(1106, 870)]",[],[1],[35],[0.5833333333333334],"[640.0, 512.0]",vertical,"(890.0, 762.0)",[0.8333333333333334],[0.545],1,8421.094
10,False,556,1.055,63,[],[],"[(1105, 879)]",[],[1],[32],[0.5333333333333333],"[640.0, 512.0]",vertical,"(390.0, 262.0)",[0.75],[0.49],1,8425.283
10,False,557,1.058,63,[],[],"[(1099, 875)]",[],[1],[36],[0.6],"[640.0, 512.0]",vertical,"(890.0, 762.0)",[1.0],[0.565],1,8429.522
10,False,558,1.185,71,[],[],"[(1093, 884)]",[],[1],[31],[0.5166666666666666],"[640.0, 512.0]",vertical,"(390.0, 762.0)",[0.7333333333333333],[0.475],1,8434.022
10,False,559,1.125,67,[],[],"[(1081, 866)]",[],[1],[34],[0.5666666666666667],"[640.0, 512.0]",horizontal,"(890.0, 262.0)",[1.1666666666666667],[0.521],1,8438.355
10,False,560,0.818,49,[],[],"[(1120, 867)]",[],[1],[35],[0.5833333333333334],"[640.0, 512.0]",horizontal,"(390.0, 262.0)",[1.6666666666666667],[0.54],1,8443.31
10,False,561,1.187,71,[],[],"[(1099, 885)]",[],[1],[36],[0.6],"[640.0, 512.0]",vertical,"(390.0, 262.0)",[1.2666666666666666],[0.561],1,8448.266
10,False,562,0.735,44,[],[],"[(1075, 894)]",[],[1],[40],[0.6666666666666666],"[640.0, 512.0]",vertical,"(390.0, 262.0)",[1.1833333333333333],[0.627],1,8453.204
10,False,563,0.652,39,[],[],"[(1074, 893)]",[],[1],[35],[0.5833333333333334],"[640.0, 512.0]",vertical,"(390.0, 762.0)",[1.5666666666666667],[0.542],1,8457.61
10,False,564,1.048,62,[],[],"[(1070, 880)]",[],[1],[32],[0.5333333333333333],"[640.0, 512.0]",vertical,"(890.0, 762.0)",[1.5666666666666667],[0.493],1,8462.477
10,False,565,1.08,64,[],[],"[(1120, 879)]",[],[1],[33],[0.55],"[640.0, 512.0]",vertical,"(890.0, 762.0)",[1.6],[0.51],1,8467.64
10,False,566,0.688,41,[],[],"[(1098, 881)]",[],[1],[37],[0.6166666666666667],"[640.0, 512.0]",horizontal,"(890.0, 762.0)",[0.8166666666666667],[0.585],1,8480.171
10,False,567,0.663,39,[],[],"[(1079, 860)]",[],[1],[34],[0.5666666666666667],"[640.0, 512.0]",vertical,"(890.0, 762.0)",[0.55],[0.528],1,8484.364
10,False,568,1.056,63,[],[],"[(1096, 874)]",[],[1],[36],[0.6],"[640.0, 512.0]",vertical,"(890.0, 262.0)",[1.4666666666666666],[0.556],1,8488.112
10,False,569,0.876,52,[],[],"[(1080, 882)]",[],[1],[35],[0.5833333333333334],"[640.0, 512.0]",horizontal,"(390.0, 762.0)",[1.3666666666666667],[0.543],1,8493.327
10,False,570,1.111,66,[],[],"[(1079, 861)]",[],[1],[46],[0.7666666666666666],"[640.0, 512.0]",horizontal,"(890.0, 262.0)",[1.2333333333333334],[0.721],1,8498.093
10,False,571,1.074,64,[],[],"[(1069, 879)]",[],[1],[44],[0.7333333333333333],"[640.0, 512.0]",horizontal,"(390.0, 762.0)",[1.4833333333333334],[0.691],1,8503.093
10,False,572,1.171,70,[],[],"[(1110, 860)]",[],[1],[35],[0.5833333333333334],"[640.0, 512.0]",horizontal,"(390.0, 762.0)",[0.7833333333333333],[0.549],1,8508.356
10,False,573,0.608,36,[],[],"[(1087, 868)]",[],[1],[32],[0.5333333333333333],"[640.0, 512.0]",horizontal,"(390.0, 262.0)",[1.4333333333333333],[0.498],1,8512.948
10,False,574,0.793,47,[],[],"[(1093, 851)]",[],[1],[37],[0.6166666666666667],"[640.0, 512.0]",vertical,"(390.0, 762.0)",[0.9833333333333333],[0.574],1,8517.521
10,False,575,1.16,69,[],[],"[(1093, 889)]",[],[1],[34],[0.5666666666666667],"[640.0, 512.0]",vertical,"(890.0, 762.0)",[1.5],[0.526],1,8521.787
10,False,576,0.549,32,[],[],"[(1123, 856)]",[],[1],[34],[0.5666666666666667],"[640.0, 512.0]",vertical,"(390.0, 762.0)",[0.8333333333333334],[0.523],1,8526.988
10,False,577,1.152,69,[],[],"[(1073, 880)]",[],[1],[38],[0.6333333333333333],"[640.0, 512.0]",vertical,"(390.0, 762.0)",[1.0166666666666666],[0.588],1,8530.808
10,False,578,0.936,56,[],[],"[(1081, 888)]",[],[1],[43],[0.7166666666666667],"[640.0, 512.0]",horizontal,"(390.0, 762.0)",[0.65],[0.67],1,8535.724
10,False,579,1.112,66,[],[],"[(1051, 870)]",[],[1],[42],[0.7],"[640.0, 512.0]",horizontal,"(890.0, 262.0)",[0.9166666666666666],[0.661],1,8539.887
10,False,580,0.67,40,[],[],"[(1011, 903), (1144, 859)]",[],"[0, 1]",[48],[0.8],"[640.0, 512.0]",horizontal,"(390.0, 262.0)",[1.2333333333333334],[0.759],1,8544.585
10,False,581,0.786,47,[],[],"[(1060, 852)]",[],[1],[35],[0.5833333333333334],"[640.0, 512.0]",horizontal,"(890.0, 262.0)",[1.0833333333333333],[0.536],1,8551.218
10,False,582,0.671,40,[],[],"[(1074, 875)]",[],[1],[36],[0.6],"[640.0, 512.0]",horizontal,"(890.0, 762.0)",[0.85],[0.558],1,8555.77
10,False,583,1.16,69,[],[],"[(1087, 859)]",[],[1],[34],[0.5666666666666667],"[640.0, 512.0]",vertical,"(890.0, 262.0)",[1.6666666666666667],[0.53],1,8559.859
10,False,584,0.545,32,[],[],"[(1099, 853)]",[],[1],[36],[0.6],"[640.0, 512.0]",horizontal,"(390.0, 262.0)",[0.8333333333333334],[0.564],1,8565.142
10,False,585,0.817,49,[],[],"[(1093, 868)]",[],[1],[49],[0.8166666666666667],"[640.0, 512.0]",vertical,"(890.0, 262.0)",[0.8166666666666667],[0.778],1,8569.264
10,False,586,0.852,51,[],[],"[(1112, 850)]",[],[1],[35],[0.5833333333333334],"[640.0, 512.0]",horizontal,"(390.0, 762.0)",[0.9333333333333333],[0.538],1,8573.61
10,False,587,0.957,57,[],[],"[(1065, 850)]",[],[1],[43],[0.7166666666666667],"[640.0, 512.0]",vertical,"(390.0, 262.0)",[1.4666666666666666],[0.673],1,8577.841
10,False,588,0.803,48,[],[],"[(1102, 852)]",[],[1],[49],[0.8166666666666667],"[640.0, 512.0]",vertical,"(890.0, 262.0)",[0.9833333333333333],[0.772],1,8584.476
10,False,589,0.621,37,[],[],"[(1107, 882)]",[],[1],[44],[0.7333333333333333],"[640.0, 512.0]",vertical,"(390.0, 262.0)",[0.9666666666666667],[0.698],1,8589.072
10,False,590,0.536,32,[],[],"[(1078, 879)]",[],[1],[36],[0.6],"[640.0, 512.0]",vertical,"(890.0, 762.0)",[1.6166666666666667],[0.564],1,8593.475
10,False,591,1.06,63,[],[],"[(1081, 856)]",[],[1],[35],[0.5833333333333334],"[640.0, 512.0]",vertical,"(390.0, 262.0)",[0.65],[0.542],1,8598.143
10,False,592,0.627,37,[],[],"[(1096, 875)]",[],[1],[35],[0.5833333333333334],"[640.0, 512.0]",vertical,"(390.0, 262.0)",[1.0833333333333333],[0.545],1,8602.442
10,False,593,0.626,37,[],[],"[(1099, 889)]",[],[1],[36],[0.6],"[640.0, 512.0]",vertical,"(390.0, 762.0)",[0.8833333333333333],[0.568],1,8606.638
10,False,594,1.041,62,[],[],"[(1087, 888)]",[],[1],[39],[0.65],"[640.0, 512.0]",vertical,"(890.0, 262.0)",[0.65],[0.612],1,8610.691
10,False,595,0.593,35,[],[],"[(1093, 875)]",[],[1],[36],[0.6],"[640.0, 512.0]",horizontal,"(890.0, 262.0)",[1.15],[0.567],1,8615.608
10,False,596,0.882,52,[],[],"[(1087, 877)]",[],[1],[35],[0.5833333333333334],"[640.0, 512.0]",vertical,"(890.0, 762.0)",[1.6],[0.542],1,8619.892
10,False,597,0.86,51,[],[],"[(1100, 865)]",[],[1],[36],[0.6],"[640.0, 512.0]",vertical,"(390.0, 262.0)",[1.6833333333333333],[0.558],1,8625.042
10,False,598,0.846,50,[],[],"[(1123, 886)]",[],[1],[34],[0.5666666666666667],"[640.0, 512.0]",vertical,"(890.0, 762.0)",[1.0166666666666666],[0.527],1,8630.193
10,False,599,1.112,66,[],[],"[(1093, 879)]",[],[1],[38],[0.6333333333333333],"[640.0, 512.0]",vertical,"(890.0, 762.0)",[0.7666666666666666],[0.59],1,8634.505
10,False,600,0.597,35,[],[],"[(1081, 876)]",[],[1],[36],[0.6],"[640.0, 512.0]",vertical,"(890.0, 262.0)",[1.2],[0.565],1,8638.974
11,False,601,1.171,70,[],[],"[(1117, 888)]",[],[1],[35],[0.5833333333333334],"[640.0, 512.0]",horizontal,"(890.0, 762.0)",[0.7666666666666666],[0.546],1,8643.56
11,False,602,0.983,58,[],[],"[(1098, 885)]",[],[1],[34],[0.5666666666666667],"[640.0, 512.0]",horizontal,"(390.0, 762.0)",[0.7],[0.52],1,8648.105
11,False,603,0.957,57,[],[],"[(1087, 859)]",[],[1],[38],[0.6333333333333333],"[640.0, 512.0]",horizontal,"(890.0, 262.0)",[0.9],[0.595],1,8652.253
11,False,604,0.746,44,[],[],"[(1085, 864)]",[],[1],[35],[0.5833333333333334],"[640.0, 512.0]",horizontal,"(390.0, 262.0)",[0.7833333333333333],[0.543],1,8656.711
11,False,605,0.918,55,[],[],"[(1087, 885)]",[],[1],[37],[0.6166666666666667],"[640.0, 512.0]",vertical,"(390.0, 762.0)",[1.5333333333333332],[0.585],1,8660.75
11,False,606,0.906,54,[],[],"[(1079, 857)]",[],[1],[34],[0.5666666666666667],"[640.0, 512.0]",vertical,"(390.0, 762.0)",[0.7666666666666666],[0.525],1,8665.91
11,False,607,0.537,32,[],[],"[(1076, 860)]",[],[1],[33],[0.55],"[640.0, 512.0]",vertical,"(890.0, 262.0)",[1.0166666666666666],[0.516],1,8670.22
11,False,608,0.951,57,[],[],"[(1112, 875)]",[],[1],[36],[0.6],"[640.0, 512.0]",horizontal,"(390.0, 762.0)",[1.3833333333333333],[0.561],1,8674.211
11,False,609,1.114,66,[],[],"[(1099, 868)]",[],[1],[36],[0.6],"[640.0, 512.0]",vertical,"(390.0, 262.0)",[0.8833333333333333],[0.561],1,8679.159
11,False,610,0.751,45,[],[],"[(1080, 879)]",[],[1],[34],[0.5666666666666667],"[640.0, 512.0]",horizontal,"(890.0, 762.0)",[0.7833333333333333],[0.526],1,8683.694
11,False,611,0.662,39,[],[],"[(1100, 859)]",[],[1],[37],[0.6166666666666667],"[640.0, 512.0]",vertical,"(390.0, 262.0)",[0.7166666666666667],[0.57],1,8687.887
11,False,612,1.062,63,[],[],"[(1075, 870)]",[],[1],[35],[0.5833333333333334],"[640.0, 512.0]",vertical,"(390.0, 762.0)",[1.4833333333333334],[0.542],1,8691.927
11,False,613,0.912,54,[],[],"[(1080, 884)]",[],[1],[44],[0.7333333333333333],"[640.0, 512.0]",vertical,"(390.0, 262.0)",[1.35],[0.686],1,8697.079
11,False,614,0.871,52,[],[],"[(1087, 851)]",[],[1],[37],[0.6166666666666667],"[640.0, 512.0]",vertical,"(390.0, 762.0)",[1.5666666666666667],[0.573],1,8701.928
11,False,615,0.77,46,[],[],"[(1096, 856)]",[],[1],[34],[0.5666666666666667],"[640.0, 512.0]",horizontal,"(390.0, 762.0)",[0.9333333333333333],[0.528],1,8706.959
11,False,616,0.686,41,[],[],"[(1074, 857)]",[],[1],[36],[0.6],"[640.0, 512.0]",vertical,"(890.0, 762.0)",[1.2666666666666666],[0.559],1,8711.255
11,False,617,0.727,43,[],[],"[(1079, 872)]",[],[1],[35],[0.5833333333333334],"[640.0, 512.0]",vertical,"(390.0, 762.0)",[1.3666666666666667],[0.543],1,8715.744
11,False,618,1.059,63,[],[],"[(1087, 889)]",[],[1],[33],[0.55],"[640.0, 512.0]",horizontal,"(890.0, 762.0)",[0.9],[0.514],1,8720.456
11,False,619,0.54,32,[],[],"[(1087, 852)]",[],[1],[38],[0.6333333333333333],"[640.0, 512.0]",horizontal,"(890.0, 762.0)",[1.2666666666666666],[0.593],1,8725.028
11,False,620,1.196,71,[],[],"[(1097, 851)]",[],[1],[37],[0.6166666666666667],"[640.0, 512.0]",vertical,"(390.0, 262.0)",[0.5666666666666667],[0.576],1,8729.469
11,False,621,0.792,47,[],[],"[(862, 736), (849, 999), (1130, 887)]",[],"[0, 0, 1]",[35],[0.5833333333333334],"[640.0, 512.0]",vertical,"(390.0, 762.0)",[1.2666666666666666],[0.543],1,8733.76
11,False,622,0.802,48,[],[],"[(1098, 893)]",[],[1],[35],[0.5833333333333334],"[640.0, 512.0]",horizontal,"(390.0, 262.0)",[0.6833333333333333],[0.543],1,8798.188
11,False,623,0.957,57,[],[],"[(1097, 878)]",[],[1],[35],[0.5833333333333334],"[640.0, 512.0]",horizontal,"(390.0, 762.0)",[0.8],[0.547],1,8802.157
11,False,624,1.128,67,[],[],"[(1091, 859)]",[],[1],[40],[0.6666666666666666],"[640.0, 512.0]",vertical,"(390.0, 762.0)",[1.3666666666666667],[0.626],1,8806.49
11,False,625,0.78,46,[],[],"[(1027, 855), (1123, 861)]",[],"[0, 1]",[37],[0.6166666666666667],"[640.0, 512.0]",vertical,"(390.0, 262.0)",[1.45],[0.575],1,8811.596
11,False,626,1.046,62,[],[],"[(1085, 889)]",[],[1],[34],[0.5666666666666667],"[640.0, 512.0]",vertical,"(390.0, 762.0)",[1.0666666666666667],[0.534],1,8818.495
11,False,627,0.887,53,[],[],"[(1102, 858)]",[],[1],[21],[0.35],"[640.0, 512.0]",vertical,"(890.0, 262.0)",[1.15],[0.313],1,8823.224
11,False,628,1.0,60,[],[],"[(1100, 868)]",[],[1],[36],[0.6],"[640.0, 512.0]",vertical,"(890.0, 762.0)",[1.1666666666666667],[0.563],1,8827.524
11,False,629,0.61,36,[],[],"[(1093, 872)]",[],[1],[42],[0.7],"[640.0, 512.0]",vertical,"(890.0, 762.0)",[1.4666666666666666],[0.658],1,8832.169
11,False,630,1.128,67,[],[],"[(1087, 856)]",[],[1],[39],[0.65],"[640.0, 512.0]",horizontal,"(390.0, 262.0)",[1.4],[0.609],1,8836.96
11,False,631,1.052,63,[],[],"[(1081, 865)]",[],[1],[35],[0.5833333333333334],"[640.0, 512.0]",horizontal,"(390.0, 262.0)",[0.7],[0.545],1,8842.214
11,False,632,0.892,53,[],[],"[(1073, 880)]",[],[1],[35],[0.5833333333333334],"[640.0, 512.0]",horizontal,"(890.0, 262.0)",[0.8666666666666667],[0.55],1,8846.67
11,False,633,1.085,65,[],[],"[(1093, 875)]",[],[1],[39],[0.65],"[640.0, 512.0]",vertical,"(390.0, 762.0)",[1.2166666666666666],[0.61],1,8850.942
11,False,634,1.143,68,[],[],"[(1070, 889)]",[],[1],[49],[0.8166666666666667],"[640.0, 512.0]",horizontal,"(390.0, 262.0)",[1.1333333333333333],[0.779],1,8855.989
11,False,635,0.901,54,[],[],"[(1087, 875)]",[],[1],[32],[0.5333333333333333],"[640.0, 512.0]",horizontal,"(390.0, 262.0)",[1.2166666666666666],[0.501],1,8860.909
11,False,636,1.025,61,[],[],"[(1123, 879)]",[],[1],[37],[0.6166666666666667],"[640.0, 512.0]",horizontal,"(390.0, 762.0)",[0.8666666666666667],[0.58],1,8865.574
11,False,637,0.622,37,[],[],"[(1114, 882)]",[],[1],[32],[0.5333333333333333],"[640.0, 512.0]",vertical,"(390.0, 262.0)",[0.8666666666666667],[0.495],1,8869.961
11,False,638,0.763,45,[],[],"[(1130, 889)]",[],[1],[51],[0.85],"[640.0, 512.0]",horizontal,"(390.0, 262.0)",[0.8833333333333333],[0.81],0,8873.998
11,False,639,0.665,39,[],[],"[(1130, 870)]",[],[1],[35],[0.5833333333333334],"[640.0, 512.0]",vertical,"(890.0, 762.0)",[0.9666666666666667],[0.544],1,8878.439
11,False,640,0.824,49,[],[],"[(1099, 896)]",[],[1],[33],[0.55],"[640.0, 512.0]",horizontal,"(890.0, 262.0)",[1.5666666666666667],[0.516],1,8882.557
11,False,641,0.764,45,[],[],"[(1120, 875)]",[],[1],[32],[0.5333333333333333],"[640.0, 512.0]",vertical,"(890.0, 262.0)",[0.7166666666666667],[0.499],1,8887.545
11,False,642,0.89,53,[],[],"[(1098, 875)]",[],[1],[29],[0.48333333333333334],"[640.0, 512.0]",vertical,"(390.0, 262.0)",[1.5666666666666667],[0.444],1,8891.424
11,False,643,1.022,61,[],[],"[(1099, 879)]",[],[1],[31],[0.5166666666666666],"[640.0, 512.0]",vertical,"(390.0, 262.0)",[0.8166666666666667],[0.477],1,8896.478
11,False,644,1.117,67,[],[],"[(1099, 874)]",[],[1],[35],[0.5833333333333334],"[640.0, 512.0]",horizontal,"(390.0, 762.0)",[1.4166666666666667],[0.555],1,8901.307
11,False,645,1.13,67,[],[],"[(1092, 874)]",[],[1],[39],[0.65],"[640.0, 512.0]",vertical,"(390.0, 762.0)",[0.7833333333333333],[0.607],1,8906.404
11,False,646,0.653,39,[],[],"[(1123, 884)]",[],[1],[35],[0.5833333333333334],"[640.0, 512.0]",horizontal,"(890.0, 262.0)",[0.65],[0.542],1,8910.959
11,False,647,1.051,63,[],[],"[(1056, 889)]",[],[1],[51],[0.85],"[640.0, 512.0]",horizontal,"(390.0, 262.0)",[1.2166666666666666],[0.806],0,8915.428
11,False,648,0.608,36,[],[],"[(1096, 865)]",[],[1],[46],[0.7666666666666666],"[640.0, 512.0]",vertical,"(390.0, 262.0)",[0.8666666666666667],[0.723],1,8920.466
11,False,649,0.594,35,[],[],"[(1087, 870)]",[],[1],[51],[0.85],"[640.0, 512.0]",horizontal,"(890.0, 762.0)",[0.5666666666666667],[0.803],0,8925.557
11,False,650,0.658,39,[],[],"[(1150, 886)]",[],[1],[34],[0.5666666666666667],"[640.0, 512.0]",vertical,"(890.0, 762.0)",[1.2666666666666666],[0.522],1,8930.639
11,False,651,1.14,68,[],[],"[(1056, 853)]",[],[1],[34],[0.5666666666666667],"[640.0, 512.0]",vertical,"(890.0, 262.0)",[1.1833333333333333],[0.522],1,8961.793
11,False,652,0.978,58,[],[],"[(1093, 856)]",[],[1],[46],[0.7666666666666666],"[640.0, 512.0]",vertical,"(890.0, 762.0)",[0.6833333333333333],[0.722],1,8966.594
11,False,653,0.761,45,[],[],"[(1096, 857)]",[],[1],[40],[0.6666666666666666],"[640.0, 512.0]",horizontal,"(890.0, 762.0)",[1.5666666666666667],[0.624],1,8971.006
11,False,654,1.188,71,[],[],"[(1099, 855)]",[],[1],[34],[0.5666666666666667],"[640.0, 512.0]",horizontal,"(390.0, 762.0)",[0.7166666666666667],[0.531],1,8975.807
11,False,655,1.034,62,[],[],"[(1105, 884)]",[],[1],[38],[0.6333333333333333],"[640.0, 512.0]",horizontal,"(890.0, 262.0)",[0.6333333333333333],[0.594],1,8980.256
11,False,656,1.001,60,[],[],"[(1117, 875)]",[],[1],[7],[0.11666666666666667],"[640.0, 512.0]",horizontal,"(890.0, 762.0)",[1.2166666666666666],[0.083],1,8984.533
11,False,657,0.518,31,[],[],"[(1097, 857)]",[],[1],[36],[0.6],"[640.0, 512.0]",horizontal,"(890.0, 762.0)",[0.6166666666666667],[0.565],1,8988.67
11,False,658,0.822,49,[],[],"[(1113, 875)]",[],[1],[32],[0.5333333333333333],"[640.0, 512.0]",horizontal,"(890.0, 262.0)",[0.9333333333333333],[0.494],1,8992.455
11,False,659,0.855,51,[],[],"[(1095, 865)]",[],[1],[37],[0.6166666666666667],"[640.0, 512.0]",horizontal,"(390.0, 762.0)",[1.2],[0.572],1,8996.56
