block,practice,trial,change_interval_s,change_interval_frames,taps_start_time_during_fix,taps_end_time_during_fix,taps_start_loc_during_fix,taps_end_loc_during_fix,taps_on_lever_during_fix,taps_on_lever_frame_during_fix,taps_on_lever_s_during_fix,fix_xy,bar_orientation,target_xy,cti,rt,acc,time
1,True,1,0.787,47,[],[],"[(1220, 890)]",[],[1],[77],[1.2833333333333332],"[640.0, 512.0]",horizontal,"(390.0, 262.0)",[0.5666666666666667],[0.493],1,0.433
1,True,2,0.449,26,[],[],"[(1200, 888)]",[],[1],[76],[1.2666666666666666],"[640.0, 512.0]",vertical,"(390.0, 762.0)",[1.45],[0.809],0,7.474
1,True,3,1.176,70,[],[],"[(1153, 893)]",[],[1],[120],[2.0],"[640.0, 512.0]",vertical,"(390.0, 262.0)",[1.35],[0.813],0,11.722
1,True,4,1.275,76,[],[],"[(1120, 844)]",[],[1],[101],[1.6833333333333333],"[640.0, 512.0]",vertical,"(890.0, 262.0)",[1.6],[0.392],1,29.538
1,False,1,0.519,31,[],[],"[(1195, 894)]",[],[1],[73],[1.2166666666666666],"[640.0, 512.0]",vertical,"(390.0, 262.0)",[1.3666666666666667],[0.695],1,44.701
1,False,2,0.652,39,[],[],"[(1184, 868)]",[],[1],[69],[1.15],"[640.0, 512.0]",horizontal,"(390.0, 262.0)",[0.9666666666666667],[0.476],1,54.464
1,False,3,0.931,55,[],[],"[(1198, 885)]",[],[1],[105],[1.75],"[640.0, 512.0]",horizontal,"(890.0, 762.0)",[1.0833333333333333],[0.804],0,58.275
1,False,4,0.539,32,[],[],"[(1156, 942)]",[],[1],[64],[1.0666666666666667],"[640.0, 512.0]",vertical,"(890.0, 762.0)",[0.9833333333333333],[0.514],1,62.645
1,False,5,0.698,41,[],[],"[(1153, 907)]",[],[1],[75],[1.25],"[640.0, 512.0]",horizontal,"(390.0, 762.0)",[0.9666666666666667],[0.551],1,66.613
1,False,6,1.095,65,[],[],"[(1170, 902)]",[],[1],[104],[1.7333333333333334],"[640.0, 512.0]",horizontal,"(390.0, 762.0)",[1.2333333333333334],[0.624],1,70.476
1,False,7,0.51,30,[],[],"[(1166, 918)]",[],[1],[67],[1.1166666666666667],"[640.0, 512.0]",vertical,"(890.0, 262.0)",[1.05],[0.606],1,74.984
1,False,8,0.547,32,[],[],"[(1176, 926)]",[],[1],[66],[1.1],"[640.0, 512.0]",horizontal,"(390.0, 762.0)",[1.6333333333333333],[0.554],1,79.145
1,False,9,0.989,59,[],[],"[(1177, 898)]",[],[1],[95],[1.5833333333333333],"[640.0, 512.0]",vertical,"(890.0, 262.0)",[1.1833333333333333],[0.574],1,83.579
1,False,10,0.539,32,[],[],"[(1172, 884)]",[],[1],[64],[1.0666666666666667],"[640.0, 512.0]",horizontal,"(890.0, 762.0)",[1.3166666666666667],[0.517],1,87.972
1,False,11,0.559,33,[],[],"[(1185, 901)]",[],[1],[65],[1.0833333333333333],"[640.0, 512.0]",horizontal,"(390.0, 262.0)",[0.7333333333333333],[0.521],1,91.91
1,False,12,0.521,31,[],[],"[(1206, 885)]",[],[1],[63],[1.05],"[640.0, 512.0]",horizontal,"(890.0, 762.0)",[1.6666666666666667],[0.511],1,95.281
1,False,13,0.873,52,[],[],"[(1171, 885)]",[],[1],[84],[1.4],"[640.0, 512.0]",vertical,"(390.0, 762.0)",[0.7166666666666667],[0.507],1,99.493
1,False,14,1.066,63,[],[],"[(1196, 897)]",[],[1],[99],[1.65],"[640.0, 512.0]",horizontal,"(390.0, 762.0)",[0.75],[0.577],1,103.12
1,False,15,0.488,29,[],[],"[(1172, 889)]",[],[1],[79],[1.3166666666666667],"[640.0, 512.0]",vertical,"(890.0, 762.0)",[0.5833333333333334],[0.798],0,107.001
1,False,16,1.37,82,[],[],"[(1170, 893)]",[],[1],[111],[1.8499999999999999],"[640.0, 512.0]",horizontal,"(890.0, 262.0)",[0.7],[0.461],1,110.364
1,False,17,1.025,61,[],[],"[(1172, 880)]",[],[1],[90],[1.5],"[640.0, 512.0]",horizontal,"(390.0, 262.0)",[1.2166666666666666],[0.476],1,114.471
1,False,18,0.735,44,[],[],"[(1176, 876)]",[],[1],[86],[1.4333333333333333],"[640.0, 512.0]",horizontal,"(890.0, 762.0)",[0.5],[0.696],1,118.819
1,False,19,1.396,83,[],[],"[(1172, 894)]",[],[1],[115],[1.9166666666666667],"[640.0, 512.0]",horizontal,"(890.0, 262.0)",[1.5666666666666667],[0.513],1,122.362
1,False,20,0.777,46,[],[],"[(1192, 903)]",[],[1],[77],[1.2833333333333332],"[640.0, 512.0]",horizontal,"(890.0, 262.0)",[1.1166666666666667],[0.498],1,127.383
1,False,21,1.18,70,[],[],"[(1185, 875)]",[],[1],[103],[1.7166666666666666],"[640.0, 512.0]",horizontal,"(890.0, 262.0)",[0.9],[0.53],1,131.384
1,False,22,1.481,88,[],[],"[(1220, 884)]",[],[1],[121],[2.0166666666666666],"[640.0, 512.0]",vertical,"(890.0, 262.0)",[0.85],[0.541],1,135.564
1,False,23,0.433,25,[],[],"[(1177, 890)]",[],[1],[62],[1.0333333333333332],"[640.0, 512.0]",vertical,"(390.0, 262.0)",[1.6333333333333333],[0.608],1,139.981
1,False,24,0.936,56,[],[],"[(1200, 883)]",[],[1],[92],[1.5333333333333332],"[640.0, 512.0]",horizontal,"(390.0, 262.0)",[1.0666666666666667],[0.589],1,144.297
1,False,25,0.645,38,[],[],"[(1178, 888)]",[],[1],[70],[1.1666666666666667],"[640.0, 512.0]",horizontal,"(390.0, 762.0)",[0.8],[0.52],1,148.448
1,False,26,0.676,40,[],[],"[(1202, 887)]",[],[1],[70],[1.1666666666666667],"[640.0, 512.0]",horizontal,"(890.0, 262.0)",[1.4333333333333333],[0.49],1,151.965
1,False,27,0.694,41,[],[],"[(1203, 892)]",[],[1],[79],[1.3166666666666667],"[640.0, 512.0]",vertical,"(390.0, 762.0)",[1.4166666666666667],[0.604],1,156.146
1,False,28,1.426,85,[],[],"[(1204, 894)]",[],[1],[117],[1.95],"[640.0, 512.0]",horizontal,"(890.0, 262.0)",[1.3666666666666667],[0.518],1,160.397
1,False,29,0.981,58,[],[],"[(1167, 900)]",[],[1],[94],[1.5666666666666667],"[640.0, 512.0]",vertical,"(890.0, 762.0)",[0.8],[0.58],1,165.266
1,False,30,1.127,67,[],[],"[(1172, 892)]",[],[1],[101],[1.6833333333333333],"[640.0, 512.0]",vertical,"(890.0, 762.0)",[1.1],[0.544],1,173.754
1,False,31,0.538,32,[],[],"[(1196, 884)]",[],[1],[66],[1.1],"[640.0, 512.0]",horizontal,"(890.0, 762.0)",[0.7833333333333333],[0.538],1,178.787
1,False,32,1.476,88,[],[],"[(1176, 880)]",[],[1],[117],[1.95],"[640.0, 512.0]",vertical,"(890.0, 262.0)",[0.65],[0.459],1,182.181
1,False,33,0.575,34,[],[],"[(1196, 871)]",[],[1],[68],[1.1333333333333333],"[640.0, 512.0]",horizontal,"(890.0, 262.0)",[0.5333333333333333],[0.545],1,186.319
1,False,34,0.994,59,[],[],"[(1169, 889)]",[],[1],[102],[1.7],"[640.0, 512.0]",vertical,"(390.0, 762.0)",[0.6666666666666666],[0.696],1,189.464
1,False,35,0.874,52,[],[],"[(1177, 889)]",[],[1],[86],[1.4333333333333333],"[640.0, 512.0]",vertical,"(390.0, 762.0)",[1.5666666666666667],[0.541],1,193.467
1,False,36,0.745,44,[],[],"[(1194, 884)]",[],[1],[77],[1.2833333333333332],"[640.0, 512.0]",vertical,"(890.0, 762.0)",[1.4833333333333334],[0.528],1,197.999
1,False,37,1.038,62,[],[],"[(1194, 906)]",[],[1],[95],[1.5833333333333333],"[640.0, 512.0]",vertical,"(890.0, 262.0)",[1.0833333333333333],[0.525],1,202.311
1,False,38,0.511,30,[],[],"[(1196, 895)]",[],[1],[66],[1.1],"[640.0, 512.0]",vertical,"(390.0, 762.0)",[1.5833333333333333],[0.573],1,206.477
1,False,39,0.614,36,[],[],"[(1202, 898)]",[],[1],[86],[1.4333333333333333],"[640.0, 512.0]",horizontal,"(890.0, 262.0)",[1.5666666666666667],[0.807],0,210.619
1,False,40,1.039,62,[],[],"[(1188, 909)]",[],[1],[107],[1.7833333333333332],"[640.0, 512.0]",horizontal,"(390.0, 262.0)",[1.4333333333333333],[0.733],1,215.086
1,False,41,1.144,68,[],[],"[(1137, 901)]",[],[1],[118],[1.9666666666666666],"[640.0, 512.0]",vertical,"(390.0, 262.0)",[1.6666666666666667],[0.808],0,304.585
1,False,42,0.572,34,[],[],"[(1160, 899)]",[],[1],[74],[1.2333333333333334],"[640.0, 512.0]",vertical,"(390.0, 762.0)",[1.45],[0.65],1,310.232
1,False,43,0.413,24,[],[],"[(1160, 900)]",[],[1],[55],[0.9166666666666666],"[640.0, 512.0]",vertical,"(390.0, 262.0)",[0.7666666666666666],[0.501],1,315.151
1,False,44,0.727,43,[],[],"[(1111, 911)]",[],[1],[79],[1.3166666666666667],"[640.0, 512.0]",vertical,"(390.0, 262.0)",[1.45],[0.587],1,318.719
1,False,45,0.749,44,[],[],"[(1190, 914)]",[],[1],[94],[1.5666666666666667],"[640.0, 512.0]",vertical,"(390.0, 762.0)",[0.9166666666666666],[0.81],0,324.116
1,False,46,1.118,67,[],[],"[(1166, 900)]",[],[1],[],[],"[640.0, 512.0]",vertical,"(390.0, 762.0)",[],[0],0,328.099
1,False,47,1.003,60,[],[],"[(1173, 886)]",[],[1],[101],[1.6833333333333333],"[640.0, 512.0]",horizontal,"(390.0, 762.0)",[1.4333333333333333],[0.668],1,344.049
1,False,48,1.145,68,[],[],"[(1190, 913)]",[],[1],[99],[1.65],"[640.0, 512.0]",vertical,"(890.0, 262.0)",[0.5333333333333333],[0.505],1,348.715
1,False,49,1.236,74,[],[],"[(1142, 879)]",[],[1],[104],[1.7333333333333334],"[640.0, 512.0]",horizontal,"(890.0, 762.0)",[1.5833333333333333],[0.482],1,352.573
1,False,50,0.68,40,[],[],"[(1203, 887)]",[],[1],[79],[1.3166666666666667],"[640.0, 512.0]",vertical,"(890.0, 262.0)",[1.2833333333333332],[0.629],1,358.016
1,False,51,0.816,48,[],[],"[(1183, 907)]",[],[1],[78],[1.3],"[640.0, 512.0]",horizontal,"(390.0, 262.0)",[1.65],[0.475],1,362.082
1,False,52,0.779,46,[],[],"[(1172, 884)]",[],[1],[83],[1.3833333333333333],"[640.0, 512.0]",vertical,"(390.0, 262.0)",[0.8166666666666667],[0.591],1,366.639
1,False,53,0.723,43,[],[],"[(1180, 894)]",[],[1],[75],[1.25],"[640.0, 512.0]",horizontal,"(390.0, 762.0)",[1.6166666666666667],[0.511],1,370.588
1,False,54,0.768,46,[],[],"[(1194, 918)]",[],[1],[94],[1.5666666666666667],"[640.0, 512.0]",vertical,"(890.0, 762.0)",[0.8666666666666667],[0.769],1,374.98
1,False,55,1.496,89,[],[],"[(1192, 899)]",[],[1],[120],[2.0],"[640.0, 512.0]",horizontal,"(890.0, 762.0)",[0.9166666666666666],[0.497],1,379.018
1,False,56,1.488,89,[],[],"[(1160, 869)]",[],[1],[139],[2.3166666666666664],"[640.0, 512.0]",horizontal,"(890.0, 262.0)",[0.9833333333333333],[0.815],0,383.449
1,False,57,1.121,67,[],[],"[(1196, 885)]",[],[1],[96],[1.6],"[640.0, 512.0]",horizontal,"(390.0, 262.0)",[1.4166666666666667],[0.461],1,389.138
1,False,58,1.499,89,[],[],"[(1177, 903)]",[],[1],[120],[2.0],"[640.0, 512.0]",horizontal,"(390.0, 762.0)",[1.1666666666666667],[0.497],1,406.337
1,False,59,0.347,20,[],[],"[(1185, 889)]",[],[1],[49],[0.8166666666666667],"[640.0, 512.0]",vertical,"(390.0, 262.0)",[1.65],[0.472],1,410.999
1,False,60,0.398,23,[],[],"[(1184, 897)]",[],[1],[57],[0.95],"[640.0, 512.0]",horizontal,"(390.0, 762.0)",[0.8833333333333333],[0.559],1,415.133
2,False,61,1.041,62,[],[],"[(1193, 884)]",[],[1],[93],[1.55],"[640.0, 512.0]",horizontal,"(890.0, 262.0)",[0.7833333333333333],[0.496],1,418.515
2,False,62,0.914,54,[],[],"[(1166, 877)]",[],[1],[88],[1.4666666666666666],"[640.0, 512.0]",horizontal,"(890.0, 762.0)",[1.3333333333333333],[0.543],1,422.35
2,False,63,1.281,76,[],[],"[(1193, 884)]",[],[1],[114],[1.9],"[640.0, 512.0]",vertical,"(890.0, 762.0)",[1.2666666666666666],[0.613],1,426.7
2,False,64,0.923,55,[],[],"[(1179, 899)]",[],[1],[93],[1.55],"[640.0, 512.0]",vertical,"(390.0, 762.0)",[1.3833333333333333],[0.617],1,431.404
2,False,65,1.27,76,[],[],"[(1194, 876)]",[],[1],[109],[1.8166666666666667],"[640.0, 512.0]",horizontal,"(390.0, 762.0)",[0.55],[0.532],1,435.892
2,False,66,1.491,89,[],[],"[(1189, 888)]",[],[1],[116],[1.9333333333333333],"[640.0, 512.0]",horizontal,"(890.0, 262.0)",[1.5166666666666666],[0.433],1,439.832
2,False,67,0.916,54,[],[],"[(1172, 894)]",[],[1],[87],[1.45],"[640.0, 512.0]",horizontal,"(390.0, 762.0)",[0.5166666666666666],[0.534],1,444.805
2,False,68,1.165,69,[],[],"[(1198, 891)]",[],[1],[112],[1.8666666666666667],"[640.0, 512.0]",vertical,"(890.0, 762.0)",[1.2166666666666666],[0.697],1,448.352
2,False,69,1.467,88,[],[],"[(1177, 879)]",[],[1],[117],[1.95],"[640.0, 512.0]",horizontal,"(890.0, 262.0)",[1.65],[0.463],1,452.946
2,False,70,0.845,50,[],[],"[(1203, 880)]",[],[1],[78],[1.3],"[640.0, 512.0]",vertical,"(390.0, 262.0)",[1.65],[0.446],1,458.161
2,False,71,1.378,82,[],[],"[(1182, 872)]",[],[1],[112],[1.8666666666666667],"[640.0, 512.0]",horizontal,"(890.0, 762.0)",[1.25],[0.483],1,462.749
2,False,72,1.246,74,[],[],"[(1226, 897)]",[],[1],[100],[1.6666666666666667],"[640.0, 512.0]",horizontal,"(890.0, 262.0)",[1.2666666666666666],[0.416],1,467.422
2,False,73,1.075,64,[],[],"[(1186, 884)]",[],[1],[114],[1.9],"[640.0, 512.0]",vertical,"(390.0, 762.0)",[1.1833333333333333],[0.807],0,471.866
2,False,74,1.214,72,[],[],"[(1180, 852)]",[],[1],[103],[1.7166666666666666],"[640.0, 512.0]",horizontal,"(390.0, 762.0)",[1.3166666666666667],[0.491],1,476.578
2,False,75,0.976,58,[],[],"[(1181, 892)]",[],[1],[88],[1.4666666666666666],"[640.0, 512.0]",vertical,"(890.0, 762.0)",[1.2666666666666666],[0.477],1,491.323
2,False,76,0.389,23,[],[],"[(1198, 886)]",[],[1],[53],[0.8833333333333333],"[640.0, 512.0]",vertical,"(890.0, 262.0)",[1.15],[0.483],1,495.54
2,False,77,0.996,59,[],[],"[(1184, 896)]",[],[1],[89],[1.4833333333333334],"[640.0, 512.0]",horizontal,"(890.0, 762.0)",[1.0666666666666667],[0.477],1,499.144
2,False,78,1.409,84,[],[],"[(1175, 906)]",[],[1],[114],[1.9],"[640.0, 512.0]",horizontal,"(890.0, 762.0)",[1.1166666666666667],[0.482],1,503.247
2,False,79,1.133,67,[],[],"[(1184, 891)]",[],[1],[101],[1.6833333333333333],"[640.0, 512.0]",vertical,"(390.0, 262.0)",[1.0333333333333332],[0.547],1,507.799
2,False,80,0.874,52,[],[],"[(1134, 884)]",[],[1],[89],[1.4833333333333334],"[640.0, 512.0]",horizontal,"(890.0, 262.0)",[1.6333333333333333],[0.598],1,512.087
2,False,81,1.198,71,[],[],"[(1172, 889)]",[],[1],[102],[1.7],"[640.0, 512.0]",vertical,"(390.0, 262.0)",[1.15],[0.502],1,517.714
2,False,82,1.355,81,[],[],"[(1172, 890)]",[],[1],[109],[1.8166666666666667],"[640.0, 512.0]",vertical,"(890.0, 262.0)",[1.6333333333333333],[0.449],1,522.179
2,False,83,0.778,46,[],[],"[(1190, 890)]",[],[1],[77],[1.2833333333333332],"[640.0, 512.0]",vertical,"(890.0, 762.0)",[1.55],[0.494],1,527.129
2,False,84,0.424,25,[],[],"[(1178, 900)]",[],[1],[69],[1.15],"[640.0, 512.0]",vertical,"(890.0, 762.0)",[1.6333333333333333],[0.707],1,531.478
2,False,85,0.425,25,[],[],"[(1157, 882)]",[],[1],[55],[0.9166666666666666],"[640.0, 512.0]",horizontal,"(890.0, 262.0)",[1.4],[0.477],1,535.777
2,False,86,1.042,62,[],[],"[(1191, 889)]",[],[1],[112],[1.8666666666666667],"[640.0, 512.0]",vertical,"(390.0, 262.0)",[1.3166666666666667],[0.803],0,539.614
2,False,87,0.963,57,[],[],"[(1169, 908)]",[],[1],[95],[1.5833333333333333],"[640.0, 512.0]",vertical,"(390.0, 762.0)",[0.55],[0.607],1,544.295
2,False,88,1.167,70,[],[],"[(1159, 889)]",[],[1],[109],[1.8166666666666667],"[640.0, 512.0]",vertical,"(890.0, 262.0)",[0.75],[0.621],1,553.149
2,False,89,0.558,33,[],[],"[(1163, 895)]",[],[1],[65],[1.0833333333333333],"[640.0, 512.0]",horizontal,"(390.0, 262.0)",[1.4833333333333334],[0.503],1,557.302
2,False,90,0.487,29,[],[],"[(1170, 894)]",[],[1],[64],[1.0666666666666667],"[640.0, 512.0]",horizontal,"(890.0, 262.0)",[0.9666666666666667],[0.559],1,561.407
2,False,91,0.97,58,[],[],"[(1172, 894)]",[],[1],[92],[1.5333333333333332],"[640.0, 512.0]",vertical,"(890.0, 762.0)",[0.5333333333333333],[0.545],1,565.07
2,False,92,0.948,56,[],[],"[(1209, 896)]",[],[1],[85],[1.4166666666666667],"[640.0, 512.0]",vertical,"(890.0, 262.0)",[1.35],[0.459],1,568.624
2,False,93,1.186,71,[],[],"[(1178, 886)]",[],[1],[101],[1.6833333333333333],"[640.0, 512.0]",vertical,"(890.0, 262.0)",[1.3166666666666667],[0.479],1,572.902
2,False,94,0.701,42,[],[],"[(1153, 898)]",[],[1],[74],[1.2333333333333334],"[640.0, 512.0]",horizontal,"(390.0, 262.0)",[0.5666666666666667],[0.518],1,577.465
2,False,95,0.525,31,[],[],"[(1172, 893)]",[],[1],[63],[1.05],"[640.0, 512.0]",vertical,"(890.0, 262.0)",[0.6333333333333333],[0.51],1,581.072
2,False,96,1.412,84,[],[],"[(1178, 895)]",[],[1],[121],[2.0166666666666666],"[640.0, 512.0]",vertical,"(390.0, 262.0)",[0.5],[0.596],1,584.269
2,False,97,1.326,79,[],[],"[(1160, 899)]",[],[1],[108],[1.8],"[640.0, 512.0]",horizontal,"(390.0, 262.0)",[1.6166666666666667],[0.461],1,588.395
2,False,98,1.107,66,[],[],"[(1178, 880)]",[],[1],[94],[1.5666666666666667],"[640.0, 512.0]",horizontal,"(390.0, 262.0)",[1.0833333333333333],[0.444],1,593.355
2,False,99,0.429,25,[],[],"[(1172, 889)]",[],[1],[58],[0.9666666666666667],"[640.0, 512.0]",horizontal,"(390.0, 762.0)",[1.2166666666666666],[0.528],1,597.574
2,False,100,1.147,68,[],[],"[(1160, 897)]",[],[1],[118],[1.9666666666666666],"[640.0, 512.0]",horizontal,"(890.0, 262.0)",[0.9666666666666667],[0.799],0,601.294
2,False,101,0.91,54,[],[],"[(1199, 894)]",[],[1],[83],[1.3833333333333333],"[640.0, 512.0]",vertical,"(390.0, 262.0)",[0.9666666666666667],[0.461],1,605.756
2,False,102,0.893,53,[],[],"[(1164, 879)]",[],[1],[83],[1.3833333333333333],"[640.0, 512.0]",vertical,"(890.0, 762.0)",[1.5333333333333332],[0.476],1,609.623
2,False,103,0.429,25,[],[],"[(1230, 884)]",[],[1],[70],[1.1666666666666667],"[640.0, 512.0]",vertical,"(390.0, 762.0)",[1.2666666666666666],[0.72],1,614.073
2,False,104,0.762,45,[],[],"[(1192, 884)]",[],[1],[79],[1.3166666666666667],"[640.0, 512.0]",horizontal,"(890.0, 762.0)",[1.3833333333333333],[0.547],1,618.005
2,False,105,0.867,52,[],[],"[(1174, 888)]",[],[1],[89],[1.4833333333333334],"[640.0, 512.0]",vertical,"(390.0, 762.0)",[1.05],[0.581],1,622.246
2,False,106,1.299,77,[],[],"[(1185, 884)]",[],[1],[113],[1.8833333333333333],"[640.0, 512.0]",horizontal,"(390.0, 762.0)",[0.8333333333333334],[0.575],1,626.299
2,False,107,1.019,61,[],[],"[(1178, 894)]",[],[1],[98],[1.6333333333333333],"[640.0, 512.0]",vertical,"(890.0, 262.0)",[1.5333333333333332],[0.589],1,630.63
2,False,108,0.553,33,[],[],"[(1172, 873)]",[],[1],[68],[1.1333333333333333],"[640.0, 512.0]",horizontal,"(390.0, 262.0)",[0.5],[0.558],1,635.37
2,False,109,1.145,68,[],[],"[(1189, 894)]",[],[1],[110],[1.8333333333333333],"[640.0, 512.0]",horizontal,"(890.0, 762.0)",[0.7666666666666666],[0.677],1,638.589
2,False,110,1.311,78,[],[],"[(1151, 899)]",[],[1],[114],[1.9],"[640.0, 512.0]",vertical,"(390.0, 262.0)",[1.65],[0.573],1,642.723
2,False,111,0.862,51,[],[],"[(1166, 898)]",[],[1],[90],[1.5],"[640.0, 512.0]",vertical,"(890.0, 762.0)",[0.7333333333333333],[0.624],1,648.037
2,False,112,1.489,89,[],[],"[(1172, 900)]",[],[1],[120],[2.0],"[640.0, 512.0]",vertical,"(890.0, 262.0)",[1.3],[0.493],1,651.99
2,False,113,1.169,70,[],[],"[(1166, 872)]",[],[1],[98],[1.6333333333333333],"[640.0, 512.0]",horizontal,"(890.0, 262.0)",[1.3833333333333333],[0.439],1,656.777
2,False,114,0.605,36,[],[],"[(1175, 880)]",[],[1],[68],[1.1333333333333333],"[640.0, 512.0]",vertical,"(390.0, 762.0)",[1.2],[0.504],1,662.595
2,False,115,1.195,71,[],[],"[(1153, 902)]",[],[1],[105],[1.75],"[640.0, 512.0]",horizontal,"(890.0, 762.0)",[0.9666666666666667],[0.554],1,666.413
2,False,116,0.339,20,[],[],"[(1175, 883)]",[],[1],[70],[1.1666666666666667],"[640.0, 512.0]",vertical,"(390.0, 762.0)",[1.0166666666666666],[0.816],0,670.701
2,False,117,0.3,18,[],[],"[(1174, 911)]",[],[1],[58],[0.9666666666666667],"[640.0, 512.0]",horizontal,"(390.0, 762.0)",[1.3333333333333333],[0.653],1,674.469
2,False,118,0.401,24,[],[],"[(1190, 889)]",[],[1],[59],[0.9833333333333333],"[640.0, 512.0]",horizontal,"(390.0, 762.0)",[1.55],[0.556],1,678.413
2,False,119,1.055,63,[],[],"[(1172, 880)]",[],[1],[104],[1.7333333333333334],"[640.0, 512.0]",vertical,"(390.0, 762.0)",[1.05],[0.659],1,682.451
2,False,120,1.143,68,[],[],"[(1184, 897)]",[],[1],[102],[1.7],"[640.0, 512.0]",vertical,"(390.0, 762.0)",[1.1],[0.538],1,686.751
3,False,121,0.469,28,[],[],"[(1190, 897)]",[],[1],[57],[0.95],"[640.0, 512.0]",horizontal,"(890.0, 262.0)",[1.3833333333333333],[0.464],1,691.015
3,False,122,1.076,64,[],[],"[(1193, 898)]",[],[1],[94],[1.5666666666666667],"[640.0, 512.0]",vertical,"(890.0, 262.0)",[1.2333333333333334],[0.481],1,694.904
3,False,123,1.234,74,[],[],"[(1172, 885)]",[],[1],[108],[1.8],"[640.0, 512.0]",vertical,"(390.0, 262.0)",[0.55],[0.545],1,699.217
3,False,124,0.651,39,[],[],"[(1184, 888)]",[],[1],[72],[1.2],"[640.0, 512.0]",horizontal,"(390.0, 262.0)",[1.2333333333333334],[0.532],1,703.107
3,False,125,1.328,79,[],[],"[(1170, 889)]",[],[1],[107],[1.7833333333333332],"[640.0, 512.0]",horizontal,"(890.0, 262.0)",[0.9166666666666666],[0.447],1,707.441
3,False,126,0.812,48,[],[],"[(1194, 889)]",[],[1],[98],[1.6333333333333333],"[640.0, 512.0]",vertical,"(890.0, 762.0)",[0.5333333333333333],[0.805],0,717.674
3,False,127,1.241,74,[],[],"[(1190, 908)]",[],[1],[106],[1.7666666666666666],"[640.0, 512.0]",horizontal,"(390.0, 762.0)",[0.8166666666666667],[0.509],1,721.357
3,False,128,0.593,35,[],[],"[(1177, 900)]",[],[1],[71],[1.1833333333333333],"[640.0, 512.0]",vertical,"(890.0, 762.0)",[1.0666666666666667],[0.57],1,742.907
3,False,129,1.056,63,[],[],"[(1182, 892)]",[],[1],[96],[1.6],"[640.0, 512.0]",horizontal,"(890.0, 762.0)",[0.9],[0.531],1,746.672
3,False,130,0.63,37,[],[],"[(1220, 893)]",[],[1],[72],[1.2],"[640.0, 512.0]",horizontal,"(390.0, 762.0)",[0.9833333333333333],[0.562],1,750.685
3,False,131,0.449,26,[],[],"[(1164, 897)]",[],[1],[61],[1.0166666666666666],"[640.0, 512.0]",vertical,"(890.0, 762.0)",[0.9666666666666667],[0.559],1,754.351
3,False,132,1.25,75,[],[],"[(1172, 903)]",[],[1],[104],[1.7333333333333334],"[640.0, 512.0]",vertical,"(390.0, 262.0)",[1.4333333333333333],[0.457],1,757.871
3,False,133,0.713,42,[],[],"[(1220, 888)]",[],[1],[76],[1.2666666666666666],"[640.0, 512.0]",vertical,"(390.0, 762.0)",[1.1666666666666667],[0.541],1,762.587
3,False,134,0.845,50,[],[],"[(1153, 888)]",[],[1],[92],[1.5333333333333332],"[640.0, 512.0]",vertical,"(890.0, 262.0)",[1.4333333333333333],[0.675],1,766.522
3,False,135,0.432,25,[],[],"[(1181, 895)]",[],[1],[59],[0.9833333333333333],"[640.0, 512.0]",vertical,"(890.0, 262.0)",[0.8166666666666667],[0.539],1,771.024
3,False,136,0.922,55,[],[],"[(1153, 879)]",[],[1],[91],[1.5166666666666666],"[640.0, 512.0]",vertical,"(390.0, 762.0)",[1.2333333333333334],[0.579],1,774.433
3,False,137,1.163,69,[],[],"[(1166, 877)]",[],[1],[100],[1.6666666666666667],"[640.0, 512.0]",horizontal,"(390.0, 262.0)",[0.9166666666666666],[0.499],1,778.815
3,False,138,0.446,26,[],[],"[(1180, 886)]",[],[1],[56],[0.9333333333333333],"[640.0, 512.0]",vertical,"(390.0, 262.0)",[1.0166666666666666],[0.475],1,782.936
3,False,139,0.431,25,[],[],"[(1172, 888)]",[],[1],[63],[1.05],"[640.0, 512.0]",vertical,"(390.0, 262.0)",[0.8666666666666667],[0.611],1,786.41
3,False,140,1.372,82,[],[],"[(1178, 903)]",[],[1],[125],[2.0833333333333335],"[640.0, 512.0]",vertical,"(890.0, 262.0)",[0.75],[0.691],1,789.899
3,False,141,0.608,36,[],[],"[(1162, 877)]",[],[1],[68],[1.1333333333333333],"[640.0, 512.0]",horizontal,"(390.0, 262.0)",[0.6166666666666667],[0.51],1,794.369
3,False,142,0.325,19,[],[],"[(1172, 896)]",[],[1],[57],[0.95],"[640.0, 512.0]",vertical,"(890.0, 762.0)",[1.2333333333333334],[0.605],1,797.756
3,False,143,0.449,26,[],[],"[(1160, 894)]",[],[1],[63],[1.05],"[640.0, 512.0]",horizontal,"(890.0, 762.0)",[0.75],[0.589],1,801.454
3,False,144,0.926,55,[],[],"[(1196, 886)]",[],[1],[85],[1.4166666666666667],"[640.0, 512.0]",vertical,"(390.0, 762.0)",[1.4],[0.476],1,804.759
3,False,145,1.026,61,[],[],"[(1150, 899)]",[],[1],[93],[1.55],"[640.0, 512.0]",vertical,"(890.0, 762.0)",[1.1833333333333333],[0.507],1,809.083
3,False,146,0.987,59,[],[],"[(1197, 882)]",[],[1],[100],[1.6666666666666667],"[640.0, 512.0]",horizontal,"(890.0, 762.0)",[1.5833333333333333],[0.658],1,813.457
3,False,147,0.761,45,[],[],"[(1181, 907)]",[],[1],[77],[1.2833333333333332],"[640.0, 512.0]",vertical,"(890.0, 762.0)",[1.1166666666666667],[0.507],1,818.217
3,False,148,0.676,40,[],[],"[(1180, 894)]",[],[1],[73],[1.2166666666666666],"[640.0, 512.0]",horizontal,"(390.0, 262.0)",[1.35],[0.535],1,822.173
3,False,149,1.275,76,[],[],"[(1190, 896)]",[],[1],[108],[1.8],"[640.0, 512.0]",horizontal,"(890.0, 262.0)",[0.9],[0.509],1,826.293
3,False,150,0.762,45,[],[],"[(1172, 885)]",[],[1],[79],[1.3166666666666667],"[640.0, 512.0]",vertical,"(890.0, 262.0)",[0.5666666666666667],[0.545],1,830.497
3,False,151,0.698,41,[],[],"[(1177, 894)]",[],[1],[74],[1.2333333333333334],"[640.0, 512.0]",horizontal,"(890.0, 762.0)",[1.6166666666666667],[0.528],1,833.969
3,False,152,1.433,85,[],[],"[(1178, 879)]",[],[1],[117],[1.95],"[640.0, 512.0]",horizontal,"(390.0, 762.0)",[1.3166666666666667],[0.511],1,838.365
3,False,153,0.502,30,[],[],"[(1166, 889)]",[],[1],[62],[1.0333333333333332],"[640.0, 512.0]",horizontal,"(890.0, 262.0)",[1.0333333333333332],[0.508],1,843.122
3,False,154,1.433,85,[],[],"[(1172, 881)]",[],[1],[117],[1.95],"[640.0, 512.0]",vertical,"(890.0, 262.0)",[0.8166666666666667],[0.513],1,846.727
3,False,155,0.981,58,[],[],"[(1166, 861)]",[],[1],[99],[1.65],"[640.0, 512.0]",vertical,"(890.0, 262.0)",[0.6],[0.654],1,851.056
3,False,156,1.222,73,[],[],"[(1148, 873)]",[],[1],[106],[1.7666666666666666],"[640.0, 512.0]",horizontal,"(390.0, 262.0)",[0.9666666666666667],[0.523],1,854.886
3,False,157,0.373,22,[],[],"[(1176, 884)]",[],[1],[58],[0.9666666666666667],"[640.0, 512.0]",vertical,"(890.0, 762.0)",[1.25],[0.572],1,859.804
3,False,158,1.332,79,[],[],"[(1148, 905)]",[],[1],[111],[1.8499999999999999],"[640.0, 512.0]",vertical,"(890.0, 762.0)",[1.5833333333333333],[0.508],1,863.667
3,False,159,1.39,83,[],[],"[(1148, 890)]",[],[1],[113],[1.8833333333333333],"[640.0, 512.0]",vertical,"(390.0, 262.0)",[1.3833333333333333],[0.48],1,868.635
3,False,160,1.161,69,[],[],"[(1144, 894)]",[],[1],[100],[1.6666666666666667],"[640.0, 512.0]",vertical,"(390.0, 262.0)",[1.0333333333333332],[0.499],1,873.413
3,False,161,1.082,64,[],[],"[(1174, 903)]",[],[1],[98],[1.6333333333333333],"[640.0, 512.0]",vertical,"(390.0, 762.0)",[1.0166666666666666],[0.549],1,877.668
3,False,162,0.692,41,[],[],"[(1142, 888)]",[],[1],[73],[1.2166666666666666],"[640.0, 512.0]",horizontal,"(390.0, 262.0)",[1.4833333333333334],[0.516],1,881.865
3,False,163,0.644,38,[],[],"[(1144, 885)]",[],[1],[67],[1.1166666666666667],"[640.0, 512.0]",vertical,"(390.0, 262.0)",[0.95],[0.464],1,886.131
3,False,164,0.881,52,[],[],"[(1170, 865)]",[],[1],[82],[1.3666666666666667],"[640.0, 512.0]",horizontal,"(390.0, 262.0)",[1.0166666666666666],[0.476],1,895.44
3,False,165,0.363,21,[],[],"[(1149, 899)]",[],[1],[59],[0.9833333333333333],"[640.0, 512.0]",vertical,"(390.0, 762.0)",[1.0],[0.606],1,899.323
3,False,166,1.093,65,[],[],"[(1154, 896)]",[],[1],[96],[1.6],"[640.0, 512.0]",vertical,"(890.0, 762.0)",[1.1166666666666667],[0.49],1,902.839
3,False,167,0.408,24,[],[],"[(1172, 894)]",[],[1],[55],[0.9166666666666666],"[640.0, 512.0]",vertical,"(890.0, 262.0)",[1.2],[0.502],1,907.091
3,False,168,0.538,32,[],[],"[(1202, 888)]",[],[1],[63],[1.05],"[640.0, 512.0]",vertical,"(890.0, 262.0)",[1.6666666666666667],[0.497],1,910.787
3,False,169,0.686,41,[],[],"[(1153, 897)]",[],[1],[80],[1.3333333333333333],"[640.0, 512.0]",horizontal,"(890.0, 262.0)",[1.4],[0.621],1,914.974
3,False,170,1.208,72,[],[],"[(1172, 898)]",[],[1],[111],[1.8499999999999999],"[640.0, 512.0]",vertical,"(890.0, 262.0)",[0.6666666666666666],[0.63],1,919.233
3,False,171,1.199,71,[],[],"[(1184, 870)]",[],[1],[103],[1.7166666666666666],"[640.0, 512.0]",vertical,"(390.0, 262.0)",[0.8],[0.507],1,923.266
3,False,172,0.774,46,[],[],"[(1178, 884)]",[],[1],[81],[1.35],"[640.0, 512.0]",horizontal,"(890.0, 762.0)",[0.8333333333333334],[0.558],1,927.311
3,False,173,1.187,71,[],[],"[(1179, 887)]",[],[1],[103],[1.7166666666666666],"[640.0, 512.0]",horizontal,"(890.0, 262.0)",[1.5166666666666666],[0.518],1,931.031
3,False,174,0.867,52,[],[],"[(1178, 884)]",[],[1],[85],[1.4166666666666667],"[640.0, 512.0]",vertical,"(890.0, 762.0)",[1.5333333333333332],[0.527],1,935.85
3,False,175,0.797,47,[],[],"[(1174, 893)]",[],[1],[82],[1.3666666666666667],"[640.0, 512.0]",vertical,"(890.0, 762.0)",[0.7166666666666667],[0.561],1,940.34
3,False,176,1.253,75,[],[],"[(1166, 898)]",[],[1],[106],[1.7666666666666666],"[640.0, 512.0]",vertical,"(890.0, 262.0)",[0.5666666666666667],[0.492],1,944.001
3,False,177,1.31,78,[],[],"[(1172, 881)]",[],[1],[124],[2.0666666666666664],"[640.0, 512.0]",horizontal,"(890.0, 262.0)",[0.5666666666666667],[0.736],1,947.853
3,False,178,1.347,80,[],[],"[(1190, 904)]",[],[1],[114],[1.9],"[640.0, 512.0]",vertical,"(390.0, 762.0)",[1.1166666666666667],[0.54],1,952.021
3,False,179,0.913,54,[],[],"[(1178, 886)]",[],[1],[86],[1.4333333333333333],"[640.0, 512.0]",vertical,"(390.0, 262.0)",[0.6166666666666667],[0.507],1,956.656
3,False,180,0.84,50,[],[],"[(1178, 882)]",[],[1],[87],[1.45],"[640.0, 512.0]",vertical,"(390.0, 762.0)",[1.6333333333333333],[0.589],1,960.226
4,False,181,0.813,48,[],[],"[(1189, 890)]",[],[1],[98],[1.6333333333333333],"[640.0, 512.0]",horizontal,"(890.0, 762.0)",[1.0],[0.81],0,964.854
4,False,182,0.857,51,[],[],"[(1172, 903)]",[],[1],[83],[1.3833333333333333],"[640.0, 512.0]",horizontal,"(890.0, 262.0)",[0.7833333333333333],[0.511],1,969.007
4,False,183,0.627,37,[],[],"[(1149, 878)]",[],[1],[72],[1.2],"[640.0, 512.0]",horizontal,"(390.0, 262.0)",[0.55],[0.56],1,972.84
4,False,184,1.491,89,[],[],"[(1187, 889)]",[],[1],[133],[2.216666666666667],"[640.0, 512.0]",vertical,"(390.0, 762.0)",[1.1833333333333333],[0.715],1,976.654
4,False,185,0.916,54,[],[],"[(1172, 893)]",[],[1],[84],[1.4],"[640.0, 512.0]",vertical,"(390.0, 262.0)",[0.7333333333333333],[0.477],1,981.575
4,False,186,1.156,69,[],[],"[(1196, 876)]",[],[1],[104],[1.7333333333333334],"[640.0, 512.0]",horizontal,"(390.0, 762.0)",[0.85],[0.562],1,985.217
4,False,187,1.052,63,[],[],"[(1150, 894)]",[],[1],[98],[1.6333333333333333],"[640.0, 512.0]",vertical,"(390.0, 762.0)",[0.65],[0.563],1,989.306
4,False,188,1.021,61,[],[],"[(1158, 888)]",[],[1],[94],[1.5666666666666667],"[640.0, 512.0]",horizontal,"(890.0, 762.0)",[0.5],[0.522],1,993.116
4,False,189,0.774,46,[],[],"[(1178, 894)]",[],[1],[82],[1.3666666666666667],"[640.0, 512.0]",horizontal,"(390.0, 762.0)",[1.2333333333333334],[0.575],1,996.699
4,False,190,1.433,85,[],[],"[(1148, 910)]",[],[1],[116],[1.9333333333333333],"[640.0, 512.0]",horizontal,"(390.0, 262.0)",[0.9],[0.496],1,1000.76
4,False,191,0.621,37,[],[],"[(1193, 889)]",[],[1],[69],[1.15],"[640.0, 512.0]",vertical,"(890.0, 762.0)",[1.0333333333333332],[0.513],1,1005.116
4,False,192,1.235,74,[],[],"[(1192, 892)]",[],[1],[105],[1.75],"[640.0, 512.0]",vertical,"(390.0, 262.0)",[0.7166666666666667],[0.495],1,1008.826
4,False,193,0.651,39,[],[],"[(1193, 871)]",[],[1],[75],[1.25],"[640.0, 512.0]",horizontal,"(390.0, 762.0)",[0.7666666666666666],[0.575],1,1012.799
4,False,194,0.567,34,[],[],"[(1153, 903)]",[],[1],[69],[1.15],"[640.0, 512.0]",vertical,"(390.0, 762.0)",[1.2],[0.557],1,1016.297
4,False,195,0.59,35,[],[],"[(1178, 881)]",[],[1],[69],[1.15],"[640.0, 512.0]",vertical,"(890.0, 762.0)",[1.5333333333333332],[0.542],1,1020.188
4,False,196,1.383,82,[],[],"[(1172, 898)]",[],[1],[114],[1.9],"[640.0, 512.0]",vertical,"(890.0, 262.0)",[1.35],[0.507],1,1024.393
4,False,197,1.343,80,[],[],"[(1172, 871)]",[],[1],[117],[1.95],"[640.0, 512.0]",horizontal,"(390.0, 262.0)",[1.6833333333333333],[0.594],1,1029.131
4,False,198,0.605,36,[],[],"[(1184, 880)]",[],[1],[67],[1.1166666666666667],"[640.0, 512.0]",vertical,"(390.0, 262.0)",[0.8666666666666667],[0.492],1,1034.354
4,False,199,0.442,26,[],[],"[(1172, 876)]",[],[1],[58],[0.9666666666666667],"[640.0, 512.0]",vertical,"(890.0, 262.0)",[1.4],[0.508],1,1037.874
4,False,200,0.89,53,[],[],"[(1176, 885)]",[],[1],[86],[1.4333333333333333],"[640.0, 512.0]",vertical,"(890.0, 762.0)",[1.2166666666666666],[0.525],1,1041.735
4,False,201,1.278,76,[],[],"[(1178, 903)]",[],[1],[108],[1.8],"[640.0, 512.0]",horizontal,"(390.0, 762.0)",[1.4833333333333334],[0.511],1,1046.006
4,False,202,0.544,32,[],[],"[(1174, 893)]",[],[1],[65],[1.0833333333333333],"[640.0, 512.0]",horizontal,"(890.0, 762.0)",[0.9166666666666666],[0.528],1,1050.77
4,False,203,1.024,61,[],[],"[(1193, 889)]",[],[1],[95],[1.5833333333333333],"[640.0, 512.0]",horizontal,"(890.0, 762.0)",[1.3666666666666667],[0.548],1,1054.292
4,False,204,1.224,73,[],[],"[(1193, 890)]",[],[1],[111],[1.8499999999999999],"[640.0, 512.0]",vertical,"(890.0, 762.0)",[0.7166666666666667],[0.61],1,1058.775
4,False,205,0.418,25,[],[],"[(1196, 897)]",[],[1],[66],[1.1],"[640.0, 512.0]",vertical,"(890.0, 762.0)",[1.6666666666666667],[0.661],1,1062.857
4,False,206,0.388,23,[],[],"[(1191, 879)]",[],[1],[57],[0.95],"[640.0, 512.0]",horizontal,"(890.0, 762.0)",[0.9833333333333333],[0.54],1,1067.104
4,False,207,1.458,87,[],[],"[(1172, 879)]",[],[1],[127],[2.1166666666666667],"[640.0, 512.0]",horizontal,"(390.0, 762.0)",[1.35],[0.644],1,1070.521
4,False,208,1.087,65,[],[],"[(1172, 875)]",[],[1],[110],[1.8333333333333333],"[640.0, 512.0]",vertical,"(890.0, 762.0)",[0.6],[0.721],1,1075.521
4,False,209,1.052,63,[],[],"[(1188, 867)]",[],[1],[93],[1.55],"[640.0, 512.0]",horizontal,"(890.0, 762.0)",[1.55],[0.485],1,1079.475
4,False,210,0.554,33,[],[],"[(1158, 885)]",[],[1],[66],[1.1],"[640.0, 512.0]",horizontal,"(390.0, 262.0)",[1.3333333333333333],[0.528],1,1084.17
4,False,211,1.229,73,[],[],"[(1167, 879)]",[],[1],[105],[1.75],"[640.0, 512.0]",horizontal,"(890.0, 262.0)",[1.6666666666666667],[0.508],1,1088.127
4,False,212,0.82,49,[],[],"[(1178, 882)]",[],[1],[85],[1.4166666666666667],"[640.0, 512.0]",horizontal,"(390.0, 762.0)",[0.6166666666666667],[0.573],1,1093.08
4,False,213,0.776,46,[],[],"[(1163, 882)]",[],[1],[78],[1.3],"[640.0, 512.0]",horizontal,"(390.0, 262.0)",[1.5],[0.506],1,1096.641
4,False,214,0.303,18,[],[],"[(1166, 879)]",[],[1],[68],[1.1333333333333333],"[640.0, 512.0]",horizontal,"(890.0, 762.0)",[1.55],[0.8],0,1101.041
4,False,215,1.397,83,[],[],"[(1172, 877)]",[],[1],[115],[1.9166666666666667],"[640.0, 512.0]",horizontal,"(390.0, 762.0)",[0.9666666666666667],[0.509],1,1105.259
4,False,216,1.238,74,[],[],"[(1166, 888)]",[],[1],[104],[1.7333333333333334],"[640.0, 512.0]",horizontal,"(890.0, 262.0)",[1.3],[0.478],1,1132.212
4,False,217,1.269,76,[],[],"[(1185, 883)]",[],[1],[106],[1.7666666666666666],"[640.0, 512.0]",vertical,"(390.0, 262.0)",[1.4166666666666667],[0.474],1,1136.78
4,False,218,0.604,36,[],[],"[(1180, 882)]",[],[1],[66],[1.1],"[640.0, 512.0]",horizontal,"(890.0, 262.0)",[1.1333333333333333],[0.481],1,1141.451
4,False,219,0.376,22,[],[],"[(1176, 875)]",[],[1],[58],[0.9666666666666667],"[640.0, 512.0]",horizontal,"(390.0, 762.0)",[0.5166666666666666],[0.58],1,1145.183
4,False,220,0.307,18,[],[],"[(1150, 884)]",[],[1],[54],[0.9],"[640.0, 512.0]",horizontal,"(890.0, 762.0)",[1.1333333333333333],[0.574],1,1148.158
4,False,221,1.15,69,[],[],"[(1169, 886)]",[],[1],[111],[1.8499999999999999],"[640.0, 512.0]",horizontal,"(890.0, 762.0)",[1.5333333333333332],[0.674],1,1151.782
4,False,222,1.182,70,[],[],"[(1172, 885)]",[],[1],[102],[1.7],"[640.0, 512.0]",horizontal,"(890.0, 762.0)",[1.55],[0.514],1,1156.685
4,False,223,1.338,80,[],[],"[(1166, 855)]",[],[1],[113],[1.8833333333333333],"[640.0, 512.0]",horizontal,"(390.0, 262.0)",[0.9],[0.534],1,1161.525
4,False,224,1.436,86,[],[],"[(1176, 874)]",[],[1],[116],[1.9333333333333333],"[640.0, 512.0]",vertical,"(890.0, 262.0)",[1.2166666666666666],[0.482],1,1165.919
4,False,225,0.348,20,[],[],"[(1172, 874)]",[],[1],[52],[0.8666666666666667],"[640.0, 512.0]",horizontal,"(390.0, 762.0)",[1.5],[0.51],1,1170.603
4,False,226,1.006,60,[],[],"[(1184, 894)]",[],[1],[96],[1.6],"[640.0, 512.0]",horizontal,"(390.0, 762.0)",[0.6333333333333333],[0.577],1,1174.575
4,False,227,0.943,56,[],[],"[(1172, 886)]",[],[1],[89],[1.4833333333333334],"[640.0, 512.0]",horizontal,"(890.0, 762.0)",[0.85],[0.527],1,1178.385
4,False,228,0.957,57,[],[],"[(1166, 881)]",[],[1],[96],[1.6],"[640.0, 512.0]",horizontal,"(390.0, 762.0)",[1.15],[0.625],1,1182.291
4,False,229,0.993,59,[],[],"[(1172, 905)]",[],[1],[93],[1.55],"[640.0, 512.0]",vertical,"(390.0, 762.0)",[1.0],[0.542],1,1186.633
4,False,230,0.532,31,[],[],"[(1126, 879)]",[],[1],[64],[1.0666666666666667],"[640.0, 512.0]",vertical,"(390.0, 762.0)",[1.05],[0.526],1,1190.714
4,False,231,1.192,71,[],[],"[(1184, 899)]",[],[1],[104],[1.7333333333333334],"[640.0, 512.0]",vertical,"(890.0, 762.0)",[0.5833333333333334],[0.525],1,1194.36
4,False,232,0.599,35,[],[],"[(1166, 895)]",[],[1],[73],[1.2166666666666666],"[640.0, 512.0]",horizontal,"(390.0, 762.0)",[0.5833333333333334],[0.608],1,1198.175
4,False,233,1.135,68,[],[],"[(1154, 894)]",[],[1],[106],[1.7666666666666666],"[640.0, 512.0]",vertical,"(390.0, 762.0)",[0.5],[0.611],1,1201.524
4,False,234,1.018,61,[],[],"[(1178, 894)]",[],[1],[111],[1.8499999999999999],"[640.0, 512.0]",horizontal,"(890.0, 262.0)",[0.6166666666666667],[0.801],0,1205.333
4,False,235,1.201,72,[],[],"[(1188, 889)]",[],[1],[122],[2.033333333333333],"[640.0, 512.0]",vertical,"(890.0, 262.0)",[1.35],[0.807],0,1253.182
4,False,236,1.483,88,[1293348],[],"[(1177, 888), (1172, 898)]",[],"[1, 1]",[138],[2.3],"[640.0, 512.0]",vertical,"(390.0, 262.0)",[0.7833333333333333],[0.806],0,1282.21
4,False,237,1.285,77,[],[],"[(1167, 892)]",[],[1],[127],[2.1166666666666667],"[640.0, 512.0]",vertical,"(890.0, 762.0)",[1.5833333333333333],[0.801],0,1287.064
4,False,238,1.141,68,[],[],"[(1148, 894)]",[],[1],[118],[1.9666666666666666],"[640.0, 512.0]",vertical,"(390.0, 762.0)",[1.0166666666666666],[0.803],0,1292.359
4,False,239,1.452,87,[],[],"[(1203, 875)]",[],[1],[129],[2.15],"[640.0, 512.0]",horizontal,"(390.0, 262.0)",[0.5166666666666666],[0.673],1,1306.568
4,False,240,0.861,51,[],[],"[(1160, 857)]",[],[1],[85],[1.4166666666666667],"[640.0, 512.0]",vertical,"(390.0, 762.0)",[1.1],[0.54],1,1310.763
5,False,241,1.161,69,[],[],"[(1215, 888)]",[],[1],[108],[1.8],"[640.0, 512.0]",horizontal,"(890.0, 762.0)",[0.9833333333333333],[0.625],1,1315.057
5,False,242,0.483,28,[],[],"[(1190, 884)]",[],[1],[64],[1.0666666666666667],"[640.0, 512.0]",vertical,"(890.0, 762.0)",[1.2833333333333332],[0.577],1,1319.375
5,False,243,0.785,47,[],[],"[(1209, 886)]",[],[1],[81],[1.35],"[640.0, 512.0]",horizontal,"(390.0, 262.0)",[1.0833333333333333],[0.54],1,1323.276
5,False,244,0.865,51,[],[],"[(1178, 889)]",[],[1],[89],[1.4833333333333334],"[640.0, 512.0]",horizontal,"(390.0, 262.0)",[1.1333333333333333],[0.606],1,1327.207
5,False,245,1.215,72,[],[],"[(1184, 884)]",[],[1],[106],[1.7666666666666666],"[640.0, 512.0]",vertical,"(890.0, 762.0)",[1.0],[0.541],1,1331.711
5,False,246,0.418,25,[],[],"[(1197, 884)]",[],[1],[71],[1.1833333333333333],"[640.0, 512.0]",vertical,"(390.0, 262.0)",[0.7833333333333333],[0.739],1,1335.991
5,False,247,0.768,46,[],[],"[(1196, 889)]",[],[1],[96],[1.6],"[640.0, 512.0]",vertical,"(890.0, 762.0)",[0.8833333333333333],[0.8],0,1339.519
5,False,248,0.358,21,[],[],"[(1142, 872)]",[],[1],[67],[1.1166666666666667],"[640.0, 512.0]",vertical,"(390.0, 762.0)",[0.6666666666666666],[0.75],1,1343.513
5,False,249,0.765,45,[],[],"[(1196, 888)]",[],[1],[77],[1.2833333333333332],"[640.0, 512.0]",horizontal,"(390.0, 262.0)",[0.7666666666666666],[0.508],1,1347.463
5,False,250,0.727,43,[],[],"[(1181, 882)]",[],[1],[79],[1.3166666666666667],"[640.0, 512.0]",vertical,"(390.0, 762.0)",[0.5],[0.574],1,1351.025
5,False,251,0.502,30,[],[],"[(1172, 890)]",[],[1],[77],[1.2833333333333332],"[640.0, 512.0]",horizontal,"(890.0, 262.0)",[1.1166666666666667],[0.759],1,1354.409
5,False,252,1.401,84,[],[],"[(1196, 886)]",[],[1],[112],[1.8666666666666667],"[640.0, 512.0]",horizontal,"(890.0, 262.0)",[0.8666666666666667],[0.445],1,1358.364
5,False,253,1.192,71,[],[],"[(1190, 875)]",[],[1],[102],[1.7],"[640.0, 512.0]",vertical,"(390.0, 262.0)",[0.9],[0.494],1,1362.707
5,False,254,0.335,20,[],[],"[(1196, 883)]",[],[1],[57],[0.95],"[640.0, 512.0]",horizontal,"(390.0, 762.0)",[0.55],[0.598],1,1366.902
5,False,255,1.335,80,[],[],"[(1184, 873)]",[],[1],[87],[1.45],"[640.0, 512.0]",vertical,"(890.0, 262.0)",[1.4666666666666666],[0.099],1,1369.921
5,False,256,1.131,67,[],[],"[(1184, 904)]",[],[1],[98],[1.6333333333333333],"[640.0, 512.0]",vertical,"(390.0, 262.0)",[0.5166666666666666],[0.492],1,1374.581
5,False,257,0.306,18,[],[],"[(1220, 876)]",[],[1],[54],[0.9],"[640.0, 512.0]",vertical,"(890.0, 762.0)",[1.3166666666666667],[0.581],1,1398.108
5,False,258,1.388,83,[],[],"[(1233, 927), (1172, 882)]",[],"[0, 1]",[118],[1.9666666666666666],"[640.0, 512.0]",horizontal,"(890.0, 762.0)",[0.5833333333333334],[0.556],1,1401.851
5,False,259,0.838,50,[],[],"[(1172, 879)]",[],[1],[83],[1.3833333333333333],"[640.0, 512.0]",horizontal,"(390.0, 262.0)",[1.1666666666666667],[0.524],1,1407.499
5,False,260,1.482,88,[],[],"[(1209, 890)]",[],[1],[125],[2.0833333333333335],"[640.0, 512.0]",horizontal,"(890.0, 262.0)",[1.4],[0.588],1,1419.374
5,False,261,0.95,57,[],[],"[(1226, 888)]",[],[1],[107],[1.7833333333333332],"[640.0, 512.0]",horizontal,"(890.0, 762.0)",[1.2],[0.806],0,1424.383
5,False,262,0.382,22,[],[],"[(1177, 897)]",[],[1],[57],[0.95],"[640.0, 512.0]",vertical,"(890.0, 762.0)",[1.05],[0.562],1,1428.917
5,False,263,0.731,43,[],[],"[(1225, 877)]",[],[1],[77],[1.2833333333333332],"[640.0, 512.0]",horizontal,"(890.0, 762.0)",[0.95],[0.542],1,1433.641
5,False,264,0.877,52,[],[],"[(1229, 886)]",[],[1],[87],[1.45],"[640.0, 512.0]",vertical,"(390.0, 762.0)",[0.9166666666666666],[0.557],1,1437.392
5,False,265,1.367,82,[],[],"[(1178, 902)]",[],[1],[114],[1.9],"[640.0, 512.0]",vertical,"(890.0, 762.0)",[0.5],[0.507],1,1441.288
5,False,266,0.974,58,[],[],"[(1186, 881)]",[],[1],[88],[1.4666666666666666],"[640.0, 512.0]",vertical,"(890.0, 262.0)",[1.0166666666666666],[0.474],1,1445.727
5,False,267,0.968,58,[],[],"[(1215, 873)]",[],[1],[88],[1.4666666666666666],"[640.0, 512.0]",vertical,"(890.0, 262.0)",[1.0666666666666667],[0.478],1,1449.701
5,False,268,0.778,46,[],[],"[(1180, 879)]",[],[1],[86],[1.4333333333333333],"[640.0, 512.0]",horizontal,"(390.0, 762.0)",[0.8],[0.64],1,1453.772
5,False,269,0.941,56,[],[],"[(1226, 883)]",[],[1],[89],[1.4833333333333334],"[640.0, 512.0]",vertical,"(390.0, 762.0)",[1.0],[0.525],1,1457.755
5,False,270,0.497,29,[],[],"[(1215, 872)]",[],[1],[60],[1.0],"[640.0, 512.0]",horizontal,"(890.0, 262.0)",[1.65],[0.493],1,1462.522
5,False,271,0.335,20,[],[],"[(1214, 878)]",[],[1],[58],[0.9666666666666667],"[640.0, 512.0]",horizontal,"(390.0, 762.0)",[0.5833333333333334],[0.612],1,1466.724
5,False,272,1.209,72,[],[],"[(1233, 879), (1196, 879)]",[],"[0, 1]",[113],[1.8833333333333333],"[640.0, 512.0]",vertical,"(890.0, 762.0)",[0.95],[0.659],1,1469.807
5,False,273,0.807,48,[],[],"[(1252, 884), (1178, 881)]",[],"[0, 1]",[96],[1.6],"[640.0, 512.0]",vertical,"(390.0, 762.0)",[1.3],[0.778],1,1475.135
5,False,274,1.065,63,[],[],"[(1157, 865)]",[],[1],[113],[1.8833333333333333],"[640.0, 512.0]",vertical,"(390.0, 762.0)",[1.4666666666666666],[0.802],0,1480.741
5,False,275,1.408,84,[],[],"[(1204, 907)]",[],[1],[106],[1.7666666666666666],"[640.0, 512.0]",vertical,"(390.0, 762.0)",[1.55],[0.344],1,1496.694
5,False,276,0.494,29,[],[],"[(1176, 881)]",[],[1],[68],[1.1333333333333333],"[640.0, 512.0]",horizontal,"(390.0, 762.0)",[1.5],[0.624],1,1506.518
5,False,277,1.319,79,[],[],"[(1166, 889)]",[],[1],[113],[1.8833333333333333],"[640.0, 512.0]",vertical,"(390.0, 262.0)",[1.0833333333333333],[0.547],1,1510.675
5,False,278,0.808,48,[],[],"[(1214, 891)]",[],[1],[82],[1.3666666666666667],"[640.0, 512.0]",horizontal,"(890.0, 262.0)",[0.75],[0.543],1,1521.288
5,False,279,0.593,35,[],[],"[(1196, 889)]",[],[1],[68],[1.1333333333333333],"[640.0, 512.0]",horizontal,"(390.0, 262.0)",[0.5],[0.526],1,1524.917
5,False,280,0.891,53,[],[],"[(1196, 889)]",[],[1],[91],[1.5166666666666666],"[640.0, 512.0]",vertical,"(890.0, 762.0)",[1.4166666666666667],[0.612],1,1528.088
5,False,281,1.483,88,[],[],"[(1238, 893), (1231, 874), (1178, 894)]",[],"[0, 0, 1]",[122],[2.033333333333333],"[640.0, 512.0]",vertical,"(890.0, 262.0)",[0.6166666666666667],[0.542],1,1532.543
5,False,282,0.512,30,[],[],"[(1240, 867), (1180, 878)]",[],"[0, 1]",[64],[1.0666666666666667],"[640.0, 512.0]",vertical,"(390.0, 762.0)",[0.6666666666666666],[0.544],1,1539.338
5,False,283,1.118,67,[],[],"[(1190, 889)]",[],[1],[99],[1.65],"[640.0, 512.0]",vertical,"(390.0, 262.0)",[1.2166666666666666],[0.512],1,1543.567
5,False,284,1.145,68,[],[],"[(1153, 880)]",[],[1],[97],[1.6166666666666667],"[640.0, 512.0]",horizontal,"(390.0, 262.0)",[1.4833333333333334],[0.464],1,1547.93
5,False,285,1.409,84,[],[],"[(1200, 890)]",[],[1],[123],[2.05],"[640.0, 512.0]",horizontal,"(390.0, 262.0)",[1.1333333333333333],[0.625],1,1558.972
5,False,286,0.309,18,[],[],"[(1196, 880)]",[],[1],[58],[0.9666666666666667],"[640.0, 512.0]",vertical,"(890.0, 762.0)",[0.5],[0.642],1,1563.658
5,False,287,1.367,82,[],[],"[(1227, 884)]",[],[1],[116],[1.9333333333333333],"[640.0, 512.0]",horizontal,"(890.0, 762.0)",[0.85],[0.541],1,1566.648
5,False,288,0.85,51,[],[],"[(1192, 892)]",[],[1],[81],[1.35],"[640.0, 512.0]",horizontal,"(390.0, 262.0)",[1.4],[0.478],1,1570.941
5,False,289,1.097,65,[],[],"[(1190, 880)]",[],[1],[103],[1.7166666666666666],"[640.0, 512.0]",horizontal,"(390.0, 762.0)",[0.55],[0.603],1,1575.177
5,False,290,1.065,63,[],[],"[(1148, 879)]",[],[1],[100],[1.6666666666666667],"[640.0, 512.0]",vertical,"(890.0, 762.0)",[0.5666666666666667],[0.587],1,1578.987
5,False,291,1.378,82,[],[],"[(1185, 884)]",[],[1],[116],[1.9333333333333333],"[640.0, 512.0]",horizontal,"(890.0, 762.0)",[0.6666666666666666],[0.543],1,1585.458
5,False,292,0.731,43,[],[],"[(1221, 876)]",[],[1],[76],[1.2666666666666666],"[640.0, 512.0]",vertical,"(890.0, 262.0)",[0.7],[0.527],1,1589.577
5,False,293,1.022,61,[],[],"[(1203, 875)]",[],[1],[92],[1.5333333333333332],"[640.0, 512.0]",horizontal,"(890.0, 262.0)",[1.35],[0.496],1,1593.056
5,False,294,0.819,49,[],[],"[(1190, 878)]",[],[1],[86],[1.4333333333333333],"[640.0, 512.0]",vertical,"(390.0, 262.0)",[1.3],[0.605],1,1597.471
5,False,295,1.49,89,[],[],"[(1196, 879)]",[],[1],[120],[2.0],"[640.0, 512.0]",vertical,"(890.0, 262.0)",[0.65],[0.493],1,1601.803
5,False,296,0.603,36,[],[],"[(1193, 882)]",[],[1],[71],[1.1833333333333333],"[640.0, 512.0]",horizontal,"(390.0, 762.0)",[0.5],[0.553],1,1606.009
5,False,297,1.268,76,[],[],"[(1197, 890)]",[],[1],[126],[2.1],"[640.0, 512.0]",horizontal,"(890.0, 762.0)",[0.8166666666666667],[0.802],0,1609.223
5,False,298,0.303,18,[],[],"[(1180, 873)]",[],[1],[49],[0.8166666666666667],"[640.0, 512.0]",vertical,"(390.0, 262.0)",[0.5666666666666667],[0.488],1,1613.658
5,False,299,1.124,67,[],[],"[(1199, 879)]",[],[1],[105],[1.75],"[640.0, 512.0]",horizontal,"(390.0, 762.0)",[0.8],[0.607],1,1618.081
5,False,300,0.705,42,[],[],"[(1160, 902)]",[],[1],[75],[1.25],"[640.0, 512.0]",vertical,"(890.0, 262.0)",[0.55],[0.53],1,1622.11
6,False,301,0.402,24,[],[],"[(1181, 895)]",[],[1],[66],[1.1],"[640.0, 512.0]",vertical,"(890.0, 762.0)",[0.75],[0.671],1,1625.481
6,False,302,1.442,86,[],[],"[(1217, 873)]",[],[1],[119],[1.9833333333333334],"[640.0, 512.0]",horizontal,"(890.0, 762.0)",[0.75],[0.528],1,1628.859
6,False,303,0.47,28,[],[],"[(1196, 882)]",[],[1],[59],[0.9833333333333333],"[640.0, 512.0]",vertical,"(890.0, 262.0)",[0.8333333333333334],[0.492],1,1633.089
6,False,304,0.893,53,[],[],"[(1191, 884)]",[],[1],[86],[1.4333333333333333],"[640.0, 512.0]",horizontal,"(390.0, 762.0)",[1.1],[0.524],1,1636.421
6,False,305,0.783,46,[],[],"[(1172, 898)]",[],[1],[96],[1.6],"[640.0, 512.0]",vertical,"(890.0, 262.0)",[1.2333333333333334],[0.799],0,1640.459
6,False,306,0.743,44,[],[],"[(1192, 865)]",[],[1],[77],[1.2833333333333332],"[640.0, 512.0]",horizontal,"(890.0, 762.0)",[1.55],[0.527],1,1644.841
6,False,307,0.63,37,[],[],"[(1215, 884)]",[],[1],[71],[1.1833333333333333],"[640.0, 512.0]",horizontal,"(890.0, 262.0)",[0.5],[0.544],1,1652.363
6,False,308,0.37,22,[],[],"[(1210, 894)]",[],[1],[53],[0.8833333333333333],"[640.0, 512.0]",horizontal,"(890.0, 262.0)",[1.1833333333333333],[0.494],1,1655.582
6,False,309,1.213,72,[],[],"[(1190, 893)]",[],[1],[103],[1.7166666666666666],"[640.0, 512.0]",vertical,"(890.0, 762.0)",[1.6166666666666667],[0.489],1,1659.158
6,False,310,0.447,26,[],[],"[(1175, 870)]",[],[1],[60],[1.0],"[640.0, 512.0]",horizontal,"(390.0, 762.0)",[1.6833333333333333],[0.541],1,1663.998
6,False,311,1.198,71,[],[],"[(1153, 895)]",[],[1],[100],[1.6666666666666667],"[640.0, 512.0]",horizontal,"(890.0, 262.0)",[1.3666666666666667],[0.459],1,1668.517
6,False,312,0.888,53,[],[],"[(1196, 901)]",[],[1],[83],[1.3833333333333333],"[640.0, 512.0]",horizontal,"(890.0, 762.0)",[1.6666666666666667],[0.475],1,1673.169
6,False,313,1.48,88,[],[],"[(1201, 889)]",[],[1],[123],[2.05],"[640.0, 512.0]",vertical,"(390.0, 762.0)",[1.35],[0.556],1,1677.769
6,False,314,1.5,90,[],[],"[(1148, 881)]",[],[1],[122],[2.033333333333333],"[640.0, 512.0]",vertical,"(390.0, 762.0)",[0.9],[0.509],1,1682.721
6,False,315,1.362,81,[],[],"[(1184, 894)]",[],[1],[112],[1.8666666666666667],"[640.0, 512.0]",vertical,"(890.0, 762.0)",[1.3333333333333333],[0.493],1,1691.507
6,False,316,0.303,18,[],[],"[(1184, 888)]",[],[1],[51],[0.85],"[640.0, 512.0]",horizontal,"(890.0, 262.0)",[1.1166666666666667],[0.529],1,1696.925
6,False,317,0.358,21,[],[],"[(1184, 887)]",[],[1],[54],[0.9],"[640.0, 512.0]",horizontal,"(890.0, 262.0)",[0.6333333333333333],[0.524],1,1700.42
6,False,318,1.457,87,[],[],"[(1215, 886)]",[],[1],[107],[1.7833333333333332],"[640.0, 512.0]",horizontal,"(890.0, 762.0)",[1.3666666666666667],[0.311],1,1703.465
6,False,319,0.403,24,[],[],"[(1184, 882)]",[],[1],[53],[0.8833333333333333],"[640.0, 512.0]",vertical,"(890.0, 262.0)",[1.3333333333333333],[0.458],1,1708.085
6,False,320,1.452,87,[],[],"[(1206, 879)]",[],[1],[117],[1.95],"[640.0, 512.0]",vertical,"(390.0, 262.0)",[1.15],[0.474],1,1711.827
6,False,321,0.519,31,[],[],"[(1190, 889)]",[],[1],[63],[1.05],"[640.0, 512.0]",horizontal,"(390.0, 762.0)",[1.1333333333333333],[0.513],1,1716.445
6,False,322,1.28,76,[],[],"[(1167, 908)]",[],[1],[111],[1.8499999999999999],"[640.0, 512.0]",vertical,"(390.0, 762.0)",[1.3333333333333333],[0.557],1,1720.138
6,False,323,0.776,46,[],[],"[(1226, 875)]",[],[1],[77],[1.2833333333333332],"[640.0, 512.0]",vertical,"(390.0, 262.0)",[1.65],[0.497],1,1724.911
6,False,324,1.446,86,[],[],"[(1189, 882)]",[],[1],[118],[1.9666666666666666],"[640.0, 512.0]",vertical,"(890.0, 762.0)",[1.3833333333333333],[0.513],1,1729.355
6,False,325,0.415,24,[],[],"[(1186, 894)]",[],[1],[63],[1.05],"[640.0, 512.0]",vertical,"(890.0, 762.0)",[1.5333333333333332],[0.625],1,1734.254
6,False,326,0.395,23,[],[],"[(1190, 889)]",[],[1],[67],[1.1166666666666667],"[640.0, 512.0]",horizontal,"(390.0, 762.0)",[1.55],[0.705],1,1738.36
6,False,327,0.728,43,[],[],"[(1193, 887)]",[],[1],[78],[1.3],"[640.0, 512.0]",horizontal,"(890.0, 262.0)",[1.6],[0.56],1,1742.517
6,False,328,0.914,54,[],[],"[(1175, 881)]",[],[1],[86],[1.4333333333333333],"[640.0, 512.0]",vertical,"(390.0, 262.0)",[1.0333333333333332],[0.511],1,1746.914
6,False,329,1.362,81,[],[],"[(1193, 885)]",[],[1],[],[],"[640.0, 512.0]",horizontal,"(390.0, 262.0)",[],[0],0,1750.907
6,False,330,1.368,82,[],[],"[(1228, 868)]",[],[1],[116],[1.9333333333333333],"[640.0, 512.0]",horizontal,"(890.0, 762.0)",[0.6666666666666666],[0.54],1,1755.147
6,False,331,1.192,71,[],[],"[(1184, 888)]",[],[1],[108],[1.8],"[640.0, 512.0]",horizontal,"(890.0, 262.0)",[0.8],[0.597],1,1759.29
6,False,332,1.022,61,[],[],"[(1184, 893)]",[],[1],[94],[1.5666666666666667],"[640.0, 512.0]",horizontal,"(890.0, 762.0)",[1.0833333333333333],[0.527],1,1763.433
6,False,333,0.387,23,[],[],"[(1190, 873)]",[],[1],[73],[1.2166666666666666],"[640.0, 512.0]",vertical,"(390.0, 262.0)",[0.5666666666666667],[0.805],0,1767.589
6,False,334,0.787,47,[],[],"[(1226, 879)]",[],[1],[83],[1.3833333333333333],"[640.0, 512.0]",vertical,"(890.0, 262.0)",[1.35],[0.577],1,1770.89
6,False,335,0.741,44,[],[],"[(1190, 888)]",[],[1],[75],[1.25],"[640.0, 512.0]",vertical,"(390.0, 262.0)",[1.0],[0.493],1,1775.148
6,False,336,0.576,34,[],[],"[(1192, 879)]",[],[1],[73],[1.2166666666666666],"[640.0, 512.0]",horizontal,"(390.0, 762.0)",[0.65],[0.624],1,1778.946
6,False,337,1.452,87,[],[],"[(1196, 892)]",[],[1],[131],[2.183333333333333],"[640.0, 512.0]",vertical,"(890.0, 262.0)",[0.8666666666666667],[0.705],1,1782.374
6,False,338,0.67,40,[],[],"[(1215, 889)]",[],[1],[74],[1.2333333333333334],"[640.0, 512.0]",horizontal,"(890.0, 262.0)",[0.6],[0.544],1,1786.923
6,False,339,0.672,40,[],[],"[(1184, 894)]",[],[1],[80],[1.3333333333333333],"[640.0, 512.0]",horizontal,"(890.0, 762.0)",[0.6666666666666666],[0.644],1,1790.274
6,False,340,1.375,82,[],[],"[(1187, 893)]",[],[1],[112],[1.8666666666666667],"[640.0, 512.0]",horizontal,"(390.0, 762.0)",[1.6],[0.478],1,1793.823
6,False,341,1.002,60,[],[],"[(1186, 874)]",[],[1],[92],[1.5333333333333332],"[640.0, 512.0]",vertical,"(390.0, 262.0)",[0.55],[0.514],1,1798.789
6,False,342,0.932,55,[],[],"[(1197, 898)]",[],[1],[88],[1.4666666666666666],"[640.0, 512.0]",horizontal,"(390.0, 262.0)",[1.1833333333333333],[0.526],1,1802.421
6,False,343,0.3,18,[],[],"[(1196, 903)]",[],[1],[49],[0.8166666666666667],"[640.0, 512.0]",vertical,"(890.0, 762.0)",[1.4166666666666667],[0.494],1,1806.592
6,False,344,0.347,20,[],[],"[(1154, 884)]",[],[1],[53],[0.8833333333333333],"[640.0, 512.0]",horizontal,"(890.0, 762.0)",[1.6333333333333333],[0.528],1,1810.341
6,False,345,0.844,50,[],[],"[(1192, 887)]",[],[1],[81],[1.35],"[640.0, 512.0]",horizontal,"(390.0, 262.0)",[1.5],[0.494],1,1814.377
6,False,346,0.924,55,[],[],"[(1227, 884)]",[],[1],[88],[1.4666666666666666],"[640.0, 512.0]",horizontal,"(890.0, 262.0)",[1.0],[0.525],1,1818.758
6,False,347,0.709,42,[],[],"[(1199, 883)]",[],[1],[87],[1.45],"[640.0, 512.0]",vertical,"(390.0, 262.0)",[0.8],[0.728],1,1822.753
6,False,348,0.638,38,[],[],"[(1160, 899)]",[],[1],[70],[1.1666666666666667],"[640.0, 512.0]",horizontal,"(890.0, 762.0)",[1.0166666666666666],[0.506],1,1826.556
6,False,349,1.208,72,[],[],"[(1190, 877)]",[],[1],[102],[1.7],"[640.0, 512.0]",vertical,"(390.0, 262.0)",[1.3],[0.473],1,1836.059
6,False,350,0.679,40,[],[],"[(1172, 884)]",[],[1],[82],[1.3666666666666667],"[640.0, 512.0]",vertical,"(390.0, 762.0)",[0.9166666666666666],[0.68],1,1840.62
6,False,351,0.45,27,[],[],"[(1197, 881)]",[],[1],[60],[1.0],"[640.0, 512.0]",horizontal,"(390.0, 262.0)",[1.0166666666666666],[0.525],1,1844.494
6,False,352,0.657,39,[],[],"[(1188, 877)]",[],[1],[76],[1.2666666666666666],"[640.0, 512.0]",horizontal,"(390.0, 762.0)",[1.45],[0.591],1,1848.044
6,False,353,1.011,60,[],[],"[(1212, 886)]",[],[1],[95],[1.5833333333333333],"[640.0, 512.0]",vertical,"(890.0, 762.0)",[0.6833333333333333],[0.555],1,1852.29
6,False,354,1.118,67,[],[],"[(1196, 887)]",[],[1],[102],[1.7],"[640.0, 512.0]",horizontal,"(390.0, 262.0)",[0.9],[0.557],1,1856.121
6,False,355,0.644,38,[],[],"[(1180, 900)]",[],[1],[69],[1.15],"[640.0, 512.0]",horizontal,"(890.0, 262.0)",[1.2],[0.495],1,1860.239
6,False,356,0.491,29,[],[],"[(1167, 888)]",[],[1],[67],[1.1166666666666667],"[640.0, 512.0]",vertical,"(890.0, 762.0)",[0.6833333333333333],[0.606],1,1864.161
6,False,357,1.042,62,[],[],"[(1221, 875)]",[],[1],[93],[1.55],"[640.0, 512.0]",horizontal,"(390.0, 262.0)",[1.5166666666666666],[0.494],1,1867.49
6,False,358,0.858,51,[],[],"[(1218, 872)]",[],[1],[85],[1.4166666666666667],"[640.0, 512.0]",horizontal,"(390.0, 762.0)",[1.5166666666666666],[0.544],1,1872.058
6,False,359,0.719,43,[],[],"[(1184, 879)]",[],[1],[78],[1.3],"[640.0, 512.0]",vertical,"(390.0, 762.0)",[1.2],[0.55],1,1876.464
6,False,360,1.076,64,[],[],"[(1196, 870)]",[],[1],[99],[1.65],"[640.0, 512.0]",vertical,"(390.0, 262.0)",[0.5333333333333333],[0.559],1,1880.543
7,False,361,0.59,35,[],[],"[(1196, 884)]",[],[1],[66],[1.1],"[640.0, 512.0]",vertical,"(890.0, 262.0)",[1.1666666666666667],[0.495],1,1884.191
7,False,362,1.304,78,[],[],"[(1221, 881)]",[],[1],[108],[1.8],"[640.0, 512.0]",vertical,"(390.0, 262.0)",[1.5833333333333333],[0.479],1,1888.049
7,False,363,0.436,26,[],[],"[(1172, 880)]",[],[1],[64],[1.0666666666666667],"[640.0, 512.0]",vertical,"(390.0, 762.0)",[0.9166666666666666],[0.606],1,1892.924
7,False,364,0.53,31,[],[],"[(1178, 876)]",[],[1],[62],[1.0333333333333332],"[640.0, 512.0]",horizontal,"(890.0, 762.0)",[1.6166666666666667],[0.494],1,1896.465
7,False,365,0.518,31,[],[],"[(1228, 866)]",[],[1],[63],[1.05],"[640.0, 512.0]",vertical,"(890.0, 762.0)",[1.0666666666666667],[0.509],1,1900.665
7,False,366,0.461,27,[],[],"[(1196, 889)]",[],[1],[59],[0.9833333333333333],"[640.0, 512.0]",horizontal,"(390.0, 262.0)",[1.2333333333333334],[0.51],1,1904.261
7,False,367,0.832,49,[],[],"[(1196, 889)]",[],[1],[80],[1.3333333333333333],"[640.0, 512.0]",vertical,"(890.0, 262.0)",[0.5833333333333334],[0.491],1,1908.375
7,False,368,1.302,78,[],[],"[(1212, 895)]",[],[1],[113],[1.8833333333333333],"[640.0, 512.0]",horizontal,"(890.0, 762.0)",[1.4833333333333334],[0.559],1,1911.861
7,False,369,0.805,48,[],[],"[(1198, 874)]",[],[1],[82],[1.3666666666666667],"[640.0, 512.0]",vertical,"(390.0, 762.0)",[1.4166666666666667],[0.542],1,1916.758
7,False,370,0.909,54,[],[],"[(1196, 895)]",[],[1],[85],[1.4166666666666667],"[640.0, 512.0]",vertical,"(390.0, 262.0)",[0.8666666666666667],[0.492],1,1921.045
7,False,371,0.664,39,[],[],"[(1196, 889)]",[],[1],[70],[1.1666666666666667],"[640.0, 512.0]",vertical,"(890.0, 762.0)",[1.0666666666666667],[0.496],1,1924.842
7,False,372,0.73,43,[],[],"[(1194, 881)]",[],[1],[76],[1.2666666666666666],"[640.0, 512.0]",vertical,"(890.0, 262.0)",[0.8166666666666667],[0.528],1,1928.674
7,False,373,0.43,25,[],[],"[(1196, 881)]",[],[1],[54],[0.9],"[640.0, 512.0]",horizontal,"(890.0, 262.0)",[1.3333333333333333],[0.459],1,1932.243
7,False,374,1.031,61,[],[],"[(1226, 890)]",[],[1],[91],[1.5166666666666666],"[640.0, 512.0]",vertical,"(890.0, 262.0)",[1.5333333333333332],[0.479],1,1936.028
7,False,375,1.475,88,[],[],"[(1192, 889)]",[],[1],[119],[1.9833333333333334],"[640.0, 512.0]",vertical,"(390.0, 262.0)",[1.1],[0.499],1,1940.591
7,False,376,1.275,76,[],[],"[(1147, 882)]",[],[1],[105],[1.75],"[640.0, 512.0]",vertical,"(390.0, 262.0)",[0.9333333333333333],[0.461],1,1945.198
7,False,377,0.951,57,[],[],"[(1196, 896)]",[],[1],[95],[1.5833333333333333],"[640.0, 512.0]",vertical,"(390.0, 262.0)",[1.0666666666666667],[0.609],1,1949.499
7,False,378,0.544,32,[],[],"[(1196, 903)]",[],[1],[63],[1.05],"[640.0, 512.0]",horizontal,"(390.0, 262.0)",[1.5333333333333332],[0.491],1,1953.66
7,False,379,1.051,63,[],[],"[(1220, 880)]",[],[1],[100],[1.6666666666666667],"[640.0, 512.0]",horizontal,"(390.0, 762.0)",[0.75],[0.605],1,1957.779
7,False,380,0.956,57,[],[],"[(1196, 890)]",[],[1],[93],[1.55],"[640.0, 512.0]",horizontal,"(390.0, 762.0)",[1.15],[0.576],1,1961.729
7,False,381,0.548,32,[],[],"[(1196, 869)]",[],[1],[71],[1.1833333333333333],"[640.0, 512.0]",horizontal,"(890.0, 262.0)",[1.25],[0.621],1,1966.019
7,False,382,1.128,67,[],[],"[(1196, 885)]",[],[1],[97],[1.6166666666666667],"[640.0, 512.0]",vertical,"(890.0, 262.0)",[1.3333333333333333],[0.473],1,1969.946
7,False,383,1.212,72,[],[],"[(1183, 892)]",[],[1],[105],[1.75],"[640.0, 512.0]",vertical,"(890.0, 762.0)",[1.35],[0.528],1,1974.375
7,False,384,1.128,67,[],[],"[(1196, 880)]",[],[1],[99],[1.65],"[640.0, 512.0]",vertical,"(390.0, 762.0)",[0.9166666666666666],[0.512],1,1978.98
7,False,385,0.367,22,[],[],"[(1195, 880)]",[],[1],[55],[0.9166666666666666],"[640.0, 512.0]",horizontal,"(390.0, 762.0)",[1.0833333333333333],[0.524],1,1983.06
7,False,386,0.961,57,[],[],"[(1196, 880)]",[],[1],[82],[1.3666666666666667],"[640.0, 512.0]",horizontal,"(390.0, 262.0)",[1.3333333333333333],[0.395],1,1986.574
7,False,387,0.45,27,[],[],"[(1223, 875)]",[],[1],[59],[0.9833333333333333],"[640.0, 512.0]",horizontal,"(890.0, 262.0)",[1.0333333333333332],[0.513],1,1990.805
7,False,388,1.212,72,[],[],"[(1191, 871)]",[],[1],[99],[1.65],"[640.0, 512.0]",horizontal,"(890.0, 262.0)",[1.6166666666666667],[0.425],1,1994.356
7,False,389,0.376,22,[],[],"[(1184, 863)]",[],[1],[61],[1.0166666666666666],"[640.0, 512.0]",horizontal,"(390.0, 762.0)",[1.2333333333333334],[0.623],1,1999.154
7,False,390,1.261,75,[],[],"[(1172, 888)]",[],[1],[105],[1.75],"[640.0, 512.0]",horizontal,"(390.0, 262.0)",[1.0],[0.479],1,2002.971
7,False,391,1.235,74,[],[],"[(1183, 875)]",[],[1],[108],[1.8],"[640.0, 512.0]",vertical,"(390.0, 262.0)",[1.2333333333333334],[0.539],1,2007.233
7,False,392,0.53,31,[],[],"[(1221, 875)]",[],[1],[62],[1.0333333333333332],"[640.0, 512.0]",vertical,"(890.0, 262.0)",[0.7666666666666666],[0.488],1,2012.077
7,False,393,0.633,37,[],[],"[(1197, 871)]",[],[1],[78],[1.3],"[640.0, 512.0]",horizontal,"(390.0, 762.0)",[0.9166666666666666],[0.664],1,2015.346
7,False,394,1.092,65,[],[],"[(1198, 884)]",[],[1],[96],[1.6],"[640.0, 512.0]",vertical,"(390.0, 262.0)",[1.1],[0.496],1,2019.103
7,False,395,1.377,82,[],[],"[(660, 1000), (775, 706), (664, 990), (642, 1009), (1183, 898)]",[],"[0, 0, 0, 0, 1]",[132],[2.2],"[640.0, 512.0]",horizontal,"(890.0, 262.0)",[0.8166666666666667],[0.804],0,2023.328
7,False,396,0.548,32,[],[],"[(1172, 889)]",[],[1],[61],[1.0166666666666666],"[640.0, 512.0]",vertical,"(890.0, 262.0)",[1.0666666666666667],[0.46],1,2069.573
7,False,397,1.49,89,[],[],"[(1183, 896)]",[],[1],[118],[1.9666666666666666],"[640.0, 512.0]",vertical,"(390.0, 262.0)",[1.5166666666666666],[0.472],1,2077.025
7,False,398,0.501,30,[],[],"[(1227, 883)]",[],[1],[65],[1.0833333333333333],"[640.0, 512.0]",vertical,"(390.0, 262.0)",[0.7666666666666666],[0.559],1,2082.062
7,False,399,0.444,26,[],[],"[(1203, 889)]",[],[1],[67],[1.1166666666666667],"[640.0, 512.0]",horizontal,"(390.0, 762.0)",[0.5],[0.66],1,2085.423
7,False,400,0.517,31,[],[],"[(1221, 898)]",[],[1],[69],[1.15],"[640.0, 512.0]",vertical,"(890.0, 762.0)",[0.9166666666666666],[0.602],1,2088.541
7,False,401,1.084,65,[],[],"[(1178, 872)]",[],[1],[115],[1.9166666666666667],"[640.0, 512.0]",horizontal,"(890.0, 762.0)",[1.2833333333333332],[0.8],0,2092.093
7,False,402,1.034,62,[],[],"[(1237, 882), (1183, 872)]",[],"[0, 1]",[95],[1.5833333333333333],"[640.0, 512.0]",horizontal,"(890.0, 262.0)",[1.1333333333333333],[0.527],1,2097.89
7,False,403,0.536,32,[],[],"[(1221, 877)]",[],[1],[64],[1.0666666666666667],"[640.0, 512.0]",vertical,"(390.0, 262.0)",[1.4],[0.508],1,2102.942
7,False,404,0.337,20,[],[],"[(1172, 899)]",[],[1],[66],[1.1],"[640.0, 512.0]",horizontal,"(890.0, 262.0)",[1.5833333333333333],[0.74],1,2106.872
7,False,405,0.947,56,[],[],"[(1196, 903)]",[],[1],[92],[1.5333333333333332],"[640.0, 512.0]",horizontal,"(390.0, 262.0)",[0.5],[0.576],1,2111.194
7,False,406,0.846,50,[],[],"[(1203, 873)]",[],[1],[81],[1.35],"[640.0, 512.0]",horizontal,"(390.0, 262.0)",[1.1666666666666667],[0.487],1,2114.721
7,False,407,0.607,36,[],[],"[(1209, 886)]",[],[1],[86],[1.4333333333333333],"[640.0, 512.0]",horizontal,"(890.0, 762.0)",[0.95],[0.802],0,2118.742
7,False,408,1.43,85,[],[],"[(1174, 870)]",[],[1],[135],[2.25],"[640.0, 512.0]",horizontal,"(390.0, 262.0)",[1.6833333333333333],[0.811],0,2122.595
7,False,409,0.986,59,[],[],"[(1245, 883), (1178, 857)]",[],"[0, 1]",[94],[1.5666666666666667],"[640.0, 512.0]",vertical,"(890.0, 762.0)",[0.9666666666666667],[0.554],1,2128.556
7,False,410,0.497,29,[],[],"[(1209, 890)]",[],[1],[62],[1.0333333333333332],"[640.0, 512.0]",horizontal,"(390.0, 262.0)",[0.55],[0.528],1,2133.56
7,False,411,0.736,44,[],[],"[(1190, 882)]",[],[1],[94],[1.5666666666666667],"[640.0, 512.0]",horizontal,"(890.0, 262.0)",[0.7],[0.807],0,2136.643
7,False,412,0.958,57,[],[],"[(1226, 880)]",[],[1],[99],[1.65],"[640.0, 512.0]",vertical,"(390.0, 762.0)",[1.15],[0.673],1,2140.406
7,False,413,1.404,84,[],[],"[(1183, 891)]",[],[1],[116],[1.9333333333333333],"[640.0, 512.0]",vertical,"(890.0, 262.0)",[0.8],[0.511],1,2144.734
7,False,414,0.681,40,[],[],"[(1177, 893)]",[],[1],[71],[1.1833333333333333],"[640.0, 512.0]",vertical,"(890.0, 262.0)",[1.1833333333333333],[0.493],1,2148.996
7,False,415,0.968,58,[],[],"[(1192, 880)]",[],[1],[92],[1.5333333333333332],"[640.0, 512.0]",horizontal,"(890.0, 762.0)",[0.6666666666666666],[0.541],1,2152.911
7,False,416,0.711,42,[],[],"[(1180, 879)]",[],[1],[74],[1.2333333333333334],"[640.0, 512.0]",vertical,"(390.0, 262.0)",[1.1833333333333333],[0.506],1,2156.621
7,False,417,1.179,70,[],[],"[(1192, 881)]",[],[1],[120],[2.0],"[640.0, 512.0]",horizontal,"(390.0, 762.0)",[1.6],[0.805],0,2161.076
7,False,418,0.661,39,[],[],"[(1178, 867)]",[],[1],[74],[1.2333333333333334],"[640.0, 512.0]",horizontal,"(890.0, 762.0)",[0.75],[0.558],1,2166.163
7,False,419,0.621,37,[],[],"[(1180, 887)]",[],[1],[87],[1.45],"[640.0, 512.0]",vertical,"(890.0, 762.0)",[1.15],[0.804],0,2169.76
7,False,420,0.696,41,[],[2184751],"[(1225, 896)]","[(1148, 897)]",[1],[21],[0.35],"[640.0, 512.0]",vertical,"(890.0, 762.0)",[],[0],0,2173.857
8,False,421,0.88,52,[],[],"[(1160, 863)]",[],[1],[89],[1.4833333333333334],"[640.0, 512.0]",horizontal,"(890.0, 762.0)",[0.8],[0.586],1,2175.607
8,False,422,0.742,44,[],[],"[(1203, 880)]",[],[1],[94],[1.5666666666666667],"[640.0, 512.0]",horizontal,"(390.0, 262.0)",[1.3333333333333333],[0.807],0,2179.978
8,False,423,1.071,64,[],[],"[(1181, 868)]",[],[1],[98],[1.6333333333333333],"[640.0, 512.0]",vertical,"(390.0, 762.0)",[0.5666666666666667],[0.543],1,2184.386
8,False,424,0.807,48,[],[],"[(1196, 873)]",[],[1],[85],[1.4166666666666667],"[640.0, 512.0]",horizontal,"(390.0, 762.0)",[1.1666666666666667],[0.592],1,2188.56
8,False,425,0.839,50,[],[],"[(1196, 882)]",[],[1],[83],[1.3833333333333333],"[640.0, 512.0]",vertical,"(890.0, 262.0)",[1.3833333333333333],[0.528],1,2192.672
8,False,426,0.978,58,[],[],"[(1185, 890)]",[],[1],[108],[1.8],"[640.0, 512.0]",horizontal,"(390.0, 262.0)",[1.3666666666666667],[0.817],0,2196.933
8,False,427,0.378,22,[],[],"[(1195, 903)]",[],[1],[72],[1.2],"[640.0, 512.0]",horizontal,"(390.0, 762.0)",[0.7],[0.802],0,2201.642
8,False,428,0.799,47,[],[],"[(1184, 910)]",[],[1],[77],[1.2833333333333332],"[640.0, 512.0]",vertical,"(390.0, 262.0)",[1.5333333333333332],[0.48],1,2206.796
8,False,429,1.08,64,[],[],"[(1178, 902)]",[],[1],[96],[1.6],"[640.0, 512.0]",vertical,"(390.0, 262.0)",[0.9333333333333333],[0.512],1,2211.457
8,False,430,0.693,41,[],[],"[(1184, 881)]",[],[1],[74],[1.2333333333333334],"[640.0, 512.0]",vertical,"(890.0, 762.0)",[1.4],[0.527],1,2215.502
8,False,431,0.362,21,[],[],"[(1178, 884)]",[],[1],[53],[0.8833333333333333],"[640.0, 512.0]",horizontal,"(890.0, 262.0)",[1.0],[0.505],1,2219.642
8,False,432,0.602,36,[],[],"[(1209, 888)]",[],[1],[78],[1.3],"[640.0, 512.0]",horizontal,"(390.0, 262.0)",[0.6],[0.673],1,2223.044
8,False,433,1.145,68,[],[],"[(1171, 895)]",[],[1],[98],[1.6333333333333333],"[640.0, 512.0]",horizontal,"(890.0, 262.0)",[1.6],[0.474],1,2226.445
8,False,434,1.275,76,[],[],"[(1181, 870)]",[],[1],[108],[1.8],"[640.0, 512.0]",horizontal,"(890.0, 762.0)",[1.65],[0.51],1,2231.145
8,False,435,0.334,20,[],[],"[(1184, 879)]",[],[1],[62],[1.0333333333333332],"[640.0, 512.0]",vertical,"(890.0, 762.0)",[1.3833333333333333],[0.67],1,2236.094
8,False,436,0.738,44,[],[],"[(1176, 887)]",[],[1],[85],[1.4166666666666667],"[640.0, 512.0]",horizontal,"(890.0, 762.0)",[0.5333333333333333],[0.66],1,2240.016
8,False,437,0.499,29,[],[],"[(1202, 884)]",[],[1],[73],[1.2166666666666666],"[640.0, 512.0]",vertical,"(890.0, 762.0)",[1.1333333333333333],[0.707],1,2243.496
8,False,438,1.19,71,[],[],"[(1192, 896)]",[],[1],[98],[1.6333333333333333],"[640.0, 512.0]",horizontal,"(890.0, 262.0)",[1.1333333333333333],[0.428],1,2247.341
8,False,439,0.699,41,[],[],"[(1226, 862)]",[],[1],[79],[1.3166666666666667],"[640.0, 512.0]",horizontal,"(390.0, 262.0)",[1.1],[0.606],1,2251.594
8,False,440,0.846,50,[],[],"[(1184, 878)]",[],[1],[81],[1.35],"[640.0, 512.0]",horizontal,"(890.0, 262.0)",[1.0833333333333333],[0.492],1,2255.505
8,False,441,1.347,80,[],[],"[(1178, 883)]",[],[1],[113],[1.8833333333333333],"[640.0, 512.0]",vertical,"(390.0, 762.0)",[1.2333333333333334],[0.525],1,2259.432
8,False,442,0.456,27,[],[],"[(1190, 879)]",[],[1],[60],[1.0],"[640.0, 512.0]",vertical,"(390.0, 262.0)",[1.15],[0.526],1,2264.062
8,False,443,0.794,47,[],[],"[(1188, 919)]",[],[1],[82],[1.3666666666666667],"[640.0, 512.0]",horizontal,"(390.0, 762.0)",[0.8833333333333333],[0.557],1,2267.708
8,False,444,1.046,62,[],[],"[(1190, 856)]",[],[1],[94],[1.5666666666666667],"[640.0, 512.0]",horizontal,"(390.0, 262.0)",[1.0333333333333332],[0.507],1,2271.478
8,False,445,0.956,57,[],[],"[(1190, 884)]",[],[1],[88],[1.4666666666666666],"[640.0, 512.0]",vertical,"(890.0, 262.0)",[1.1166666666666667],[0.495],1,2275.575
8,False,446,0.313,18,[],[],"[(1157, 884)]",[],[1],[50],[0.8333333333333334],"[640.0, 512.0]",horizontal,"(890.0, 262.0)",[0.8666666666666667],[0.507],1,2279.663
8,False,447,0.36,21,[],[],"[(1184, 900)]",[],[1],[55],[0.9166666666666666],"[640.0, 512.0]",vertical,"(890.0, 262.0)",[1.3],[0.54],1,2282.873
8,False,448,1.012,60,[],[],"[(1158, 889)]",[],[1],[94],[1.5666666666666667],"[640.0, 512.0]",horizontal,"(890.0, 762.0)",[0.6666666666666666],[0.54],1,2286.598
8,False,449,0.473,28,[],[],"[(1180, 890)]",[],[1],[65],[1.0833333333333333],"[640.0, 512.0]",horizontal,"(390.0, 762.0)",[0.7666666666666666],[0.589],1,2290.374
8,False,450,1.13,67,[],[],"[(1186, 891)]",[],[1],[98],[1.6333333333333333],"[640.0, 512.0]",horizontal,"(390.0, 262.0)",[1.2833333333333332],[0.489],1,2293.78
8,False,451,1.038,62,[],[],"[(1136, 889)]",[],[1],[97],[1.6166666666666667],"[640.0, 512.0]",horizontal,"(390.0, 762.0)",[1.4],[0.557],1,2298.18
8,False,452,0.769,46,[],[],"[(1154, 889)]",[],[1],[82],[1.3666666666666667],"[640.0, 512.0]",horizontal,"(390.0, 262.0)",[1.0166666666666666],[0.571],1,2304.818
8,False,453,0.632,37,[],[],"[(1173, 885)]",[],[1],[71],[1.1833333333333333],"[640.0, 512.0]",horizontal,"(390.0, 762.0)",[1.5],[0.538],1,2308.895
8,False,454,1.292,77,[],[],"[(1189, 879)]",[],[1],[113],[1.8833333333333333],"[640.0, 512.0]",vertical,"(390.0, 262.0)",[0.9166666666666666],[0.57],1,2313.127
8,False,455,1.057,63,[],[],"[(1219, 866)]",[],[1],[90],[1.5],"[640.0, 512.0]",vertical,"(890.0, 262.0)",[1.35],[0.434],1,2317.413
8,False,456,0.82,49,[],[],"[(1154, 879)]",[],[1],[91],[1.5166666666666666],"[640.0, 512.0]",vertical,"(890.0, 762.0)",[1.1166666666666667],[0.675],1,2321.748
8,False,457,0.755,45,[],[],"[(1186, 875)]",[],[1],[82],[1.3666666666666667],"[640.0, 512.0]",vertical,"(890.0, 262.0)",[1.4666666666666666],[0.59],1,2325.959
8,False,458,0.506,30,[],[],"[(1190, 888)]",[],[1],[57],[0.95],"[640.0, 512.0]",horizontal,"(390.0, 262.0)",[1.6666666666666667],[0.423],1,2330.294
8,False,459,0.448,26,[],[],"[(1177, 891)]",[],[1],[58],[0.9666666666666667],"[640.0, 512.0]",horizontal,"(390.0, 262.0)",[1.25],[0.508],1,2334.429
8,False,460,0.896,53,[],[],"[(1161, 885)]",[],[1],[100],[1.6666666666666667],"[640.0, 512.0]",vertical,"(390.0, 762.0)",[0.7333333333333333],[0.751],1,2338.154
8,False,461,0.636,38,[],[],"[(1167, 894)]",[],[1],[72],[1.2],"[640.0, 512.0]",horizontal,"(390.0, 762.0)",[1.2666666666666666],[0.539],1,2342.079
8,False,462,0.551,33,[],[],"[(1146, 886)]",[],[1],[83],[1.3833333333333333],"[640.0, 512.0]",horizontal,"(390.0, 762.0)",[0.8833333333333333],[0.81],0,2346.151
8,False,463,0.867,52,[],[],"[(1185, 895)]",[],[1],[84],[1.4],"[640.0, 512.0]",vertical,"(390.0, 762.0)",[1.5833333333333333],[0.505],1,2350.213
8,False,464,0.494,29,[],[],"[(1166, 864)]",[],[1],[61],[1.0166666666666666],"[640.0, 512.0]",horizontal,"(390.0, 762.0)",[1.6833333333333333],[0.519],1,2377.126
8,False,465,0.844,50,[],[],"[(1182, 876)]",[],[1],[83],[1.3833333333333333],"[640.0, 512.0]",horizontal,"(390.0, 762.0)",[1.1833333333333333],[0.525],1,2381.33
8,False,466,0.491,29,[],[],"[(1190, 884)]",[],[1],[65],[1.0833333333333333],"[640.0, 512.0]",horizontal,"(890.0, 262.0)",[0.5833333333333334],[0.573],1,2385.41
8,False,467,1.143,68,[],[],"[(1192, 869)]",[],[1],[106],[1.7666666666666666],"[640.0, 512.0]",horizontal,"(890.0, 762.0)",[1.5666666666666667],[0.598],1,2388.571
8,False,468,1.002,60,[],[],"[(1194, 880)]",[],[1],[93],[1.55],"[640.0, 512.0]",horizontal,"(390.0, 762.0)",[0.65],[0.535],1,2393.377
8,False,469,1.089,65,[],[],"[(1188, 875)]",[],[1],[95],[1.5833333333333333],"[640.0, 512.0]",horizontal,"(390.0, 762.0)",[1.5666666666666667],[0.485],1,2397.075
8,False,470,0.686,41,[],[],"[(1166, 901)]",[],[1],[71],[1.1833333333333333],"[640.0, 512.0]",horizontal,"(390.0, 262.0)",[1.5833333333333333],[0.479],1,2401.73
8,False,471,1.499,89,[],[],"[(1163, 899)]",[],[1],[127],[2.1166666666666667],"[640.0, 512.0]",vertical,"(390.0, 762.0)",[1.05],[0.607],1,2406.08
8,False,472,0.639,38,[],[],"[(1184, 901)]",[],[1],[83],[1.3833333333333333],"[640.0, 512.0]",horizontal,"(390.0, 762.0)",[1.5166666666666666],[0.721],1,2410.758
8,False,473,1.363,81,[],[],"[(1140, 878)]",[],[1],[119],[1.9833333333333334],"[640.0, 512.0]",horizontal,"(390.0, 262.0)",[1.6],[0.609],1,2415.179
8,False,474,0.716,42,[],[],"[(1151, 869)]",[],[1],[72],[1.2],"[640.0, 512.0]",vertical,"(890.0, 262.0)",[1.35],[0.479],1,2420.535
8,False,475,1.2,72,[],[],"[(1160, 896)]",[],[1],[108],[1.8],"[640.0, 512.0]",vertical,"(390.0, 762.0)",[0.75],[0.574],1,2425.064
8,False,476,0.832,49,[],[],"[(1163, 894)]",[],[1],[83],[1.3833333333333333],"[640.0, 512.0]",horizontal,"(890.0, 762.0)",[1.2333333333333334],[0.536],1,2429.243
8,False,477,0.375,22,[],[],"[(1149, 889)]",[],[1],[61],[1.0166666666666666],"[640.0, 512.0]",vertical,"(390.0, 762.0)",[1.05],[0.622],1,2433.41
8,False,478,0.532,31,[],[],"[(1184, 894)]",[],[1],[66],[1.1],"[640.0, 512.0]",horizontal,"(390.0, 762.0)",[1.3166666666666667],[0.557],1,2437.046
8,False,479,0.338,20,[],[],"[(1171, 883)]",[],[1],[64],[1.0666666666666667],"[640.0, 512.0]",horizontal,"(890.0, 762.0)",[0.5166666666666666],[0.703],1,2440.943
8,False,480,0.965,57,[],[],"[(1153, 860)]",[],[1],[90],[1.5],"[640.0, 512.0]",vertical,"(890.0, 262.0)",[0.6166666666666667],[0.521],1,2444.044
9,False,481,1.008,60,[],[],"[(1154, 865)]",[],[1],[94],[1.5666666666666667],"[640.0, 512.0]",vertical,"(390.0, 262.0)",[1.2],[0.538],1,2474.728
9,False,482,1.072,64,[],[],"[(1166, 877)]",[],[1],[94],[1.5666666666666667],"[640.0, 512.0]",horizontal,"(890.0, 262.0)",[0.9166666666666666],[0.473],1,2479.03
9,False,483,1.171,70,[],[],"[(1184, 894)]",[],[1],[98],[1.6333333333333333],"[640.0, 512.0]",vertical,"(890.0, 262.0)",[0.5833333333333334],[0.443],1,2483.091
9,False,484,1.374,82,[],[],"[(1156, 892)]",[],[1],[112],[1.8666666666666667],"[640.0, 512.0]",vertical,"(390.0, 262.0)",[0.7333333333333333],[0.472],1,2486.809
9,False,485,0.356,21,[],[],"[(1132, 875)]",[],[1],[52],[0.8666666666666667],"[640.0, 512.0]",horizontal,"(890.0, 762.0)",[0.75],[0.497],1,2490.942
9,False,486,0.827,49,[],[],"[(1190, 889)]",[],[1],[82],[1.3666666666666667],"[640.0, 512.0]",vertical,"(890.0, 262.0)",[0.7],[0.524],1,2494.23
9,False,487,1.049,62,[],[],"[(1110, 890)]",[],[1],[96],[1.6],"[640.0, 512.0]",vertical,"(390.0, 762.0)",[0.65],[0.555],1,2497.927
9,False,488,1.225,73,[],[],"[(1142, 884)]",[],[1],[102],[1.7],"[640.0, 512.0]",horizontal,"(390.0, 262.0)",[1.15],[0.46],1,2501.74
9,False,489,1.328,79,[],[],"[(1178, 886)]",[],[1],[112],[1.8666666666666667],"[640.0, 512.0]",vertical,"(890.0, 762.0)",[0.9333333333333333],[0.524],1,2506.879
9,False,490,0.839,50,[],[],"[(1163, 865)]",[],[1],[84],[1.4],"[640.0, 512.0]",horizontal,"(890.0, 762.0)",[0.8666666666666667],[0.543],1,2511.178
9,False,491,0.995,59,[],[],"[(1184, 894)]",[],[1],[95],[1.5833333333333333],"[640.0, 512.0]",vertical,"(890.0, 762.0)",[0.7],[0.567],1,2515.199
9,False,492,0.394,23,[],[],"[(1171, 889)]",[],[1],"[73, 73]","[1.2166666666666666, 1.2166666666666666]","[640.0, 512.0]",vertical,"(890.0, 762.0)",[0.6333333333333333],"[0.798, 0.798]",0,2518.983
9,False,493,0.352,21,[],[],"[(1204, 886)]",[],[1],[53],[0.8833333333333333],"[640.0, 512.0]",vertical,"(890.0, 762.0)",[1.5666666666666667],[0.509],1,2522.375
9,False,494,0.828,49,[],[],"[(1172, 885)]",[],[1],[84],[1.4],"[640.0, 512.0]",horizontal,"(890.0, 762.0)",[0.8166666666666667],[0.556],1,2526.329
9,False,495,1.021,61,[],[],"[(1150, 884)]",[],[1],[92],[1.5333333333333332],"[640.0, 512.0]",horizontal,"(890.0, 262.0)",[0.5833333333333334],[0.488],1,2530.09
9,False,496,0.404,24,[],[],"[(1190, 898)]",[],[1],[56],[0.9333333333333333],"[640.0, 512.0]",vertical,"(890.0, 262.0)",[0.9],[0.506],1,2533.814
9,False,497,1.203,72,[],[],"[(1172, 907)]",[],[1],[106],[1.7666666666666666],"[640.0, 512.0]",horizontal,"(390.0, 762.0)",[0.9833333333333333],[0.54],1,2678.654
9,False,498,1.247,74,[],[],"[(1142, 903)]",[],[1],[106],[1.7666666666666666],"[640.0, 512.0]",vertical,"(390.0, 262.0)",[1.1833333333333333],[0.508],1,2682.989
9,False,499,0.312,18,[],[],"[(1172, 879)]",[],[1],[48],[0.8],"[640.0, 512.0]",horizontal,"(890.0, 262.0)",[1.5666666666666667],[0.477],1,2687.449
9,False,500,1.19,71,[],[],"[(1173, 898)]",[],[1],[121],[2.0166666666666666],"[640.0, 512.0]",vertical,"(890.0, 262.0)",[0.6],[0.798],0,2691.863
9,False,501,0.488,29,[],[],"[(1154, 906)]",[],[1],[64],[1.0666666666666667],"[640.0, 512.0]",vertical,"(890.0, 262.0)",[0.6333333333333333],[0.558],1,2696.241
9,False,502,0.366,21,[],[],"[(1148, 865)]",[],[1],[67],[1.1166666666666667],"[640.0, 512.0]",vertical,"(890.0, 262.0)",[0.5166666666666666],[0.737],1,2716.308
9,False,503,0.496,29,[],[],"[(1124, 914)]",[],[1],[61],[1.0166666666666666],"[640.0, 512.0]",horizontal,"(390.0, 762.0)",[1.6],[0.505],1,2719.48
9,False,504,0.797,47,[],[],"[(1117, 889)]",[],[1],[81],[1.35],"[640.0, 512.0]",horizontal,"(390.0, 762.0)",[1.3],[0.538],1,2723.865
9,False,505,0.437,26,[],[],"[(1146, 884)]",[],[1],[76],[1.2666666666666666],"[640.0, 512.0]",vertical,"(390.0, 262.0)",[1.0166666666666666],[0.799],0,2728.019
9,False,506,0.848,50,[],[],"[(1142, 889)]",[],[1],[70],[1.1666666666666667],"[640.0, 512.0]",horizontal,"(390.0, 262.0)",[1.15],[0.31],1,2731.841
9,False,507,1.019,61,[],[],"[(1172, 895)]",[],[1],[93],[1.55],"[640.0, 512.0]",horizontal,"(890.0, 762.0)",[0.6],[0.503],1,2736.03
9,False,508,0.621,37,[],[],"[(1162, 884)]",[],[1],[76],[1.2666666666666666],"[640.0, 512.0]",vertical,"(890.0, 762.0)",[1.35],[0.621],1,2739.726
9,False,509,0.337,20,[],[],"[(1200, 857)]",[],[1],[57],[0.95],"[640.0, 512.0]",vertical,"(390.0, 762.0)",[0.6166666666666667],[0.589],1,2743.864
9,False,510,0.609,36,[],[],"[(1190, 892)]",[],[1],[74],[1.2333333333333334],"[640.0, 512.0]",horizontal,"(390.0, 262.0)",[0.9833333333333333],[0.612],1,2746.827
9,False,511,1.122,67,[],[],"[(1184, 875)]",[],[1],[101],[1.6833333333333333],"[640.0, 512.0]",vertical,"(390.0, 762.0)",[0.9],[0.537],1,2750.613
9,False,512,1.073,64,[],[],"[(1186, 883)]",[],[1],[96],[1.6],"[640.0, 512.0]",vertical,"(890.0, 762.0)",[1.0],[0.51],1,2754.763
9,False,513,0.876,52,[],[],"[(1184, 889)]",[],[1],[89],[1.4833333333333334],"[640.0, 512.0]",vertical,"(390.0, 262.0)",[1.1666666666666667],[0.585],1,2758.847
9,False,514,1.187,71,[],[],"[(1136, 884)]",[],[1],[103],[1.7166666666666666],"[640.0, 512.0]",horizontal,"(390.0, 762.0)",[1.0666666666666667],[0.509],1,2763.009
9,False,515,1.394,83,[],[],"[(1168, 884)]",[],[1],[107],[1.7833333333333332],"[640.0, 512.0]",horizontal,"(890.0, 262.0)",[1.05],[0.377],1,2767.298
9,False,516,0.472,28,[],[],"[(1157, 903)]",[],[1],[61],[1.0166666666666666],"[640.0, 512.0]",vertical,"(390.0, 762.0)",[0.6],[0.522],1,2771.759
9,False,517,1.414,84,[],[],"[(1148, 886)]",[],[1],[128],[2.1333333333333333],"[640.0, 512.0]",vertical,"(390.0, 262.0)",[0.8666666666666667],[0.702],1,2854.417
9,False,518,0.433,25,[],[],"[(1184, 876)]",[],[1],[60],[1.0],"[640.0, 512.0]",vertical,"(890.0, 762.0)",[0.7166666666666667],[0.553],1,2858.914
9,False,519,0.962,57,[],[],"[(1142, 914)]",[],[1],[83],[1.3833333333333333],"[640.0, 512.0]",horizontal,"(390.0, 262.0)",[1.1166666666666667],[0.409],1,2862.145
9,False,520,0.41,24,[],[],"[(1178, 883)]",[],[1],[64],[1.0666666666666667],"[640.0, 512.0]",vertical,"(390.0, 762.0)",[0.8],[0.637],1,2866.135
9,False,521,1.057,63,[],[],"[(1202, 884)]",[],[1],[102],[1.7],"[640.0, 512.0]",vertical,"(390.0, 762.0)",[0.5166666666666666],[0.623],1,2869.472
9,False,522,1.001,60,[],[],"[(1142, 918)]",[],[1],[95],[1.5833333333333333],"[640.0, 512.0]",vertical,"(390.0, 762.0)",[1.1833333333333333],[0.556],1,2873.137
9,False,523,0.521,31,[],[],"[(1177, 889)]",[],[1],[63],[1.05],"[640.0, 512.0]",vertical,"(390.0, 762.0)",[1.3333333333333333],[0.506],1,2877.498
9,False,524,0.773,46,[],[],"[(1172, 906)]",[],[1],[79],[1.3166666666666667],"[640.0, 512.0]",horizontal,"(890.0, 762.0)",[0.5166666666666666],[0.523],1,2881.375
9,False,525,0.522,31,[],[],"[(1199, 897)]",[],[1],[64],[1.0666666666666667],"[640.0, 512.0]",vertical,"(890.0, 762.0)",[1.5166666666666666],[0.524],1,2884.726
9,False,526,0.734,44,[],[],"[(1155, 888)]",[],[1],[80],[1.3333333333333333],"[640.0, 512.0]",vertical,"(390.0, 762.0)",[1.2833333333333332],[0.575],1,2888.922
9,False,527,0.599,35,[],[],"[(830, 109), (952, 384), (1205, 888)]",[],"[0, 0, 1]",[],[],"[640.0, 512.0]",vertical,"(890.0, 762.0)",[],[0],0,2894.207
9,False,528,0.996,59,[],[],"[(1227, 889)]",[],[1],[92],[1.5333333333333332],"[640.0, 512.0]",horizontal,"(890.0, 262.0)",[0.5166666666666666],[0.521],1,4595.603
9,False,529,1.321,79,[],[],"[(1152, 879)]",[],[1],[],[],"[640.0, 512.0]",horizontal,"(890.0, 762.0)",[],[0],0,4599.198
9,False,530,0.342,20,[],[],"[(1187, 894)]",[],[1],[61],[1.0166666666666666],"[640.0, 512.0]",horizontal,"(890.0, 762.0)",[1.5333333333333332],[0.658],1,4602.73
9,False,531,0.918,55,[],[],"[(1123, 903)]",[],[1],[88],[1.4666666666666666],"[640.0, 512.0]",vertical,"(390.0, 262.0)",[1.6],[0.531],1,4606.887
9,False,532,0.428,25,[],[],"[(1166, 893)]",[],[1],[71],[1.1833333333333333],"[640.0, 512.0]",horizontal,"(390.0, 262.0)",[1.0833333333333333],[0.739],1,4611.509
9,False,533,1.178,70,[],[],"[(1142, 905)]",[],[1],[100],[1.6666666666666667],"[640.0, 512.0]",horizontal,"(390.0, 262.0)",[0.9],[0.484],1,4615.298
9,False,534,1.346,80,[],[],"[(1213, 889)]",[],[1],[120],[2.0],"[640.0, 512.0]",horizontal,"(390.0, 762.0)",[1.0166666666666666],[0.636],1,4619.357
9,False,535,1.205,72,[],[],"[(1116, 879)]",[],[1],[107],[1.7833333333333332],"[640.0, 512.0]",horizontal,"(390.0, 262.0)",[1.4666666666666666],[0.56],1,4623.84
9,False,536,0.901,54,[],[],"[(1146, 892)]",[],[1],[85],[1.4166666666666667],"[640.0, 512.0]",vertical,"(390.0, 262.0)",[1.6666666666666667],[0.492],1,4628.601
9,False,537,1.399,83,[],[],"[(1166, 893)]",[],[1],[109],[1.8166666666666667],"[640.0, 512.0]",vertical,"(890.0, 262.0)",[1.2],[0.415],1,4633.19
9,False,538,1.179,70,[],[],"[(1175, 885)]",[],[1],[105],[1.75],"[640.0, 512.0]",horizontal,"(390.0, 262.0)",[1.4333333333333333],[0.559],1,4637.652
9,False,539,1.34,80,[],[],"[(1190, 906)]",[],[1],[119],[1.9833333333333334],"[640.0, 512.0]",horizontal,"(890.0, 762.0)",[1.1333333333333333],[0.622],1,4642.348
9,False,540,0.603,36,[],[],"[(1179, 879)]",[],[1],[69],[1.15],"[640.0, 512.0]",vertical,"(890.0, 762.0)",[1.5666666666666667],[0.525],1,4646.912
10,False,541,0.386,23,[],[],"[(1190, 879)]",[],[1],[73],[1.2166666666666666],"[640.0, 512.0]",vertical,"(390.0, 762.0)",[1.55],[0.802],0,4651.119
10,False,542,0.94,56,[],[],"[(1206, 880)]",[],[1],[64],[1.0666666666666667],"[640.0, 512.0]",vertical,"(390.0, 262.0)",[1.15],[0.118],1,4655.341
10,False,543,0.642,38,[],[],"[(1186, 887)]",[],[1],[70],[1.1666666666666667],"[640.0, 512.0]",vertical,"(390.0, 262.0)",[0.7833333333333333],[0.51],1,4659.598
10,False,544,1.245,74,[],[],"[(1192, 889)]",[],[1],[114],[1.9],"[640.0, 512.0]",horizontal,"(890.0, 762.0)",[1.6833333333333333],[0.639],1,4663.081
10,False,545,1.423,85,[],[],"[(1148, 908)]",[],[1],[],[],"[640.0, 512.0]",vertical,"(890.0, 262.0)",[],[0],0,4668.127
10,False,546,1.092,65,[],[],"[(1190, 878)]",[],[1],[99],[1.65],"[640.0, 512.0]",vertical,"(390.0, 762.0)",[0.7666666666666666],[0.535],1,4672.44
10,False,547,1.095,65,[],[],"[(1152, 884)]",[],[1],[],[],"[640.0, 512.0]",horizontal,"(390.0, 762.0)",[],[0],0,4676.353
10,False,548,0.804,48,[],[],"[(1175, 902)]",[],[1],[71],[1.1833333333333333],"[640.0, 512.0]",horizontal,"(390.0, 762.0)",[1.0],[0.363],1,4679.577
10,False,549,0.4,24,[],[],"[(1160, 894)]",[],[1],[56],[0.9333333333333333],"[640.0, 512.0]",vertical,"(390.0, 262.0)",[1.6166666666666667],[0.512],1,4691.553
10,False,550,1.018,61,[],[],"[(1182, 883)]",[],[1],[94],[1.5666666666666667],"[640.0, 512.0]",horizontal,"(890.0, 762.0)",[0.6333333333333333],[0.526],1,4695.636
10,False,551,1.226,73,[],[],"[(1151, 879)]",[],[1],[105],[1.75],"[640.0, 512.0]",vertical,"(390.0, 762.0)",[1.45],[0.516],1,4699.359
10,False,552,0.382,22,[],[],"[(1166, 891)]",[],[1],[60],[1.0],"[640.0, 512.0]",vertical,"(890.0, 262.0)",[1.4833333333333334],[0.605],1,4704.019
10,False,553,0.903,54,[],[],"[(1148, 878)]",[],[1],[89],[1.4833333333333334],"[640.0, 512.0]",vertical,"(890.0, 762.0)",[1.0666666666666667],[0.557],1,4709.361
10,False,554,0.359,21,[],[],"[(1194, 875)]",[],[1],[55],[0.9166666666666666],"[640.0, 512.0]",horizontal,"(890.0, 762.0)",[1.2833333333333332],[0.541],1,4713.438
10,False,555,1.146,68,[],[],"[(1178, 875)]",[],[1],[99],[1.65],"[640.0, 512.0]",vertical,"(890.0, 762.0)",[1.25],[0.502],1,4717.101
10,False,556,0.611,36,[],[],"[(1098, 879)]",[],[1],[72],[1.2],"[640.0, 512.0]",horizontal,"(890.0, 762.0)",[1.6666666666666667],[0.579],1,4721.517
10,False,557,0.613,36,[],[],"[(1114, 874)]",[],[1],[59],[0.9833333333333333],"[640.0, 512.0]",horizontal,"(890.0, 262.0)",[1.5333333333333332],[0.362],1,4726.021
10,False,558,1.347,80,[],[],"[(1153, 899)]",[],[1],[113],[1.8833333333333333],"[640.0, 512.0]",vertical,"(390.0, 762.0)",[0.6333333333333333],[0.531],1,4730.051
10,False,559,0.987,59,[],[],"[(1139, 875)]",[],[1],[92],[1.5333333333333332],"[640.0, 512.0]",vertical,"(390.0, 262.0)",[1.4666666666666666],[0.524],1,4734.1
10,False,560,0.535,32,[],[],"[(1177, 901)]",[],[1],[73],[1.2166666666666666],"[640.0, 512.0]",vertical,"(390.0, 262.0)",[0.6],[0.652],1,4738.619
10,False,561,1.035,62,[],[],"[(1136, 867)]",[],[1],[95],[1.5833333333333333],"[640.0, 512.0]",vertical,"(890.0, 262.0)",[0.8],[0.523],1,4741.988
10,False,562,0.976,58,[],[],"[(1174, 893)]",[],[1],[90],[1.5],"[640.0, 512.0]",horizontal,"(890.0, 762.0)",[1.0],[0.505],1,4745.935
10,False,563,0.622,37,[],[],"[(1136, 884)]",[],[1],[70],[1.1666666666666667],"[640.0, 512.0]",vertical,"(390.0, 762.0)",[0.9166666666666666],[0.534],1,4749.986
10,False,564,0.336,20,[],[],"[(1117, 874)]",[],[1],[53],[0.8833333333333333],"[640.0, 512.0]",vertical,"(390.0, 262.0)",[1.05],[0.524],1,4753.688
10,False,565,0.952,57,[],[],"[(1160, 884)]",[],[1],[92],[1.5333333333333332],"[640.0, 512.0]",vertical,"(390.0, 762.0)",[1.3833333333333333],[0.557],1,4757.161
10,False,566,1.441,86,[],[],"[(1148, 862)]",[],[1],[119],[1.9833333333333334],"[640.0, 512.0]",vertical,"(390.0, 762.0)",[0.8166666666666667],[0.522],1,4761.585
10,False,567,0.503,30,[],[],"[(1095, 868)]",[],[1],[62],[1.0333333333333332],"[640.0, 512.0]",vertical,"(890.0, 262.0)",[1.3],[0.511],1,4765.97
10,False,568,1.461,87,[],[],"[(1129, 870)]",[],[1],[107],[1.7833333333333332],"[640.0, 512.0]",vertical,"(390.0, 262.0)",[1.4833333333333334],[0.31],1,4769.909
10,False,569,0.947,56,[],[],"[(1154, 879)]",[],[1],[89],[1.4833333333333334],"[640.0, 512.0]",vertical,"(390.0, 262.0)",[0.75],[0.532],1,4774.748
10,False,570,0.927,55,[],[],"[(1150, 870)]",[],[1],[90],[1.5],"[640.0, 512.0]",horizontal,"(890.0, 762.0)",[1.4666666666666666],[0.558],1,4778.548
10,False,571,1.278,76,[],[],"[(1148, 884)]",[],[1],[111],[1.8499999999999999],"[640.0, 512.0]",horizontal,"(890.0, 262.0)",[0.9833333333333333],[0.56],1,4783.064
10,False,572,1.362,81,[],[],"[(1155, 899)]",[],[1],[126],[2.1],"[640.0, 512.0]",horizontal,"(390.0, 262.0)",[1.25],[0.719],1,4788.133
10,False,573,0.865,51,[],[],"[(1154, 881)]",[],[1],[86],[1.4333333333333333],"[640.0, 512.0]",horizontal,"(890.0, 762.0)",[0.5833333333333334],[0.555],1,4793.065
10,False,574,1.013,60,[],[],"[(1148, 879)]",[],[1],[91],[1.5166666666666666],"[640.0, 512.0]",horizontal,"(390.0, 262.0)",[1.1166666666666667],[0.493],1,4796.672
10,False,575,1.155,69,[],[],"[(1188, 892)]",[],[1],[101],[1.6833333333333333],"[640.0, 512.0]",vertical,"(890.0, 262.0)",[0.6],[0.518],1,4800.887
10,False,576,0.645,38,[],[],"[(1153, 863)]",[],[1],[46],[0.7666666666666666],"[640.0, 512.0]",horizontal,"(890.0, 762.0)",[1.6],[0.117],1,4804.684
10,False,577,0.486,29,[],[],"[(1196, 879)]",[],[1],[67],[1.1166666666666667],"[640.0, 512.0]",vertical,"(890.0, 762.0)",[0.6166666666666667],[0.606],1,4808.604
10,False,578,0.963,57,[],[],"[(1136, 875)]",[],[1],[92],[1.5333333333333332],"[640.0, 512.0]",vertical,"(890.0, 762.0)",[0.7333333333333333],[0.555],1,4811.838
10,False,579,1.015,60,[],[],"[(1105, 881)]",[],[1],[96],[1.6],"[640.0, 512.0]",vertical,"(390.0, 262.0)",[1.2833333333333332],[0.572],1,4815.631
10,False,580,0.955,57,[],[],"[(1142, 872)]",[],[1],[102],[1.7],"[640.0, 512.0]",horizontal,"(390.0, 262.0)",[0.8666666666666667],[0.725],1,4820.096
10,False,581,0.409,24,[],[],"[(1196, 879)]",[],[1],[63],[1.05],"[640.0, 512.0]",horizontal,"(390.0, 762.0)",[0.8666666666666667],[0.625],1,4825.62
10,False,582,1.444,86,[],[],"[(1142, 889)]",[],[1],[],[],"[640.0, 512.0]",vertical,"(890.0, 262.0)",[],[0],0,4829.082
10,False,583,1.03,61,[],[],"[(1184, 884)]",[],[1],[],[],"[640.0, 512.0]",vertical,"(390.0, 762.0)",[],[0],0,4832.705
10,False,584,0.315,18,[],[],"[(1113, 880)]",[],[1],[53],[0.8833333333333333],"[640.0, 512.0]",horizontal,"(890.0, 262.0)",[0.55],[0.568],1,4837.064
10,False,585,0.888,53,[],[],"[(1136, 873)]",[],[1],[86],[1.4333333333333333],"[640.0, 512.0]",vertical,"(390.0, 262.0)",[0.85],[0.52],1,4840.062
10,False,586,0.592,35,[],[],"[(1144, 884)]",[],[1],[75],[1.25],"[640.0, 512.0]",vertical,"(390.0, 762.0)",[0.7833333333333333],[0.644],1,4846.509
10,False,587,1.082,64,[],[],"[(1150, 884)]",[],[1],[88],[1.4666666666666666],"[640.0, 512.0]",vertical,"(890.0, 262.0)",[1.5833333333333333],[0.381],1,4850.122
10,False,588,0.455,27,[],[],"[(1178, 879)]",[],[1],[58],[0.9666666666666667],"[640.0, 512.0]",vertical,"(890.0, 262.0)",[0.7166666666666667],[0.499],1,4854.695
10,False,589,1.062,63,[],[],"[(1113, 884)]",[],[1],[89],[1.4833333333333334],"[640.0, 512.0]",vertical,"(890.0, 762.0)",[1.45],[0.408],1,4977.2
10,False,590,0.545,32,[],[],"[(1118, 890)]",[],[1],[62],[1.0333333333333332],"[640.0, 512.0]",horizontal,"(890.0, 262.0)",[1.2833333333333332],[0.478],1,4981.698
10,False,591,0.64,38,[],[],"[(1093, 901)]",[],[1],[68],[1.1333333333333333],"[640.0, 512.0]",horizontal,"(390.0, 262.0)",[1.0333333333333332],[0.478],1,4985.618
10,False,592,1.309,78,[],[],"[(1190, 875)]",[],[1],[101],[1.6833333333333333],"[640.0, 512.0]",vertical,"(890.0, 262.0)",[1.0],[0.368],1,4989.384
10,False,593,0.811,48,[],[],"[(1130, 860)]",[],[1],[81],[1.35],"[640.0, 512.0]",horizontal,"(390.0, 262.0)",[0.8333333333333334],[0.523],1,4993.648
10,False,594,0.489,29,[],[],"[(1154, 906)]",[],[1],[59],[0.9833333333333333],"[640.0, 512.0]",horizontal,"(890.0, 262.0)",[0.8833333333333333],[0.472],1,4997.423
10,False,595,0.419,25,[],[],"[(1136, 885)]",[],[1],[60],[1.0],"[640.0, 512.0]",vertical,"(390.0, 262.0)",[0.6666666666666666],[0.56],1,5000.833
10,False,596,1.022,61,[],[],"[(1160, 880)]",[],[1],[98],[1.6333333333333333],"[640.0, 512.0]",horizontal,"(890.0, 762.0)",[1.1666666666666667],[0.585],1,5004.018
10,False,597,0.624,37,[],[],"[(1130, 872)]",[],[1],[75],[1.25],"[640.0, 512.0]",vertical,"(390.0, 262.0)",[1.1666666666666667],[0.613],1,5008.301
10,False,598,1.382,82,[],[],"[(1150, 879)]",[],[1],[],[],"[640.0, 512.0]",vertical,"(890.0, 262.0)",[],[0],0,5012.337
10,False,599,1.193,71,[],[],"[(1134, 877)]",[],[1],[112],[1.8666666666666667],"[640.0, 512.0]",horizontal,"(390.0, 762.0)",[0.55],[0.659],1,5015.802
10,False,600,0.396,23,[],[],"[(1143, 880)]",[],[1],[58],[0.9666666666666667],"[640.0, 512.0]",vertical,"(390.0, 762.0)",[1.5],[0.566],1,5020.543
11,False,601,1.468,88,[],[],"[(1130, 866)]",[],[1],[111],[1.8499999999999999],"[640.0, 512.0]",horizontal,"(390.0, 262.0)",[1.6666666666666667],[0.363],1,5024.522
11,False,602,1.202,72,[],[],"[(1144, 881)]",[],[1],[103],[1.7166666666666666],"[640.0, 512.0]",vertical,"(890.0, 762.0)",[1.4666666666666666],[0.491],1,5029.569
11,False,603,1.228,73,[],[],"[(1137, 880)]",[],[1],[81],[1.35],"[640.0, 512.0]",horizontal,"(890.0, 762.0)",[1.4333333333333333],[0.119],1,5034.274
11,False,604,1.041,62,[],[],"[(1129, 876)]",[],[1],[94],[1.5666666666666667],"[640.0, 512.0]",vertical,"(390.0, 262.0)",[0.7333333333333333],[0.511],1,5038.637
11,False,605,0.849,50,[],[],"[(1154, 889)]",[],[1],[60],[1.0],"[640.0, 512.0]",vertical,"(890.0, 262.0)",[1.6666666666666667],[0.151],1,5042.785
11,False,606,1.478,88,[],[],"[(1178, 884)]",[],[1],[93],[1.55],"[640.0, 512.0]",horizontal,"(890.0, 262.0)",[1.4166666666666667],[0.066],1,5046.972
11,False,607,0.396,23,[],[],"[(1130, 898)]",[],[1],[53],[0.8833333333333333],"[640.0, 512.0]",horizontal,"(890.0, 262.0)",[1.5166666666666666],[0.476],1,5051.505
11,False,608,0.512,30,[],[],"[(1184, 868)]",[],[1],[66],[1.1],"[640.0, 512.0]",vertical,"(390.0, 762.0)",[1.3166666666666667],[0.575],1,5055.464
11,False,609,0.431,25,[],[],"[(1184, 870)]",[],[1],[75],[1.25],"[640.0, 512.0]",vertical,"(390.0, 262.0)",[1.15],[0.803],0,5059.355
11,False,610,1.048,62,[],[],"[(1186, 888)]",[],[1],[81],[1.35],"[640.0, 512.0]",horizontal,"(890.0, 262.0)",[1.0],[0.298],1,5063.251
11,False,611,1.499,89,[],[],"[(1113, 889)]",[],[1],[],[],"[640.0, 512.0]",horizontal,"(390.0, 762.0)",[],[0],0,5088.019
11,False,612,0.357,21,[],[],"[(1184, 876)]",[],[1],[55],[0.9166666666666666],"[640.0, 512.0]",vertical,"(890.0, 762.0)",[1.2333333333333334],[0.542],1,5091.722
11,False,613,1.207,72,[],[],"[(1177, 890)]",[],[1],[102],[1.7],"[640.0, 512.0]",horizontal,"(890.0, 262.0)",[1.55],[0.472],1,5095.387
11,False,614,1.165,69,[],[],"[(1146, 894)]",[],[1],[98],[1.6333333333333333],"[640.0, 512.0]",vertical,"(890.0, 262.0)",[0.8833333333333333],[0.463],1,5100.144
11,False,615,1.111,66,[],[],"[(1140, 884)]",[],[1],[100],[1.6666666666666667],"[640.0, 512.0]",horizontal,"(390.0, 762.0)",[1.2],[0.545],1,5104.183
11,False,616,0.407,24,[],[],"[(1184, 881)]",[],[1],[54],[0.9],"[640.0, 512.0]",vertical,"(890.0, 262.0)",[1.1],[0.479],1,5108.602
11,False,617,0.332,19,[],[],"[(1172, 903)]",[],[1],[69],[1.15],"[640.0, 512.0]",horizontal,"(390.0, 262.0)",[0.7666666666666666],[0.804],0,5112.07
11,False,618,0.556,33,[],[],"[(1190, 889)]",[],[1],[66],[1.1],"[640.0, 512.0]",horizontal,"(890.0, 262.0)",[1.4333333333333333],[0.525],1,5115.615
11,False,619,1.379,82,[],[],"[(1168, 881)]",[],[1],[],[],"[640.0, 512.0]",vertical,"(890.0, 262.0)",[],[0],0,5120.307
11,False,620,0.857,51,[],[],"[(1146, 891)]",[],[1],[87],[1.45],"[640.0, 512.0]",vertical,"(390.0, 762.0)",[0.7166666666666667],[0.583],1,5124.631
11,False,621,0.831,49,[],[],"[(1126, 895)]",[],[1],[83],[1.3833333333333333],"[640.0, 512.0]",horizontal,"(890.0, 262.0)",[1.3833333333333333],[0.539],1,5128.954
11,False,622,1.496,89,[],[],"[(1148, 884)]",[],[1],[121],[2.0166666666666666],"[640.0, 512.0]",vertical,"(890.0, 262.0)",[1.2],[0.505],1,5133.188
11,False,623,1.02,61,[],[],"[(1177, 869)]",[],[1],[96],[1.6],"[640.0, 512.0]",horizontal,"(890.0, 762.0)",[0.8833333333333333],[0.567],1,5137.95
11,False,624,1.183,70,[],[],"[(1157, 884)]",[],[1],[103],[1.7166666666666666],"[640.0, 512.0]",horizontal,"(390.0, 762.0)",[1.4666666666666666],[0.522],1,5141.981
11,False,625,0.397,23,[],[],"[(1148, 879)]",[],[1],[59],[0.9833333333333333],"[640.0, 512.0]",vertical,"(390.0, 262.0)",[1.1666666666666667],[0.575],1,5146.645
11,False,626,1.344,80,[],[],"[(1142, 875)]",[],[1],[115],[1.9166666666666667],"[640.0, 512.0]",horizontal,"(390.0, 762.0)",[0.8666666666666667],[0.557],1,5150.319
11,False,627,0.563,33,[],[],"[(1195, 873)]",[],[1],[68],[1.1333333333333333],"[640.0, 512.0]",horizontal,"(390.0, 762.0)",[0.9333333333333333],[0.565],1,5154.628
11,False,628,0.769,46,[],[],"[(1172, 881)]",[],[1],[79],[1.3166666666666667],"[640.0, 512.0]",horizontal,"(390.0, 762.0)",[1.6333333333333333],[0.523],1,5158.168
11,False,629,0.839,50,[],[],"[(1130, 894)]",[],[1],[88],[1.4666666666666666],"[640.0, 512.0]",horizontal,"(890.0, 262.0)",[1.6833333333333333],[0.614],1,5162.617
11,False,630,0.88,52,[],[],"[(1146, 846)]",[],[1],[88],[1.4666666666666666],"[640.0, 512.0]",vertical,"(390.0, 262.0)",[0.8833333333333333],[0.575],1,5168.564
11,False,631,0.586,35,[],[],"[(1146, 878)]",[],[1],[68],[1.1333333333333333],"[640.0, 512.0]",vertical,"(390.0, 762.0)",[1.6],[0.525],1,5172.533
11,False,632,0.972,58,[],[],"[(1178, 884)]",[],[1],[94],[1.5666666666666667],"[640.0, 512.0]",horizontal,"(890.0, 262.0)",[0.55],[0.577],1,5176.782
11,False,633,0.464,27,[],[],"[(1123, 888)]",[],[1],[73],[1.2166666666666666],"[640.0, 512.0]",horizontal,"(890.0, 262.0)",[0.5166666666666666],[0.74],1,5180.465
11,False,634,0.69,41,[],[],"[(1131, 875)]",[],[1],[74],[1.2333333333333334],"[640.0, 512.0]",horizontal,"(890.0, 762.0)",[1.25],[0.527],1,5183.767
11,False,635,0.739,44,[],[],"[(1123, 891)]",[],[1],[87],[1.45],"[640.0, 512.0]",vertical,"(390.0, 262.0)",[1.35],[0.704],1,5197.23
11,False,636,0.857,51,[],[],"[(1130, 885)]",[],[1],[92],[1.5333333333333332],"[640.0, 512.0]",vertical,"(890.0, 762.0)",[1.4333333333333333],[0.659],1,5201.629
11,False,637,0.631,37,[],[],"[(1128, 879)]",[],[1],[69],[1.15],"[640.0, 512.0]",horizontal,"(890.0, 262.0)",[1.25],[0.509],1,5208.014
11,False,638,0.629,37,[],[],"[(1096, 872)]",[],[1],[71],[1.1833333333333333],"[640.0, 512.0]",vertical,"(890.0, 762.0)",[1.4666666666666666],[0.54],1,5212.033
11,False,639,0.357,21,[],[],"[(1146, 870)]",[],[1],[62],[1.0333333333333332],"[640.0, 512.0]",vertical,"(390.0, 262.0)",[1.5],[0.662],1,5217.463
11,False,640,0.654,39,[],[],"[(1142, 868)]",[],[1],[75],[1.25],"[640.0, 512.0]",horizontal,"(890.0, 762.0)",[0.85],[0.578],1,5221.535
11,False,641,1.485,89,[],[],"[(1131, 851)]",[],[1],[123],[2.05],"[640.0, 512.0]",vertical,"(890.0, 762.0)",[1.05],[0.544],1,5225.212
11,False,642,1.323,79,[],[],"[(1195, 882)]",[],[1],[112],[1.8666666666666667],"[640.0, 512.0]",horizontal,"(890.0, 762.0)",[0.8166666666666667],[0.524],1,5229.881
11,False,643,1.235,74,[],[],"[(1141, 880)]",[],[1],[107],[1.7833333333333332],"[640.0, 512.0]",horizontal,"(390.0, 762.0)",[1.5833333333333333],[0.527],1,5234.039
11,False,644,0.796,47,[],[],"[(1160, 876)]",[],[1],[77],[1.2833333333333332],"[640.0, 512.0]",horizontal,"(890.0, 262.0)",[1.5833333333333333],[0.473],1,5238.937
11,False,645,0.648,38,[],[],"[(1136, 872)]",[],[1],[74],[1.2333333333333334],"[640.0, 512.0]",horizontal,"(890.0, 762.0)",[0.95],[0.568],1,5243.332
11,False,646,0.814,48,[],[],"[(1136, 874)]",[],[1],[82],[1.3666666666666667],"[640.0, 512.0]",horizontal,"(890.0, 762.0)",[0.6333333333333333],[0.551],1,5247.084
11,False,647,0.885,53,[],[],"[(1176, 879)]",[],[1],[93],[1.55],"[640.0, 512.0]",horizontal,"(390.0, 762.0)",[1.0],[0.639],1,5250.63
11,False,648,0.928,55,[],[],"[(1166, 880)]",[],[1],[88],[1.4666666666666666],"[640.0, 512.0]",vertical,"(890.0, 762.0)",[1.1666666666666667],[0.52],1,5254.723
11,False,649,0.681,40,[],[],"[(1171, 869)]",[],[1],[86],[1.4333333333333333],"[640.0, 512.0]",vertical,"(890.0, 762.0)",[0.6833333333333333],[0.74],1,5258.968
11,False,650,1.248,74,[],[],"[(1153, 872)]",[],[1],[117],[1.95],"[640.0, 512.0]",vertical,"(890.0, 762.0)",[1.5166666666666666],[0.693],1,5262.668
11,False,651,1.117,67,[],[],"[(1172, 871)]",[],[1],[101],[1.6833333333333333],"[640.0, 512.0]",horizontal,"(890.0, 762.0)",[0.7833333333333333],[0.545],1,5267.623
11,False,652,1.332,79,[],[],"[(1148, 855)]",[],[1],[115],[1.9166666666666667],"[640.0, 512.0]",vertical,"(390.0, 762.0)",[0.5666666666666667],[0.576],1,5271.663
11,False,653,1.431,85,[],[],"[(1166, 875)]",[],[1],[118],[1.9666666666666666],"[640.0, 512.0]",horizontal,"(890.0, 762.0)",[0.5166666666666666],[0.533],1,5275.591
11,False,654,0.792,47,[],[],"[(1169, 885)]",[],[1],[89],[1.4833333333333334],"[640.0, 512.0]",vertical,"(890.0, 762.0)",[0.6166666666666667],[0.667],1,5279.62
11,False,655,1.384,83,[],[],"[(1142, 883)]",[],[1],[117],[1.95],"[640.0, 512.0]",vertical,"(390.0, 262.0)",[0.5333333333333333],[0.543],1,5283.241
11,False,656,1.134,68,[],[],"[(1148, 860)]",[],[1],[106],[1.7666666666666666],"[640.0, 512.0]",vertical,"(390.0, 762.0)",[0.85],[0.615],1,5287.249
11,False,657,0.305,18,[],[],"[(1136, 882)]",[],[1],[56],[0.9333333333333333],"[640.0, 512.0]",vertical,"(890.0, 762.0)",[1.6166666666666667],[0.606],1,5291.423
11,False,658,0.498,29,[],[],"[(1099, 865)]",[],[1],[64],[1.0666666666666667],"[640.0, 512.0]",vertical,"(390.0, 762.0)",[1.3166666666666667],[0.565],1,5295.988
11,False,659,0.683,40,[],[],"[(1136, 883)]",[],[1],[66],[1.1],"[640.0, 512.0]",horizontal,"(890.0, 762.0)",[1.6833333333333333],[0.413],1,5300.008
11,False,660,0.575,34,[],[],"[(1166, 879)]",[],[1],[68],[1.1333333333333333],"[640.0, 512.0]",vertical,"(390.0, 262.0)",[1.4666666666666666],[0.54],1,5304.335
12,False,661,0.748,44,[],[],"[(1153, 854)]",[],[1],[82],[1.3666666666666667],"[640.0, 512.0]",vertical,"(890.0, 262.0)",[0.5833333333333334],[0.607],1,5308.405
