block,trial,trial_type,taps_start_loc_during_fix,taps_end_loc_during_fix,taps_on_lever_during_fix,taps_on_lever_s_during_fix,bar_orientation,target_xy,cti,rt,acc,time,pulses,fa_rate_recent100,actual_invalid_type
0,1,valid,"[(1091, 847)]",[],[1],[0.45],vertical,"(890.0, 762.0)",1.4,0.414,1,0.577,1,0.0,same
0,2,valid,"[(1104, 845)]",[],[1],[0.6833333333333333],vertical,"(890.0, 762.0)",0.4,0.656,1,9.294,1,0.0,same
0,3,valid,"[(1126, 792)]",[],[1],[0.15],vertical,"(890.0, 262.0)",1.2833333333333332,0.119,0,44.089,0,0.0,same
0,4,valid,"[(1139, 795)]",[],[1],[0.5166666666666666],vertical,"(390.0, 762.0)",1.2166666666666666,0.493,1,49.088,1,0.0,same
0,5,valid,"[(1120, 787)]",[],[1],[0.8],horizontal,"(890.0, 262.0)",0.5166666666666666,0.781,1,54.615,1,0.0,same
0,6,invalid_same_bar,"[(1142, 795)]",[],[1],[0.5333333333333333],horizontal,"(890.0, 762.0)",1.4833333333333334,0.506,1,59.717,1,0.0,same
0,7,valid,"[(1111, 787)]",[],[1],[0.6],vertical,"(390.0, 762.0)",0.7333333333333333,0.575,1,65.313,2,0.0,same
0,8,valid,"[(1141, 795)]",[],[1],[0.85],horizontal,"(890.0, 762.0)",0.75,nan,0,70.612,0,0.0,same
0,9,catch,"[(1078, 806)]",[],[1],[],vertical,"(390.0, 762.0)",,"('cti', 0.884),nan",0,75.635,0,0.1111111111111111,same
0,10,valid,"[(1078, 791)]",[],[1],[],horizontal,"(390.0, 762.0)",,"('fix', 0.284)",0,79.36,0,0.1,same
0,11,catch,"[(1084, 826)]",[],[1],[],vertical,"(890.0, 262.0)",1.7,nan,1,88.907,1,0.09090909090909091,same
0,12,catch,"[(1100, 804)]",[],[1],[],horizontal,"(390.0, 262.0)",1.7,nan,1,94.456,1,0.08333333333333333,same
0,13,valid,"[(1122, 805)]",[],[1],[0.85],vertical,"(890.0, 762.0)",0.75,nan,0,99.664,0,0.07692307692307693,same
0,14,catch,"[(1125, 783)]",[],[1],[],horizontal,"(890.0, 262.0)",1.7,nan,1,104.858,1,0.07142857142857142,same
0,15,invalid_same_bar,"[(1136, 788)]",[],[1],[0.6833333333333333],vertical,"(390.0, 262.0)",1.2166666666666666,0.655,1,110.403,1,0.06666666666666667,same
0,16,valid,"[(1169, 781)]",[],[1],[0.5833333333333334],vertical,"(890.0, 762.0)",0.3833333333333333,0.56,1,116.339,1,0.0625,same
0,17,valid,"[(1203, 831)]",[],[1],[0.55],vertical,"(390.0, 262.0)",0.7166666666666667,0.522,1,120.747,2,0.058823529411764705,same
0,18,catch,"[(1175, 774)]",[],[1],[],horizontal,"(390.0, 262.0)",1.7,nan,1,125.928,2,0.05555555555555555,same
0,19,valid,"[(1167, 765)]",[],[1],[0.85],vertical,"(390.0, 762.0)",0.8666666666666667,nan,0,132.077,0,0.05263157894736842,same
0,20,valid,"[(1105, 784)]",[],[1],[0.5666666666666667],vertical,"(890.0, 762.0)",1.2666666666666666,0.534,1,136.776,1,0.05,same
0,21,valid,"[(1171, 776)]",[],[1],[0.5333333333333333],vertical,"(890.0, 262.0)",0.45,0.502,1,142.449,1,0.047619047619047616,same
0,22,valid,"[(1182, 770)]",[],[1],[0.48333333333333334],horizontal,"(890.0, 762.0)",1.4,0.457,1,147.233,1,0.045454545454545456,same
0,23,valid,"[(1175, 769)]",[],[1],[0.6166666666666667],horizontal,"(890.0, 762.0)",1.3,0.576,1,152.847,2,0.043478260869565216,same
0,24,valid,"[(1170, 759)]",[],[1],[0.65],vertical,"(390.0, 762.0)",0.7333333333333333,0.609,1,158.92,2,0.041666666666666664,same
0,25,valid,"[(1172, 756)]",[],[1],[0.55],vertical,"(890.0, 262.0)",0.45,0.517,1,164.211,2,0.04,same
0,26,valid,"[(1191, 793)]",[],[1],[0.65],vertical,"(890.0, 762.0)",0.6333333333333333,0.611,1,169.058,3,0.038461538461538464,same
0,27,valid,"[(1163, 772)]",[],[1],[0.5166666666666666],horizontal,"(890.0, 262.0)",1.4833333333333334,0.488,1,174.61,3,0.037037037037037035,same
0,28,valid,"[(1175, 784)]",[],[1],[0.6333333333333333],horizontal,"(390.0, 262.0)",1.3666666666666667,0.597,1,181.402,3,0.03571428571428571,same
0,29,valid,"[(1193, 769)]",[],[1],[0.5166666666666666],vertical,"(890.0, 762.0)",0.6166666666666667,0.491,1,187.48,3,0.034482758620689655,same
0,30,catch,"[(1177, 795)]",[],[1],[],horizontal,"(890.0, 262.0)",1.7,nan,1,193.261,3,0.03333333333333333,same
0,31,valid,"[(1178, 782)]",[],[1],[0.7166666666666667],horizontal,"(390.0, 262.0)",0.7166666666666667,0.69,1,199.708,3,0.03225806451612903,same
0,32,valid,"[(1165, 769)]",[],[1],[0.6666666666666666],horizontal,"(890.0, 262.0)",1.4333333333333333,0.642,1,205.871,3,0.03125,same
0,33,catch,"[(1179, 783)]",[],[1],[],horizontal,"(890.0, 262.0)",1.7,nan,1,212.727,3,0.030303030303030304,same
0,34,valid,"[(1163, 761)]",[],[1],[0.5333333333333333],horizontal,"(890.0, 262.0)",1.2833333333333332,0.5,1,219.059,3,0.029411764705882353,same
0,35,catch,"[(1168, 754)]",[],[1],[],horizontal,"(390.0, 762.0)",1.7,nan,1,225.242,3,0.02857142857142857,same
0,36,catch,"[(1165, 765)]",[],[1],[],horizontal,"(390.0, 762.0)",1.7,nan,1,231.152,3,0.027777777777777776,same
0,37,catch,"[(1179, 755)]",[],[1],[],vertical,"(390.0, 762.0)",1.7,nan,1,237.165,3,0.02702702702702703,same
0,38,valid,"[(1177, 753), (1110, 827)]",[],"[0, 1]",[0.8],horizontal,"(390.0, 262.0)",0.4,0.751,1,243.265,3,0.02631578947368421,same
0,39,valid,"[(1172, 776)]",[],[1],[0.5333333333333333],horizontal,"(390.0, 262.0)",0.7333333333333333,0.507,1,249.781,3,0.02564102564102564,same
0,40,valid,"[(1174, 758)]",[],[1],[0.6],vertical,"(890.0, 262.0)",1.3666666666666667,0.57,1,255.102,3,0.025,same
0,41,valid,"[(1165, 769)]",[],[1],[0.3833333333333333],vertical,"(890.0, 762.0)",1.3833333333333333,0.352,1,261.162,3,0.024390243902439025,same
0,42,valid,"[(1165, 761)]",[],[1],[0.18333333333333332],horizontal,"(890.0, 762.0)",1.5333333333333332,0.152,0,267.198,0,0.023809523809523808,same
0,43,valid,"[(1116, 782)]",[],[1],[0.5166666666666666],vertical,"(890.0, 262.0)",0.5333333333333333,0.491,1,272.153,1,0.023255813953488372,same
0,44,catch,"[(1175, 781)]",[],[1],[],horizontal,"(890.0, 762.0)",1.7,nan,1,277.474,1,0.022727272727272728,same
0,45,invalid_same_bar,"[(1176, 784)]",[],[1],[0.85],vertical,"(390.0, 762.0)",1.0833333333333333,nan,0,283.313,0,0.022222222222222223,same
0,46,valid,"[(1109, 815)]",[],[1],[0.5333333333333333],vertical,"(390.0, 762.0)",1.0166666666666666,0.508,1,288.507,1,0.021739130434782608,same
0,47,catch,"[(1135, 786)]",[],[1],[],vertical,"(890.0, 762.0)",1.7,nan,1,294.659,1,0.02127659574468085,same
0,48,valid,"[(1157, 768)]",[],[1],[0.6],vertical,"(390.0, 262.0)",1.25,0.577,1,300.287,1,0.020833333333333332,same
0,49,valid,"[(1178, 762)]",[],[1],[0.7],vertical,"(390.0, 762.0)",0.48333333333333334,0.666,1,305.724,2,0.02040816326530612,same
0,50,valid,"[(1162, 739), (1105, 825)]",[],"[0, 1]",[0.5333333333333333],horizontal,"(890.0, 762.0)",1.2,0.502,1,310.656,2,0.02,same
0,51,valid,"[(1165, 758)]",[],[1],[0.25],vertical,"(890.0, 762.0)",0.9166666666666666,0.222,1,317.629,2,0.02,same
0,52,valid,"[(1175, 762)]",[],[1],[0.5],horizontal,"(890.0, 262.0)",0.5833333333333334,0.471,1,322.602,3,0.02,same
0,53,valid,"[(1179, 786)]",[],[1],[0.7],horizontal,"(390.0, 262.0)",1.35,0.661,1,328.432,3,0.02,same
0,54,valid,"[(1160, 762)]",[],[1],[0.65],vertical,"(890.0, 762.0)",0.4166666666666667,0.623,1,334.593,3,0.02,same
0,55,valid,"[(1181, 776)]",[],[1],[0.5333333333333333],horizontal,"(890.0, 762.0)",1.2666666666666666,0.494,1,340.009,3,0.02,same
0,56,invalid_same_bar,"[(1205, 776)]",[],[1],[0.5333333333333333],vertical,"(390.0, 262.0)",0.8666666666666667,0.489,1,346.197,3,0.02,same
0,57,valid,"[(1175, 765)]",[],[1],[0.85],horizontal,"(890.0, 262.0)",1.1666666666666667,nan,0,351.511,0,0.02,same
0,58,valid,"[(1135, 785)]",[],[1],[0.26666666666666666],horizontal,"(390.0, 762.0)",0.8333333333333334,0.23,1,356.932,1,0.02,same
0,59,valid,"[(1176, 762)]",[],[1],[0.75],horizontal,"(390.0, 262.0)",1.35,0.708,1,362.191,1,0.0,same
0,60,valid,"[(1166, 773)]",[],[1],[0.6166666666666667],vertical,"(890.0, 262.0)",1.3166666666666667,0.577,1,367.562,1,0.0,same
0,61,valid,"[(1175, 764)]",[],[1],[0.75],vertical,"(390.0, 762.0)",0.5166666666666666,0.703,1,373.154,2,0.0,same
0,62,catch,"[(1175, 761)]",[],[1],[],horizontal,"(890.0, 762.0)",1.7,nan,1,378.696,2,0.0,same
0,63,valid,"[(1202, 757)]",[],[1],[0.6333333333333333],horizontal,"(390.0, 262.0)",1.1166666666666667,0.587,1,384.544,2,0.0,same
0,64,catch,"[(1167, 776)]",[],[1],[],horizontal,"(390.0, 762.0)",1.7,nan,1,390.405,3,0.0,same
0,65,catch,"[(1178, 759)]",[],[1],[],vertical,"(890.0, 262.0)",,"('cti', 1.551),nan",0,396.573,0,0.02,same
0,66,valid,"[(1140, 762)]",[],[1],[0.5833333333333334],horizontal,"(390.0, 762.0)",1.3166666666666667,0.541,1,401.129,1,0.02,same
0,67,catch,"[(1166, 747), (1137, 817)]",[],"[0, 1]",[],vertical,"(890.0, 262.0)",1.7,nan,1,406.168,1,0.02,same
0,68,valid,"[(1176, 782)]",[],[1],[0.5166666666666666],vertical,"(890.0, 762.0)",0.9333333333333333,0.488,1,412.601,1,0.02,same
0,69,catch,"[(1178, 776)]",[],[1],[],horizontal,"(390.0, 762.0)",,"('cti', 0.983),nan",0,417.465,0,0.04,same
0,70,catch,"[(1115, 787)]",[],[1],[],horizontal,"(390.0, 262.0)",1.7,nan,1,421.589,1,0.04,same
0,71,valid,"[(1180, 758)]",[],[1],[0.55],vertical,"(390.0, 262.0)",1.4166666666666667,0.513,1,426.969,1,0.04,same
0,72,valid,"[(1203, 758)]",[],[1],[0.5666666666666667],vertical,"(890.0, 762.0)",1.2666666666666666,0.527,1,432.419,1,0.04,same
0,73,valid,"[(1200, 767)]",[],[1],[0.7],vertical,"(390.0, 262.0)",0.48333333333333334,0.656,1,437.495,2,0.04,same
0,74,catch,"[(1175, 770)]",[],[1],[],horizontal,"(890.0, 262.0)",1.7,nan,1,442.529,2,0.04,same
0,75,valid,"[(1178, 767)]",[],[1],[0.5],horizontal,"(890.0, 262.0)",1.1,0.459,1,448.049,2,0.04,same
0,76,valid,"[(1165, 795)]",[],[1],[0.6166666666666667],vertical,"(390.0, 762.0)",1.4666666666666666,0.57,1,453.876,3,0.04,same
0,77,valid,"[(1205, 768)]",[],[1],[0.5666666666666667],vertical,"(390.0, 762.0)",1.45,0.522,1,460.828,3,0.04,same
0,78,catch,"[(1172, 755)]",[],[1],[],vertical,"(890.0, 262.0)",1.7,nan,1,467.11,3,0.04,same
0,79,valid,"[(1180, 751), (1136, 797)]","[(1107, 812)]","[0, 1]",[0.03333333333333333],horizontal,"(390.0, 762.0)",,"('bar', 0.051)",0,473.279,0,0.04,same
0,80,valid,"[(1125, 811)]",[],[1],[0.3],vertical,"(390.0, 762.0)",1.4833333333333334,0.262,1,476.828,1,0.04,same
0,81,valid,"[(1174, 789)]",[],[1],[0.6333333333333333],vertical,"(890.0, 262.0)",0.7166666666666667,0.596,1,487.541,1,0.04,same
0,82,valid,"[(1180, 769)]",[],[1],[0.6],horizontal,"(890.0, 262.0)",1.3666666666666667,0.561,1,492.303,1,0.04,same
0,83,valid,"[(1180, 767)]",[],[1],[0.5833333333333334],vertical,"(390.0, 762.0)",1.05,0.545,1,497.711,2,0.04,same
0,84,catch,"[(1170, 772)]",[],[1],[],vertical,"(890.0, 262.0)",1.7,nan,1,503.612,2,0.04,same
0,85,catch,"[(1169, 779)]",[],[1],[],vertical,"(890.0, 262.0)",1.7,nan,1,509.167,2,0.04,same
0,86,valid,"[(1168, 803)]",[],[1],[0.8],horizontal,"(390.0, 262.0)",1.3666666666666667,0.755,1,515.496,3,0.04,same
0,87,valid,"[(1177, 787)]",[],[1],[0.5],vertical,"(890.0, 262.0)",1.45,0.461,1,521.911,3,0.04,same
0,88,valid,"[(1175, 764)]",[],[1],[0.85],horizontal,"(890.0, 262.0)",1.2666666666666666,nan,0,528.346,0,0.04,same
0,89,valid,"[(1155, 795)]",[],[1],[0.85],vertical,"(390.0, 762.0)",0.45,nan,0,533.164,0,0.04,same
0,90,valid,"[(1118, 803)]",[],[1],[0.6333333333333333],horizontal,"(390.0, 762.0)",1.1833333333333333,0.592,1,537.762,1,0.04,same
0,91,catch,"[(1185, 764)]",[],[1],[],vertical,"(390.0, 762.0)",1.7,nan,1,543.121,1,0.04,same
0,92,catch,"[(1209, 770)]",[],[1],[],horizontal,"(890.0, 762.0)",1.7,nan,1,548.412,1,0.04,same
0,93,valid,"[(1195, 793)]",[],[1],[0.5833333333333334],horizontal,"(890.0, 262.0)",0.8666666666666667,0.539,1,553.862,2,0.04,same
0,94,valid,"[(1177, 773)]",[],[1],[0.5833333333333334],vertical,"(390.0, 762.0)",1.5166666666666666,0.545,1,559.212,2,0.04,same
0,95,valid,"[(1200, 794)]",[],[1],[0.55],vertical,"(390.0, 262.0)",0.5833333333333334,0.51,1,565.379,2,0.04,same
0,96,valid,"[(1177, 788)]",[],[1],[0.5833333333333334],vertical,"(890.0, 762.0)",0.8166666666666667,0.551,1,570.479,3,0.04,same
0,97,catch,"[(1182, 810)]",[],[1],[],vertical,"(390.0, 762.0)",1.7,nan,1,576.117,3,0.04,same
0,98,valid,"[(1185, 771)]",[],[1],[0.55],horizontal,"(390.0, 262.0)",0.7,0.516,1,582.102,3,0.04,same
0,99,invalid_same_bar,"[(1178, 755)]",[],[1],[0.65],vertical,"(390.0, 762.0)",0.5166666666666666,0.611,1,587.729,3,0.04,same
0,100,catch,"[(1190, 767)]",[],[1],[],horizontal,"(390.0, 262.0)",1.7,nan,1,593.33,3,0.04,same
0,101,valid,"[(1180, 765)]",[],[1],[0.85],vertical,"(890.0, 762.0)",1.2166666666666666,nan,0,599.81,0,0.04,same
0,102,catch,"[(1160, 791)]",[],[1],[],vertical,"(890.0, 762.0)",1.7,nan,1,605.077,1,0.04,same
0,103,valid,"[(1170, 785)]",[],[1],[0.5833333333333334],horizontal,"(390.0, 262.0)",1.1833333333333333,0.543,1,610.268,1,0.04,same
0,104,catch,"[(1212, 777)]",[],[1],[],horizontal,"(390.0, 762.0)",1.7,nan,1,615.428,1,0.04,same
0,105,valid,"[(1170, 804)]",[],[1],[0.5666666666666667],horizontal,"(390.0, 762.0)",0.48333333333333334,0.535,1,620.601,2,0.04,same
0,106,catch,"[(1181, 776)]",[],[1],[],horizontal,"(390.0, 762.0)",1.7,nan,1,625.946,2,0.04,same
0,107,valid,"[(1175, 784)]",[],[1],[0.6166666666666667],vertical,"(390.0, 262.0)",1.4166666666666667,0.573,1,631.678,2,0.04,same
0,108,valid,"[(1177, 787)]",[],[1],[0.6166666666666667],horizontal,"(390.0, 762.0)",0.95,0.577,1,637.943,3,0.04,same
0,109,valid,"[(1180, 769)]",[],[1],[0.55],horizontal,"(890.0, 762.0)",1.5166666666666666,0.518,1,643.951,3,0.04,same
0,110,valid,"[(1197, 783)]",[],[1],[0.85],horizontal,"(390.0, 762.0)",0.9166666666666666,nan,0,649.994,0,0.04,same
0,111,catch,"[(1140, 786)]",[],[1],[],vertical,"(890.0, 262.0)",1.7,nan,1,654.995,1,0.04,same
0,112,catch,"[(1183, 775)]",[],[1],[],horizontal,"(890.0, 762.0)",1.7,nan,1,660.096,1,0.04,same
0,113,invalid_adjacent_other_bar,"[(1182, 770)]",[],[1],[0.85],vertical,"(390.0, 262.0)",1.05,nan,0,665.606,0,0.04,other
0,114,catch,"[(1141, 798)]",[],[1],[],horizontal,"(890.0, 762.0)",1.7,nan,1,670.665,1,0.04,same
0,115,valid,"[(1180, 774)]",[],[1],[0.55],horizontal,"(390.0, 762.0)",1.2333333333333334,0.519,1,675.684,1,0.02,same
0,116,valid,"[(1210, 782)]",[],[1],[],horizontal,"(890.0, 762.0)",,"('fix', 0.149)",0,680.83,0,0.02,same
0,117,valid,"[(1165, 807)]",[],[1],[0.5666666666666667],vertical,"(390.0, 262.0)",1.4333333333333333,0.524,1,682.58,1,0.02,same
0,118,valid,"[(1178, 787)]",[],[1],[0.6666666666666666],vertical,"(390.0, 762.0)",0.6666666666666666,0.626,1,688.445,1,0.02,same
0,119,invalid_adjacent_other_bar,"[(1179, 789)]",[],[1],[0.5],horizontal,"(890.0, 262.0)",0.7166666666666667,0.466,1,693.48,1,0.0,other
0,120,valid,"[(1205, 788)]",[],[1],[0.5333333333333333],horizontal,"(890.0, 762.0)",1.15,0.497,1,698.478,2,0.0,same
0,121,catch,"[(1171, 786)]",[],[1],[],vertical,"(890.0, 762.0)",1.7,nan,1,704.27,2,0.0,same
0,122,catch,"[(1166, 786)]",[],[1],[],horizontal,"(390.0, 762.0)",1.7,nan,1,709.529,2,0.0,same
0,123,valid,"[(1180, 810)]",[],[1],[0.5166666666666666],horizontal,"(390.0, 762.0)",0.7333333333333333,0.477,1,715.702,3,0.0,same
0,124,valid,"[(1211, 784)]",[],[1],[0.5833333333333334],horizontal,"(890.0, 762.0)",1.25,0.542,1,721.316,3,0.0,same
0,125,catch,"[(1175, 770)]",[],[1],[],horizontal,"(890.0, 762.0)",1.7,nan,1,727.066,3,0.0,same
0,126,valid,"[(1176, 786)]",[],[1],[0.7166666666666667],horizontal,"(390.0, 262.0)",1.25,0.671,1,732.813,3,0.0,same
0,127,catch,"[(1211, 786)]",[],[1],[],horizontal,"(390.0, 762.0)",1.7,nan,1,739.063,3,0.0,same
0,128,catch,"[(1180, 776)]",[],[1],[],horizontal,"(390.0, 262.0)",1.7,nan,1,745.378,3,0.0,same
0,129,valid,"[(1180, 783)]",[],[1],[0.7],vertical,"(890.0, 762.0)",0.6,0.652,1,751.522,3,0.0,same
0,130,valid,"[(1191, 769)]",[],[1],[0.55],horizontal,"(390.0, 762.0)",1.4333333333333333,0.515,1,757.362,3,0.0,same
0,131,valid,"[(1172, 761)]",[],[1],[0.55],vertical,"(390.0, 762.0)",0.7666666666666666,0.504,1,763.862,3,0.0,same
0,132,valid,"[(1208, 783)]",[],[1],[0.5166666666666666],horizontal,"(390.0, 762.0)",0.85,0.49,1,769.329,3,0.0,same
0,133,invalid_same_bar,"[(1204, 789)]",[],[1],[0.5666666666666667],horizontal,"(390.0, 262.0)",1.0,0.528,1,775.128,3,0.0,same
0,134,invalid_same_bar,"[(1177, 770)]",[],[1],[0.6666666666666666],horizontal,"(390.0, 262.0)",1.2833333333333332,0.624,1,781.245,3,0.0,same
0,135,valid,"[(1180, 791)]",[],[1],[0.85],horizontal,"(390.0, 762.0)",1.0333333333333332,nan,0,787.445,0,0.0,same
0,136,invalid_same_bar,"[(1139, 787)]",[],[1],[0.85],horizontal,"(390.0, 762.0)",0.4666666666666667,nan,0,792.195,0,0.0,same
0,137,valid,"[(1155, 778)]",[],[1],[0.5666666666666667],horizontal,"(390.0, 762.0)",1.4166666666666667,0.527,1,796.662,1,0.0,same
0,138,invalid_same_bar,"[(1185, 785)]",[],[1],[0.65],horizontal,"(390.0, 262.0)",0.5666666666666667,0.604,1,802.162,1,0.0,same
0,139,valid,"[(1178, 769)]",[],[1],[0.85],vertical,"(890.0, 262.0)",1.2166666666666666,nan,0,806.695,0,0.0,same
0,140,valid,"[(1156, 771)]",[],[1],[0.6333333333333333],vertical,"(890.0, 762.0)",0.4,0.584,1,811.844,1,0.0,same
0,141,valid,"[(1175, 767)]",[],[1],[0.85],vertical,"(890.0, 762.0)",1.1,nan,0,815.997,0,0.0,same
0,142,catch,"[(1134, 781)]",[],[1],[],vertical,"(390.0, 762.0)",1.7,nan,1,821.032,1,0.0,same
0,143,invalid_adjacent_other_bar,"[(1209, 787)]",[],[1],[0.6166666666666667],horizontal,"(390.0, 262.0)",1.3666666666666667,0.579,1,826.495,1,0.0,other
0,144,valid,"[(1185, 786)]",[],[1],[0.7666666666666666],vertical,"(890.0, 262.0)",0.4,0.718,1,831.971,1,0.0,same
0,145,valid,"[(1207, 755)]",[],[1],[0.65],vertical,"(390.0, 262.0)",1.2333333333333334,0.607,1,836.445,2,0.0,same
0,146,valid,"[(1180, 771)]",[],[1],[0.65],vertical,"(890.0, 262.0)",0.5,0.606,1,842.063,2,0.0,same
0,147,catch,"[(1170, 789)]",[],[1],[],vertical,"(390.0, 762.0)",1.7,nan,1,846.862,2,0.0,same
0,148,valid,"[(1185, 796)]",[],[1],[0.65],vertical,"(890.0, 262.0)",0.75,0.612,1,852.651,3,0.0,same
0,149,valid,"[(1172, 757)]",[],[1],[0.6],horizontal,"(390.0, 762.0)",1.3,0.556,1,858.429,3,0.0,same
0,150,catch,"[(1206, 779)]",[],[1],[],horizontal,"(890.0, 762.0)",1.7,nan,1,864.312,3,0.0,same
0,151,catch,"[(1171, 765)]",[],[1],[],vertical,"(390.0, 762.0)",1.7,nan,1,870.113,3,0.0,same
0,152,valid,"[(1214, 792)]",[],[1],[0.65],vertical,"(390.0, 762.0)",0.4666666666666667,0.61,1,875.896,3,0.0,same
0,153,valid,"[(1195, 796)]",[],[1],[0.7],vertical,"(890.0, 262.0)",1.5,0.652,1,881.531,3,0.0,same
0,154,catch,"[(1192, 790)]",[],[1],[],horizontal,"(390.0, 762.0)",1.7,nan,1,888.34,3,0.0,same
0,155,valid,"[(1173, 813)]",[],[1],[0.6333333333333333],vertical,"(390.0, 762.0)",0.6166666666666667,0.589,1,894.646,3,0.0,same
0,156,valid,"[(1213, 760)]",[],[1],[0.5333333333333333],vertical,"(390.0, 262.0)",0.35,0.491,1,900.429,3,0.0,same
0,157,valid,"[(1210, 770)]",[],[1],[0.55],horizontal,"(890.0, 262.0)",0.8166666666666667,0.509,1,905.679,3,0.0,same
0,158,catch,"[(1214, 776)]",[],[1],[],horizontal,"(390.0, 262.0)",1.7,nan,1,911.429,3,0.0,same
0,159,valid,"[(1170, 778)]",[],[1],[0.55],horizontal,"(890.0, 762.0)",0.65,0.507,1,917.196,3,0.0,same
0,160,catch,"[(1176, 786)]",[],[1],[],vertical,"(890.0, 262.0)",1.7,nan,1,922.896,3,0.0,same
0,161,valid,"[(1185, 762)]",[],[1],[0.75],horizontal,"(390.0, 762.0)",0.9166666666666666,0.712,1,929.038,3,0.0,same
0,162,valid,"[(1175, 756)]",[],[1],[0.5166666666666666],vertical,"(390.0, 262.0)",0.6166666666666667,0.472,1,934.691,3,0.0,same
0,163,valid,"[(1183, 786)]",[],[1],[0.5833333333333334],vertical,"(890.0, 262.0)",1.25,0.544,1,939.931,3,0.0,same
0,164,valid,"[(1168, 796)]",[],[1],[0.75],vertical,"(390.0, 262.0)",1.0833333333333333,0.706,1,946.047,3,0.0,same
0,165,invalid_same_bar,"[(1191, 785)]",[],[1],[0.5333333333333333],vertical,"(390.0, 262.0)",1.45,0.502,1,952.628,3,0.0,same
0,166,valid,"[(1180, 761)]",[],[1],[0.6666666666666666],horizontal,"(890.0, 262.0)",0.4166666666666667,0.634,1,958.895,3,0.0,same
0,167,valid,"[(1181, 773)]",[],[1],[0.55],horizontal,"(390.0, 262.0)",0.9833333333333333,0.507,1,964.561,3,0.0,same
0,168,valid,"[(1178, 782)]",[],[1],[0.5833333333333334],horizontal,"(890.0, 262.0)",1.4,0.545,1,970.422,3,0.0,same
0,169,valid,"[(1179, 761)]",[],[1],[0.5833333333333334],horizontal,"(390.0, 762.0)",1.1833333333333333,0.538,1,976.581,3,0.0,same
0,170,catch,"[(1170, 781)]",[],[1],[],horizontal,"(390.0, 262.0)",1.7,nan,1,982.522,3,0.0,same
0,171,valid,"[(1183, 790)]",[],[1],[0.5333333333333333],vertical,"(890.0, 762.0)",0.7,0.496,1,988.555,3,0.0,same
0,172,catch,"[(1175, 781)]",[],[1],[],horizontal,"(390.0, 762.0)",1.7,nan,1,994.019,3,0.0,same
0,173,catch,"[(1217, 781)]",[],[1],[],vertical,"(390.0, 762.0)",1.7,nan,1,1000.001,3,0.0,same
0,174,valid,"[(1177, 786)]",[],[1],[0.6166666666666667],horizontal,"(390.0, 262.0)",0.7166666666666667,0.572,1,1006.012,3,0.0,same
0,175,valid,"[(1171, 756)]",[],[1],[0.75],horizontal,"(890.0, 762.0)",0.9333333333333333,0.707,1,1011.446,3,0.0,same
0,176,valid,"[(1178, 786)]",[],[1],[0.7],horizontal,"(890.0, 262.0)",1.1333333333333333,0.657,1,1017.585,3,0.0,same
0,177,valid,"[(1180, 765)]",[],[1],[0.7166666666666667],horizontal,"(890.0, 762.0)",0.3833333333333333,0.676,1,1024.127,3,0.0,same
0,178,valid,"[(1178, 755)]",[],[1],[0.5333333333333333],horizontal,"(890.0, 762.0)",0.7,0.5,1,1029.13,3,0.0,same
0,179,valid,"[(1186, 776)]",[],[1],[0.5833333333333334],vertical,"(390.0, 262.0)",0.5166666666666666,0.54,1,1034.846,3,0.0,same
0,180,valid,"[(1172, 765)]",[],[1],[0.6166666666666667],horizontal,"(390.0, 262.0)",1.4333333333333333,0.584,1,1040.518,3,0.0,same
0,181,valid,"[(1181, 786)]",[],[1],[0.5333333333333333],horizontal,"(890.0, 262.0)",0.9833333333333333,0.493,1,1047.013,3,0.0,same
0,182,valid,"[(1205, 785)]",[],[1],[0.5666666666666667],horizontal,"(890.0, 262.0)",0.8,0.521,1,1052.607,3,0.0,same
0,183,valid,"[(1165, 798)]",[],[1],[0.6666666666666666],horizontal,"(390.0, 262.0)",0.8666666666666667,0.626,1,1058.096,3,0.0,same
0,184,valid,"[(1186, 767)]",[],[1],[0.48333333333333334],horizontal,"(390.0, 262.0)",1.4833333333333334,0.44,1,1064.366,3,0.0,same
0,185,catch,"[(1183, 782)]",[],[1],[],horizontal,"(890.0, 262.0)",1.7,"('cti', 1.693),nan",0,1070.78,0,0.02,same
0,186,invalid_same_bar,"[(1167, 781)]",[],[1],[0.08333333333333333],horizontal,"(890.0, 762.0)",1.0666666666666667,0.048,0,1075.812,0,0.02,same
0,187,valid,"[(1180, 796)]",[],[1],[0.7],horizontal,"(390.0, 762.0)",0.4666666666666667,0.662,1,1080.242,1,0.02,same
0,188,valid,"[(1183, 771)]",[],[1],[0.5333333333333333],horizontal,"(890.0, 262.0)",0.8333333333333334,0.5,1,1084.763,1,0.02,same
0,189,valid,"[(1178, 781)]",[],[1],[0.85],vertical,"(890.0, 762.0)",1.4166666666666667,nan,0,1089.266,0,0.02,same
0,190,catch,"[(1137, 799)]",[],[1],[],horizontal,"(890.0, 262.0)",1.7,nan,1,1094.396,1,0.02,same
0,191,valid,"[(1178, 800)]",[],[1],[0.5],vertical,"(890.0, 262.0)",0.75,0.464,1,1099.796,1,0.02,same
0,192,invalid_same_bar,"[(1206, 779)]",[],[1],[0.85],vertical,"(890.0, 262.0)",1.1666666666666667,nan,0,1104.447,0,0.02,same
0,193,catch,"[(1165, 783)]",[],[1],[],vertical,"(890.0, 762.0)",1.7,nan,1,1109.713,1,0.02,same
0,194,valid,"[(1191, 777)]",[],[1],[0.85],horizontal,"(390.0, 262.0)",1.1166666666666667,nan,0,1114.755,0,0.02,same
0,195,valid,"[(1165, 761)]",[],[1],[0.6333333333333333],vertical,"(890.0, 262.0)",1.4666666666666666,0.593,1,1119.48,1,0.02,same
0,196,valid,"[(1178, 757)]",[],[1],[0.55],vertical,"(390.0, 262.0)",0.8666666666666667,0.511,1,1124.92,1,0.02,same
0,197,valid,"[(1189, 764)]",[],[1],[0.6333333333333333],horizontal,"(890.0, 262.0)",1.4666666666666666,0.586,1,1129.844,1,0.02,same
0,198,catch,"[(1180, 767)]",[],[1],[],vertical,"(890.0, 262.0)",1.7,nan,1,1135.214,2,0.02,same
0,199,valid,"[(1191, 789)]",[],[1],[0.5833333333333334],horizontal,"(890.0, 762.0)",1.3666666666666667,0.538,1,1140.963,2,0.02,same
0,200,catch,"[(1160, 779)]",[],[1],[],horizontal,"(390.0, 762.0)",1.7,nan,1,1147.038,2,0.02,same
0,201,valid,"[(1184, 792)]",[],[1],[0.6333333333333333],vertical,"(890.0, 762.0)",0.85,0.594,1,1153.061,3,0.02,same
0,202,valid,"[(1180, 780)]",[],[1],[0.6],horizontal,"(390.0, 762.0)",0.6333333333333333,0.556,1,1158.649,3,0.02,same
0,203,catch,"[(1180, 780)]",[],[1],[],horizontal,"(390.0, 262.0)",1.7,nan,1,1164.096,3,0.02,same
0,204,valid,"[(1176, 777)]",[],[1],[0.7166666666666667],horizontal,"(890.0, 262.0)",1.3333333333333333,0.671,1,1170.453,3,0.02,same
0,205,valid,"[(1178, 768)]",[],[1],[0.55],vertical,"(390.0, 762.0)",0.8333333333333334,0.504,1,1177.032,3,0.02,same
0,206,catch,"[(1180, 757)]",[],[1],[],horizontal,"(890.0, 762.0)",1.7,nan,1,1182.596,3,0.02,same
0,207,valid,"[(1179, 780)]",[],[1],[0.7833333333333333],vertical,"(890.0, 762.0)",0.6166666666666667,0.736,1,1188.278,3,0.02,same
0,208,valid,"[(1180, 759)]",[],[1],[0.5666666666666667],horizontal,"(390.0, 762.0)",0.5166666666666666,0.525,1,1193.681,3,0.02,same
0,209,valid,"[(1176, 786)]",[],[1],[0.55],vertical,"(890.0, 762.0)",1.2,0.506,1,1198.997,3,0.02,same
0,210,valid,"[(1176, 786)]",[],[1],[0.5666666666666667],vertical,"(890.0, 262.0)",1.4666666666666666,0.522,1,1204.687,3,0.02,same
0,211,catch,"[(1181, 782)]",[],[1],[],horizontal,"(890.0, 762.0)",1.7,nan,1,1210.929,3,0.02,same
0,212,catch,"[(1182, 771)]",[],[1],[],horizontal,"(890.0, 262.0)",1.7,nan,1,1216.729,3,0.02,same
0,213,valid,"[(1186, 788)]",[],[1],[0.6666666666666666],vertical,"(390.0, 762.0)",1.2333333333333334,0.622,1,1222.766,3,0.02,same
0,214,invalid_same_bar,"[(1183, 767)]",[],[1],[0.65],vertical,"(890.0, 762.0)",1.2166666666666666,0.602,1,1228.898,3,0.02,same
0,215,valid,"[(1206, 782)]",[],[1],[0.5833333333333334],vertical,"(390.0, 262.0)",1.0833333333333333,0.538,1,1235.229,3,0.02,same
0,216,valid,"[(1181, 781)]",[],[1],[0.55],horizontal,"(390.0, 262.0)",0.85,0.507,1,1241.333,3,0.02,same
0,217,invalid_same_bar,"[(1176, 770)]",[],[1],[0.6666666666666666],vertical,"(390.0, 762.0)",0.8,0.62,1,1246.946,3,0.02,same
0,218,valid,"[(1200, 768)]",[],[1],[0.5833333333333334],horizontal,"(390.0, 262.0)",0.9666666666666667,0.541,1,1252.651,3,0.02,same
0,219,valid,"[(1176, 793)]",[],[1],[0.6],horizontal,"(890.0, 762.0)",1.2833333333333332,0.57,1,1258.331,3,0.02,same
0,220,valid,"[(1190, 790)]",[],[1],[],horizontal,"(890.0, 762.0)",,"('cti', 1.317)",0,1264.181,0,0.02,same
0,221,valid,"[(1136, 777)]",[],[1],[0.7333333333333333],vertical,"(390.0, 762.0)",1.25,0.688,1,1268.696,1,0.02,same
0,222,valid,"[(1208, 763)]",[],[1],[0.5],vertical,"(890.0, 262.0)",0.4666666666666667,0.456,1,1274.129,1,0.02,same
0,223,valid,"[(1186, 751), (1138, 813)]",[],"[0, 1]",[0.85],horizontal,"(390.0, 262.0)",0.8333333333333334,nan,0,1278.922,0,0.02,same
0,224,catch,"[(1164, 791)]",[],[1],[],vertical,"(890.0, 762.0)",1.7,nan,1,1284.565,1,0.02,same
0,225,valid,"[(1181, 772)]",[],[1],[0.55],vertical,"(390.0, 762.0)",0.5666666666666667,0.516,1,1290.027,1,0.02,same
0,226,invalid_adjacent_other_bar,"[(1174, 773)]",[],[1],[0.5333333333333333],vertical,"(890.0, 762.0)",0.7833333333333333,0.493,1,1294.319,1,0.02,other
0,227,valid,"[(1202, 765)]",[],[1],[0.5666666666666667],horizontal,"(390.0, 262.0)",0.7,0.525,1,1298.931,2,0.02,same
0,228,valid,"[(1170, 791)]",[],[1],[0.85],vertical,"(390.0, 262.0)",0.4666666666666667,nan,0,1304.236,0,0.02,same
0,229,valid,"[(1135, 796)]",[],[1],[0.5333333333333333],horizontal,"(890.0, 262.0)",1.3666666666666667,0.509,1,1309.013,1,0.02,same
0,230,valid,"[(1190, 757)]",[],[1],[0.55],vertical,"(890.0, 262.0)",0.5333333333333333,0.511,1,1314.446,1,0.02,same
0,231,valid,"[(1178, 796)]",[],[1],[0.5833333333333334],horizontal,"(890.0, 262.0)",1.1166666666666667,0.538,1,1318.883,1,0.02,same
0,232,valid,"[(1178, 768)]",[],[1],[0.5833333333333334],vertical,"(890.0, 762.0)",1.2666666666666666,0.543,1,1324.315,2,0.02,same
0,233,invalid_same_bar,"[(1180, 772)]",[],[1],[0.85],horizontal,"(890.0, 262.0)",0.55,nan,0,1329.98,0,0.02,same
0,234,catch,"[(1137, 784)]",[],[1],[],vertical,"(390.0, 762.0)",1.7,nan,1,1334.697,1,0.02,same
0,235,catch,"[(1189, 762)]",[],[1],[],horizontal,"(890.0, 262.0)",1.7,nan,1,1339.798,1,0.0,same
0,236,catch,"[(1180, 760)]",[],[1],[],horizontal,"(390.0, 762.0)",1.7,nan,1,1344.84,1,0.0,same
0,237,valid,"[(1206, 768)]",[],[1],[],horizontal,"(890.0, 762.0)",,"('fix', 0.162)",0,1350.012,0,0.0,same
0,238,valid,"[(1136, 825)]",[],[1],[0.55],horizontal,"(890.0, 762.0)",0.4666666666666667,0.506,1,1351.75,1,0.0,same
0,239,invalid_adjacent_other_bar,"[(1181, 777)]",[],[1],[0.5333333333333333],horizontal,"(890.0, 762.0)",0.7666666666666666,0.492,1,1356.769,1,0.0,other
0,240,valid,"[(1171, 772)]",[],[1],[0.5833333333333334],vertical,"(390.0, 762.0)",1.2833333333333332,0.545,1,1361.529,1,0.0,same
0,241,valid,"[(1175, 777)]",[],[1],[0.48333333333333334],horizontal,"(390.0, 262.0)",0.6166666666666667,0.441,1,1366.711,2,0.0,same
0,242,valid,"[(1170, 782)]",[],[1],[0.6333333333333333],vertical,"(390.0, 762.0)",1.0166666666666666,0.59,1,1371.999,2,0.0,same
0,243,catch,"[(1193, 791)]",[],[1],[],horizontal,"(390.0, 762.0)",1.7,nan,1,1377.779,2,0.0,same
0,244,valid,"[(1180, 792)]",[],[1],[0.5833333333333334],horizontal,"(390.0, 262.0)",1.1166666666666667,0.539,1,1383.428,3,0.0,same
0,245,valid,"[(1175, 778)]",[],[1],[0.85],vertical,"(390.0, 762.0)",1.2166666666666666,nan,0,1389.721,0,0.0,same
0,246,catch,"[(1168, 795)]",[],[1],[],vertical,"(390.0, 762.0)",1.7,nan,1,1394.42,1,0.0,same
0,247,invalid_same_bar,"[(1182, 766)]",[],[1],[0.5333333333333333],horizontal,"(390.0, 262.0)",0.4166666666666667,0.493,1,1399.65,1,0.0,same
0,248,valid,"[(1205, 767)]",[],[1],[0.55],horizontal,"(890.0, 262.0)",1.35,0.505,1,1404.18,1,0.0,same
0,249,catch,"[(1205, 769)]",[],[1],[],horizontal,"(890.0, 262.0)",,"('fix', 0.202),nan",0,1409.313,0,0.02,same
0,250,catch,"[(1135, 815)]",[],[1],[],vertical,"(890.0, 762.0)",1.7,nan,1,1411.096,1,0.02,same
0,251,invalid_same_bar,"[(1179, 775)]",[],[1],[0.5166666666666666],vertical,"(890.0, 262.0)",1.1,0.482,1,1416.465,1,0.02,same
0,252,catch,"[(1210, 765)]",[],[1],[],vertical,"(890.0, 762.0)",1.7,nan,1,1421.864,1,0.02,same
0,253,valid,"[(1192, 780)]",[],[1],[0.6],horizontal,"(890.0, 762.0)",0.7166666666666667,0.554,1,1427.251,2,0.02,same
0,254,invalid_same_bar,"[(1209, 786)]",[],[1],[0.5833333333333334],horizontal,"(890.0, 762.0)",0.9333333333333333,0.543,1,1432.629,2,0.02,same
0,255,catch,"[(1174, 766)]",[],[1],[],vertical,"(390.0, 262.0)",1.7,nan,1,1438.265,2,0.02,same
0,256,valid,"[(1178, 801)]",[],[1],[0.5666666666666667],horizontal,"(390.0, 762.0)",0.8833333333333333,0.529,1,1444.323,3,0.02,same
0,257,catch,"[(1177, 783)]",[],[1],[],horizontal,"(890.0, 262.0)",1.7,nan,1,1450.296,3,0.02,same
0,258,valid,"[(1210, 782)]",[],[1],[0.85],horizontal,"(390.0, 762.0)",0.35,nan,0,1456.301,0,0.02,same
0,259,catch,"[(1175, 769)]",[],[1],[],vertical,"(890.0, 762.0)",1.7,nan,1,1460.546,1,0.02,same
0,260,valid,"[(1179, 801)]",[],[1],[0.55],vertical,"(890.0, 262.0)",0.5,0.516,1,1466.461,1,0.02,same
0,261,valid,"[(1180, 795)]",[],[1],[0.5833333333333334],horizontal,"(390.0, 762.0)",1.4166666666666667,0.552,1,1470.984,1,0.02,same
0,262,valid,"[(1180, 779)]",[],[1],[0.55],horizontal,"(890.0, 762.0)",1.1166666666666667,0.518,1,1476.814,2,0.02,same
0,263,catch,"[(1175, 796)]",[],[1],[],horizontal,"(390.0, 262.0)",1.7,nan,1,1482.381,2,0.02,same
0,264,valid,"[(1215, 781)]",[],[1],[],horizontal,"(390.0, 262.0)",,"('fix', 0.152)",0,1488.447,0,0.02,same
0,265,valid,"[(1133, 806)]",[],[1],[0.85],vertical,"(890.0, 262.0)",0.8,nan,0,1490.295,0,0.02,same
0,266,catch,"[(1160, 791)]",[],[1],[],vertical,"(390.0, 262.0)",1.7,nan,1,1494.847,1,0.02,same
0,267,invalid_same_bar,"[(1208, 775)]",[],[1],[0.85],horizontal,"(890.0, 762.0)",1.05,nan,0,1500.446,0,0.02,same
0,268,valid,"[(1140, 782)]",[],[1],[0.65],vertical,"(390.0, 762.0)",0.7,0.609,1,1504.863,1,0.02,same
0,269,valid,"[(1191, 771)]",[],[1],[0.85],horizontal,"(890.0, 762.0)",0.35,nan,0,1509.317,0,0.02,same
0,270,catch,"[(1156, 785)]",[],[1],[],horizontal,"(890.0, 762.0)",1.7,nan,1,1513.298,1,0.02,same
0,271,valid,"[(1178, 793)]",[],[1],[0.6833333333333333],vertical,"(390.0, 762.0)",0.4666666666666667,0.639,1,1518.199,1,0.02,same
0,272,valid,"[(1183, 753), (1090, 808)]",[],"[0, 1]",[0.6],horizontal,"(890.0, 262.0)",1.1333333333333333,0.561,1,1522.496,1,0.02,same
0,273,valid,"[(1172, 765)]",[],[1],[0.55],vertical,"(390.0, 262.0)",1.0333333333333332,0.512,1,1529.345,2,0.02,same
0,274,valid,"[(1178, 783)]",[],[1],[0.5333333333333333],horizontal,"(390.0, 762.0)",1.3666666666666667,0.493,1,1535.216,2,0.02,same
0,275,valid,"[(1173, 772)]",[],[1],[0.6166666666666667],horizontal,"(890.0, 262.0)",1.15,0.576,1,1541.28,2,0.02,same
0,276,catch,"[(1185, 795)]",[],[1],[],horizontal,"(390.0, 762.0)",1.7,nan,1,1546.632,3,0.02,same
0,277,catch,"[(1211, 767), (1218, 762)]",[],"[1, 1]",[],horizontal,"(390.0, 262.0)",,"('fix', 0.183),nan",0,1553.174,0,0.04,same
0,278,valid,"[(1165, 805)]",[],[1],[0.5833333333333334],horizontal,"(390.0, 762.0)",1.2666666666666666,0.537,1,1554.896,1,0.04,same
0,279,invalid_adjacent_other_bar,"[(1188, 765)]",[],[1],[0.6],horizontal,"(390.0, 762.0)",0.6166666666666667,0.559,1,1560.446,1,0.04,other
0,280,valid,"[(1180, 791)]",[],[1],[0.5166666666666666],horizontal,"(390.0, 762.0)",0.6166666666666667,0.476,1,1565.063,1,0.04,same
0,281,valid,"[(1172, 785)]",[],[1],[0.85],vertical,"(890.0, 262.0)",0.7333333333333333,nan,0,1570.007,0,0.04,same
0,282,valid,"[(1175, 796)]",[],[1],[],horizontal,"(890.0, 762.0)",,"('cti', 1.054)",0,1575.129,0,0.04,same
0,283,valid,"[(1173, 796)]",[],[1],[0.5833333333333334],horizontal,"(390.0, 762.0)",0.7166666666666667,0.541,1,1578.931,1,0.04,same
0,284,valid,"[(1206, 771)]",[],[1],[0.5833333333333334],vertical,"(390.0, 262.0)",1.3333333333333333,0.54,1,1583.29,1,0.04,same
0,285,valid,"[(1193, 776)]",[],[1],[0.6833333333333333],horizontal,"(890.0, 262.0)",0.4,0.643,1,1588.446,1,0.04,same
0,286,valid,"[(1180, 807)]",[],[1],[0.55],horizontal,"(890.0, 762.0)",0.6,0.511,1,1593.254,2,0.04,same
0,287,valid,"[(1174, 774)]",[],[1],[0.7333333333333333],horizontal,"(890.0, 262.0)",1.1666666666666667,0.684,1,1598.756,2,0.04,same
0,288,valid,"[(1180, 762)]",[],[1],[0.7166666666666667],horizontal,"(890.0, 262.0)",0.3833333333333333,0.668,1,1604.28,2,0.04,same
0,289,valid,"[(1181, 781)]",[],[1],[0.5666666666666667],horizontal,"(390.0, 762.0)",0.6333333333333333,0.536,1,1609.475,3,0.04,same
0,290,valid,"[(1180, 765)]",[],[1],[0.6333333333333333],vertical,"(390.0, 762.0)",0.7333333333333333,0.59,1,1614.83,3,0.04,same
0,291,valid,"[(1182, 757)]",[],[1],[0.7166666666666667],horizontal,"(890.0, 762.0)",1.1166666666666667,0.673,1,1620.28,3,0.04,same
0,292,invalid_same_bar,"[(1177, 777)]",[],[1],[0.5666666666666667],vertical,"(390.0, 762.0)",0.9166666666666666,0.524,1,1626.472,3,0.04,same
0,293,valid,"[(1179, 777)]",[],[1],[0.85],horizontal,"(890.0, 762.0)",0.95,nan,0,1632.164,0,0.04,same
0,294,valid,"[(1132, 796)]",[],[1],[0.5833333333333334],vertical,"(390.0, 762.0)",1.3666666666666667,0.545,1,1636.831,1,0.04,same
0,295,catch,"[(1191, 777)]",[],[1],[],vertical,"(890.0, 762.0)",1.7,nan,1,1642.371,1,0.04,same
0,296,valid,"[(1178, 774)]",[],[1],[],horizontal,"(390.0, 762.0)",,"('cti', 1.161)",0,1647.281,0,0.04,same
0,297,valid,"[(1155, 800)]",[],[1],[0.6],horizontal,"(390.0, 762.0)",1.4333333333333333,0.555,1,1651.384,1,0.04,same
0,298,catch,"[(1177, 792)]",[],[1],[],vertical,"(890.0, 762.0)",1.7,nan,1,1656.813,1,0.04,same
0,299,valid,"[(1165, 787)]",[],[1],[0.6],vertical,"(890.0, 762.0)",1.3666666666666667,0.557,1,1662.676,1,0.02,same
0,300,valid,"[(1179, 768)]",[],[1],[0.5333333333333333],vertical,"(890.0, 262.0)",0.6833333333333333,0.496,1,1667.898,2,0.02,same
0,301,valid,"[(1180, 773)]",[],[1],[0.65],vertical,"(890.0, 762.0)",0.55,0.603,1,1672.678,2,0.02,same
0,302,catch,"[(1175, 756)]",[],[1],[],vertical,"(390.0, 762.0)",1.7,nan,1,1677.636,2,0.02,same
0,303,valid,"[(1158, 792)]",[],[1],[0.6333333333333333],vertical,"(890.0, 262.0)",0.4166666666666667,0.592,1,1683.831,3,0.02,same
0,304,invalid_same_bar,"[(1180, 786)]",[],[1],[0.65],horizontal,"(890.0, 262.0)",0.4666666666666667,0.608,1,1689.408,3,0.02,same
0,305,valid,"[(1155, 753), (1128, 826)]",[],"[0, 1]",[0.5333333333333333],horizontal,"(890.0, 262.0)",0.4166666666666667,0.494,1,1694.881,3,0.02,same
0,306,invalid_same_bar,"[(1177, 756)]",[],[1],[0.85],vertical,"(390.0, 762.0)",1.0666666666666667,nan,0,1702.745,0,0.02,same
0,307,valid,"[(1166, 791)]",[],[1],[0.5666666666666667],horizontal,"(390.0, 762.0)",1.2333333333333334,0.52,1,1707.525,1,0.02,same
0,308,valid,"[(1175, 787)]",[],[1],[0.7166666666666667],horizontal,"(390.0, 762.0)",1.3,0.672,1,1712.431,1,0.02,same
0,309,invalid_adjacent_other_bar,"[(1215, 788)]",[],[1],[0.7333333333333333],vertical,"(390.0, 262.0)",1.1166666666666667,0.688,1,1718.112,1,0.02,other
0,310,catch,"[(1180, 788)]",[],[1],[],vertical,"(390.0, 762.0)",1.7,nan,1,1723.431,2,0.02,same
0,311,valid,"[(1184, 786)]",[],[1],[0.5666666666666667],vertical,"(390.0, 262.0)",0.95,0.533,1,1729.303,2,0.02,same
0,312,valid,"[(1185, 773)]",[],[1],[0.6833333333333333],vertical,"(390.0, 262.0)",1.3833333333333333,0.637,1,1734.831,2,0.02,same
0,313,catch,"[(1175, 797)]",[],[1],[],horizontal,"(890.0, 262.0)",1.7,nan,1,1740.864,3,0.02,same
0,314,invalid_same_bar,"[(1185, 773)]",[],[1],[0.55],vertical,"(890.0, 762.0)",1.2833333333333332,0.509,1,1746.997,3,0.02,same
0,315,valid,"[(1184, 786)]",[],[1],[0.5333333333333333],vertical,"(890.0, 262.0)",0.9166666666666666,0.492,1,1752.71,3,0.02,same
0,316,invalid_same_bar,"[(1201, 793)]",[],[1],[0.5666666666666667],horizontal,"(390.0, 262.0)",1.0166666666666666,0.532,1,1758.641,3,0.02,same
0,317,catch,"[(1190, 791)]",[],[1],[],horizontal,"(890.0, 262.0)",1.7,nan,1,1764.598,3,0.02,same
0,318,valid,"[(1180, 787)]",[],[1],[0.5833333333333334],vertical,"(390.0, 262.0)",1.2666666666666666,0.546,1,1770.58,3,0.02,same
0,319,valid,"[(1184, 791)]",[],[1],[0.6333333333333333],vertical,"(390.0, 762.0)",1.4,0.587,1,1776.998,3,0.02,same
0,320,valid,"[(1190, 791)]",[],[1],[0.6],vertical,"(390.0, 262.0)",0.9166666666666666,0.56,1,1783.647,3,0.02,same
0,321,valid,"[(1169, 770)]",[],[1],[0.55],vertical,"(890.0, 262.0)",1.3166666666666667,0.518,1,1789.064,3,0.02,same
0,322,catch,"[(1185, 786)]",[],[1],[],horizontal,"(390.0, 762.0)",1.7,nan,1,1795.448,3,0.02,same
0,323,valid,"[(1183, 777)]",[],[1],[0.3333333333333333],vertical,"(890.0, 262.0)",1.45,0.294,1,1801.321,3,0.02,same
0,324,valid,"[(1188, 785)]",[],[1],[],vertical,"(890.0, 262.0)",,"('cti', 0.75)",0,1807.695,0,0.02,same
0,325,valid,"[(1163, 791)]",[],[1],[0.7],vertical,"(390.0, 762.0)",0.8666666666666667,0.667,1,1811.652,1,0.02,same
0,326,valid,"[(1163, 797)]",[],[1],[0.5166666666666666],vertical,"(890.0, 262.0)",1.0166666666666666,0.486,1,1816.872,1,0.02,same
0,327,valid,"[(1166, 790)]",[],[1],[0.65],horizontal,"(890.0, 262.0)",0.5333333333333333,0.606,1,1821.932,1,0.0,same
0,328,valid,"[(1174, 765)]",[],[1],[0.8],vertical,"(390.0, 762.0)",1.4166666666666667,0.755,1,1826.221,2,0.0,same
0,329,valid,"[(1210, 762)]",[],[1],[0.5333333333333333],horizontal,"(390.0, 262.0)",0.65,0.5,1,1832.398,2,0.0,same
0,330,catch,"[(1174, 781)]",[],[1],[],vertical,"(890.0, 262.0)",1.7,nan,1,1837.318,2,0.0,same
0,331,valid,"[(1179, 766)]",[],[1],[0.5],vertical,"(890.0, 262.0)",0.5,0.461,1,1842.806,3,0.0,same
0,332,valid,"[(1195, 775)]",[],[1],[0.7166666666666667],vertical,"(890.0, 262.0)",0.9,0.688,1,1848.096,3,0.0,same
0,333,catch,"[(1170, 763)]",[],[1],[],horizontal,"(390.0, 762.0)",1.7,nan,1,1854.329,3,0.0,same
0,334,catch,"[(1188, 776)]",[],[1],[],vertical,"(890.0, 262.0)",1.7,nan,1,1860.152,3,0.0,same
0,335,valid,"[(1185, 786)]",[],[1],[0.5333333333333333],horizontal,"(390.0, 262.0)",0.7,0.5,1,1866.514,3,0.0,same
0,336,catch,"[(1205, 781)]",[],[1],[],vertical,"(890.0, 762.0)",1.7,nan,1,1871.815,3,0.0,same
0,337,catch,"[(1193, 796)]",[],[1],[],horizontal,"(890.0, 262.0)",1.7,nan,1,1877.835,3,0.0,same
0,338,valid,"[(1188, 766)]",[],[1],[0.55],vertical,"(890.0, 762.0)",1.4166666666666667,0.51,1,1883.571,3,0.0,same
0,339,valid,"[(1187, 773)]",[],[1],[0.6333333333333333],horizontal,"(390.0, 762.0)",1.1166666666666667,0.592,1,1889.843,3,0.0,same
0,340,valid,"[(1208, 773)]",[],[1],[0.5833333333333334],vertical,"(890.0, 262.0)",0.7833333333333333,0.536,1,1895.698,3,0.0,same
0,341,invalid_same_bar,"[(1180, 766)]",[],[1],[0.75],horizontal,"(890.0, 762.0)",1.2833333333333332,0.705,1,1901.646,3,0.0,same
0,342,invalid_adjacent_other_bar,"[(1174, 786)]",[],[1],[0.55],vertical,"(390.0, 262.0)",0.5333333333333333,0.51,1,1908.028,3,0.0,other
0,343,catch,"[(1182, 786)]",[],[1],[],horizontal,"(890.0, 762.0)",1.7,nan,1,1913.58,3,0.0,same
0,344,valid,"[(1179, 772)]",[],[1],[0.5166666666666666],vertical,"(890.0, 262.0)",1.4166666666666667,0.477,1,1919.971,3,0.0,same
0,345,valid,"[(1180, 776)]",[],[1],[0.5166666666666666],vertical,"(390.0, 762.0)",0.36666666666666664,0.475,1,1925.925,3,0.0,same
0,346,catch,"[(1189, 776)]",[],[1],[],horizontal,"(390.0, 762.0)",1.7,nan,1,1930.964,3,0.0,same
0,347,valid,"[(1180, 791)]",[],[1],[0.6666666666666666],horizontal,"(390.0, 262.0)",1.3,0.631,1,1937.121,3,0.0,same
0,348,valid,"[(1166, 748), (1132, 836)]",[],"[0, 1]",[0.85],horizontal,"(390.0, 262.0)",0.95,nan,0,1943.298,0,0.0,same
0,349,valid,"[(1170, 804)]",[],[1],[0.85],horizontal,"(890.0, 762.0)",0.8166666666666667,nan,0,1950.229,0,0.0,same
0,350,valid,"[(1148, 792)]",[],[1],[0.7],horizontal,"(890.0, 262.0)",0.5666666666666667,0.656,1,1955.512,1,0.0,same
0,351,catch,"[(1175, 766)]",[],[1],[],horizontal,"(890.0, 762.0)",1.7,nan,1,1960.197,1,0.0,same
0,352,valid,"[(1164, 791)]",[],[1],[0.5333333333333333],vertical,"(390.0, 762.0)",1.3833333333333333,0.495,1,1965.432,1,0.0,same
0,353,invalid_adjacent_other_bar,"[(1180, 766)]",[],[1],[0.6166666666666667],horizontal,"(390.0, 262.0)",1.3,0.577,1,1970.998,2,0.0,other
0,354,valid,"[(1180, 773)]",[],[1],[0.5833333333333334],horizontal,"(390.0, 762.0)",1.3166666666666667,0.54,1,1976.864,2,0.0,same
0,355,invalid_adjacent_other_bar,"[(1183, 786)]",[],[1],[0.6],horizontal,"(890.0, 262.0)",1.1,0.56,1,1982.648,2,0.0,other
0,356,valid,"[(1181, 791)]",[],[1],[0.6166666666666667],horizontal,"(390.0, 262.0)",0.8166666666666667,0.577,1,1988.329,3,0.0,same
0,357,catch,"[(1180, 792)]",[],[1],[],horizontal,"(390.0, 262.0)",1.7,nan,1,1994.097,3,0.0,same
0,358,valid,"[(1210, 786)]",[],[1],[0.85],horizontal,"(390.0, 762.0)",1.3166666666666667,nan,0,2000.347,0,0.0,same
0,359,valid,"[(1157, 784)]",[],[1],[0.6166666666666667],vertical,"(890.0, 262.0)",1.3666666666666667,0.572,1,2005.114,1,0.0,same
0,360,valid,"[(1172, 770)]",[],[1],[0.6166666666666667],vertical,"(890.0, 262.0)",1.5166666666666666,0.574,1,2010.493,1,0.0,same
0,361,catch,"[(1180, 789)]",[],[1],[],vertical,"(890.0, 262.0)",1.7,nan,1,2016.015,1,0.0,same
0,362,valid,"[(1175, 767)]",[],[1],[0.6333333333333333],vertical,"(390.0, 262.0)",0.6,0.589,1,2021.315,2,0.0,same
0,363,valid,"[(1200, 750), (1126, 821)]",[],"[0, 1]",[0.6166666666666667],vertical,"(390.0, 262.0)",1.4333333333333333,0.575,1,2025.98,2,0.0,same
0,364,valid,"[(1178, 781)]",[],[1],[0.7666666666666666],horizontal,"(890.0, 262.0)",0.7666666666666666,0.733,1,2033.664,2,0.0,same
0,365,catch,"[(1175, 794)]",[],[1],[],horizontal,"(890.0, 262.0)",,"('cti', 1.624),nan",0,2039.347,0,0.02,same
0,366,catch,"[(1112, 816)]",[],[1],[],horizontal,"(390.0, 762.0)",1.7,nan,1,2044.315,1,0.02,same
0,367,valid,"[(1166, 798)]",[],[1],[0.55],vertical,"(890.0, 762.0)",1.3,0.51,1,2082.023,1,0.02,same
0,368,valid,"[(1179, 782)]",[],[1],[0.6666666666666666],horizontal,"(890.0, 762.0)",0.5666666666666667,0.619,1,2087.416,1,0.02,same
0,369,valid,"[(1177, 784)]",[],[1],[0.5666666666666667],vertical,"(890.0, 762.0)",0.9,0.528,1,2092.449,2,0.02,same
0,370,invalid_same_bar,"[(1188, 801)]",[],[1],[0.85],vertical,"(890.0, 762.0)",0.8,nan,0,2097.698,0,0.02,same
0,371,catch,"[(1165, 781)]",[],[1],[],horizontal,"(890.0, 262.0)",1.7,nan,1,2102.314,1,0.02,same
0,372,invalid_same_bar,"[(1180, 783)]",[],[1],[0.85],vertical,"(390.0, 762.0)",1.25,nan,0,2107.331,0,0.02,same
0,373,valid,"[(1177, 796)]",[],[1],[0.5833333333333334],vertical,"(890.0, 262.0)",0.45,0.54,1,2112.247,1,0.02,same
0,374,valid,"[(1170, 793)]",[],[1],[0.7166666666666667],horizontal,"(890.0, 762.0)",0.9666666666666667,0.665,1,2116.5,1,0.02,same
0,375,valid,"[(1180, 753), (1133, 812)]",[],"[0, 1]",[0.5166666666666666],horizontal,"(390.0, 262.0)",0.5666666666666667,0.48,1,2121.319,1,0.02,same
0,376,valid,"[(1181, 769)]",[],[1],[0.5333333333333333],vertical,"(890.0, 262.0)",1.0,0.489,1,2127.031,2,0.02,same
0,377,catch,"[(1165, 800)]",[],[1],[],vertical,"(890.0, 262.0)",1.7,nan,1,2132.59,2,0.02,same
0,378,invalid_adjacent_other_bar,"[(1180, 803)]",[],[1],[0.6],vertical,"(390.0, 262.0)",0.7666666666666666,0.558,1,2138.597,2,0.02,other
0,379,catch,"[(1193, 764)]",[],[1],[],vertical,"(890.0, 262.0)",1.7,nan,1,2143.794,3,0.02,same
0,380,valid,"[(1182, 774)]",[],[1],[0.5833333333333334],vertical,"(890.0, 262.0)",1.4166666666666667,0.544,1,2149.931,3,0.02,same
0,381,invalid_adjacent_other_bar,"[(1181, 799)]",[],[1],[0.7666666666666666],vertical,"(390.0, 762.0)",1.3666666666666667,0.72,1,2156.178,3,0.02,other
0,382,valid,"[(1181, 779)]",[],[1],[0.5666666666666667],horizontal,"(390.0, 262.0)",1.3666666666666667,0.528,1,2162.401,3,0.02,same
0,383,invalid_adjacent_other_bar,"[(1198, 791)]",[],[1],[0.5666666666666667],horizontal,"(890.0, 762.0)",1.5333333333333332,0.527,1,2168.289,3,0.02,other
0,384,valid,"[(1198, 795)]",[],[1],[0.65],vertical,"(390.0, 762.0)",0.7333333333333333,0.607,1,2175.113,3,0.02,same
0,385,catch,"[(1189, 784)]",[],[1],[],horizontal,"(390.0, 262.0)",1.7,nan,1,2180.555,3,0.02,same
0,386,valid,"[(1183, 795)]",[],[1],[0.6666666666666666],horizontal,"(890.0, 262.0)",1.4666666666666666,0.62,1,2186.532,3,0.02,same
0,387,catch,"[(1180, 765)]",[],[1],[],vertical,"(390.0, 262.0)",1.7,nan,1,2192.676,3,0.02,same
0,388,catch,"[(1154, 845)]",[],[1],[],horizontal,"(890.0, 762.0)",1.7,nan,1,2198.764,3,0.02,same
0,389,valid,"[(1171, 805)]",[],[1],[0.7],horizontal,"(390.0, 762.0)",1.1,0.657,1,2265.282,3,0.02,same
0,390,valid,"[(1129, 825)]",[],[1],[0.6],horizontal,"(390.0, 762.0)",0.8333333333333334,0.556,1,2270.949,3,0.02,same
0,391,catch,"[(1160, 811)]",[],[1],[],vertical,"(890.0, 262.0)",1.7,nan,1,2277.366,3,0.02,same
0,392,valid,"[(1165, 803)]",[],[1],[0.5833333333333334],horizontal,"(390.0, 762.0)",1.5333333333333332,0.539,1,2283.432,3,0.02,same
0,393,valid,"[(1137, 798)]",[],[1],[0.5166666666666666],vertical,"(890.0, 762.0)",0.4,0.481,1,2289.709,3,0.02,same
0,394,valid,"[(1179, 782)]",[],[1],[0.5333333333333333],vertical,"(890.0, 262.0)",0.7,0.493,1,2295.614,3,0.02,same
0,395,valid,"[(1169, 796)]",[],[1],[0.85],vertical,"(890.0, 262.0)",0.6166666666666667,nan,0,2301.28,0,0.02,same
0,396,valid,"[(1167, 781)]",[],[1],[0.31666666666666665],vertical,"(390.0, 762.0)",1.15,0.282,1,2305.975,1,0.02,same
0,397,catch,"[(1136, 811)]",[],[1],[],vertical,"(390.0, 262.0)",1.7,nan,1,2311.615,1,0.02,same
0,398,invalid_adjacent_other_bar,"[(1175, 802)]",[],[1],[0.7166666666666667],vertical,"(390.0, 262.0)",0.3833333333333333,0.674,1,2326.607,1,0.02,other
0,399,valid,"[(1170, 795)]",[],[1],[0.55],horizontal,"(890.0, 262.0)",1.1833333333333333,0.512,1,2331.48,2,0.02,same
0,400,valid,"[(1180, 786)]",[],[1],[0.85],horizontal,"(890.0, 762.0)",1.55,"('cti', 1.545),nan",0,2337.064,0,0.02,same
0,401,valid,"[(1126, 812)]",[],[1],[0.5666666666666667],horizontal,"(390.0, 762.0)",0.6666666666666666,0.533,1,2342.164,1,0.02,same
0,402,valid,"[(1146, 811)]",[],[1],[0.5],horizontal,"(890.0, 762.0)",0.3833333333333333,0.464,1,2354.822,1,0.02,same
0,403,catch,"[(1165, 792)]",[],[1],[],vertical,"(890.0, 262.0)",1.7,nan,1,2359.265,1,0.02,same
0,404,catch,"[(1170, 794)]",[],[1],[],vertical,"(390.0, 262.0)",1.7,nan,1,2364.632,2,0.02,same
0,405,valid,"[(1143, 797)]",[],[1],[0.85],horizontal,"(890.0, 262.0)",1.2,nan,0,2369.864,0,0.02,same
0,406,valid,"[(1163, 791)]",[],[1],[0.85],horizontal,"(390.0, 262.0)",0.36666666666666664,nan,0,2374.864,0,0.02,same
0,407,valid,"[(1142, 820)]",[],[1],[0.85],horizontal,"(390.0, 762.0)",1.3666666666666667,nan,0,2378.732,0,0.02,same
0,408,catch,"[(1161, 769)]",[],[1],[],vertical,"(390.0, 262.0)",1.7,nan,1,2383.998,1,0.02,same
0,409,valid,"[(1165, 777)]",[],[1],[0.5333333333333333],vertical,"(390.0, 762.0)",0.95,0.503,1,2389.432,1,0.02,same
0,410,valid,"[(1195, 777)]",[],[1],[0.5333333333333333],vertical,"(390.0, 262.0)",0.7833333333333333,0.492,1,2394.383,1,0.02,same
0,411,invalid_adjacent_other_bar,"[(1175, 767)]",[],[1],[0.6166666666666667],horizontal,"(890.0, 262.0)",0.55,0.576,1,2399.234,2,0.02,other
0,412,valid,"[(1177, 782)]",[],[1],[0.7],horizontal,"(390.0, 262.0)",1.2666666666666666,0.655,1,2404.215,2,0.02,same
0,413,valid,"[(1183, 780)]",[],[1],[0.5166666666666666],vertical,"(890.0, 762.0)",0.8,0.477,1,2409.898,2,0.02,same
0,414,valid,"[(1193, 783)]",[],[1],[0.55],horizontal,"(890.0, 262.0)",1.1666666666666667,0.507,1,2414.66,3,0.02,same
0,415,valid,"[(1165, 786)]",[],[1],[0.5166666666666666],horizontal,"(390.0, 762.0)",0.3833333333333333,0.483,1,2420.496,3,0.0,same
0,416,invalid_same_bar,"[(1179, 768)]",[],[1],[0.85],horizontal,"(390.0, 762.0)",1.0333333333333332,nan,0,2425.682,0,0.0,same
0,417,valid,"[(1167, 799)]",[],[1],[0.85],horizontal,"(890.0, 762.0)",0.85,nan,0,2430.548,0,0.0,same
0,418,valid,"[(1128, 798)]",[],[1],[],vertical,"(390.0, 762.0)",,"('cti', 0.247)",0,2435.316,0,0.0,same
0,419,valid,"[(1160, 794)]",[],[1],[0.85],horizontal,"(890.0, 762.0)",0.9166666666666666,nan,0,2439.114,0,0.0,same
0,420,valid,"[(1164, 808)]",[],[1],[0.5333333333333333],vertical,"(890.0, 762.0)",0.5333333333333333,0.492,1,2443.915,1,0.0,same
0,421,valid,"[(1186, 782)]",[],[1],[0.85],vertical,"(390.0, 262.0)",0.5,nan,0,2448.86,0,0.0,same
0,422,valid,"[(1135, 786)]",[],[1],[0.5166666666666666],horizontal,"(890.0, 262.0)",0.7166666666666667,0.481,1,2453.045,1,0.0,same
0,423,valid,"[(1127, 813)]",[],[1],[0.7],vertical,"(390.0, 762.0)",0.35,0.657,1,2457.892,1,0.0,same
0,424,catch,"[(1175, 775)]",[],[1],[],vertical,"(390.0, 762.0)",1.7,nan,1,2462.398,1,0.0,same
0,425,catch,"[(1111, 801)]",[],[1],[],vertical,"(390.0, 762.0)",,"('cti', 1.465),nan",0,2467.609,0,0.02,same
0,426,catch,"[(1088, 834)]",[],[1],[],vertical,"(390.0, 762.0)",1.7,nan,1,2493.785,1,0.02,same
0,427,valid,"[(1120, 798)]",[],[1],[0.3833333333333333],vertical,"(390.0, 262.0)",0.8666666666666667,0.347,1,2519.649,1,0.02,same
0,428,catch,"[(1170, 799)]",[],[1],[],horizontal,"(890.0, 262.0)",,"('cti', 1.651),nan",0,2524.85,0,0.04,same
0,429,catch,"[(1135, 830)]",[],[1],[],horizontal,"(890.0, 262.0)",1.7,nan,1,2529.369,1,0.04,same
0,430,valid,"[(1176, 799)]",[],[1],[0.5],horizontal,"(390.0, 262.0)",0.3833333333333333,0.463,1,2534.965,1,0.04,same
0,431,valid,"[(1165, 777)]",[],[1],[0.7],vertical,"(890.0, 262.0)",0.8833333333333333,0.651,1,2539.222,1,0.04,same
0,432,valid,"[(1205, 767)]",[],[1],[0.55],horizontal,"(890.0, 262.0)",1.0333333333333332,0.509,1,2543.981,2,0.04,same
0,433,valid,"[(1190, 783)]",[],[1],[0.5833333333333334],vertical,"(890.0, 762.0)",1.4333333333333333,0.539,1,2549.431,2,0.04,same
0,434,invalid_adjacent_other_bar,"[(1185, 799)]",[],[1],[0.6333333333333333],vertical,"(390.0, 762.0)",1.2,0.592,1,2554.999,2,0.04,other
0,435,valid,"[(1160, 765)]",[],[1],[0.6333333333333333],horizontal,"(390.0, 262.0)",0.5166666666666666,0.587,1,2560.876,3,0.04,same
0,436,valid,"[(1210, 796)]",[],[1],[0.7],horizontal,"(390.0, 262.0)",1.0333333333333332,0.65,1,2566.399,3,0.04,same
0,437,catch,"[(1175, 796)]",[],[1],[],horizontal,"(390.0, 262.0)",1.7,nan,1,2572.58,3,0.04,same
0,438,invalid_adjacent_other_bar,"[(1185, 803)]",[],[1],[0.5333333333333333],horizontal,"(890.0, 762.0)",1.1333333333333333,0.488,1,2578.381,3,0.04,other
0,439,invalid_adjacent_other_bar,"[(1203, 779)]",[],[1],[0.85],horizontal,"(390.0, 762.0)",1.0666666666666667,nan,0,2583.949,0,0.04,other
0,440,catch,"[(1169, 791)]",[],[1],[],vertical,"(390.0, 262.0)",1.7,nan,1,2588.784,1,0.04,same
0,441,valid,"[(1185, 765)]",[],[1],[0.5],vertical,"(890.0, 762.0)",1.15,0.457,1,2594.126,1,0.04,same
0,442,valid,"[(1190, 792)]",[],[1],[0.5666666666666667],horizontal,"(390.0, 762.0)",0.4166666666666667,0.527,1,2599.138,1,0.04,same
0,443,invalid_adjacent_other_bar,"[(1180, 782)]",[],[1],[0.6333333333333333],horizontal,"(890.0, 762.0)",1.2666666666666666,0.587,1,2603.966,2,0.04,other
0,444,catch,"[(1190, 800)]",[],[1],[],horizontal,"(890.0, 262.0)",1.7,nan,1,2609.765,2,0.04,same
0,445,catch,"[(1177, 752), (1164, 805)]",[],"[0, 1]",[],vertical,"(390.0, 262.0)",1.7,nan,1,2615.465,2,0.04,same
0,446,valid,"[(1170, 795)]",[],[1],[0.85],vertical,"(890.0, 762.0)",0.8166666666666667,nan,0,2621.948,0,0.04,same
0,447,invalid_same_bar,"[(1170, 794)]",[],[1],[0.6833333333333333],horizontal,"(390.0, 262.0)",0.45,0.641,1,2626.766,1,0.04,same
0,448,valid,"[(1193, 774)]",[],[1],[0.7166666666666667],horizontal,"(390.0, 762.0)",1.2833333333333332,0.669,1,2631.897,1,0.04,same
0,449,valid,"[(1188, 792)]",[],[1],[0.55],horizontal,"(890.0, 762.0)",0.8333333333333334,0.507,1,2637.139,1,0.04,same
0,450,valid,"[(1185, 772)]",[],[1],[0.5],horizontal,"(390.0, 262.0)",1.2833333333333332,0.456,1,2641.676,2,0.04,same
0,451,valid,"[(1171, 777)]",[],[1],[0.6833333333333333],vertical,"(890.0, 262.0)",1.5,0.64,1,2647.499,2,0.04,same
0,452,valid,"[(1137, 804)]",[],[1],[0.6166666666666667],vertical,"(390.0, 262.0)",1.1333333333333333,0.584,1,2653.648,2,0.04,same
0,453,valid,"[(1180, 767)]",[],[1],[0.5333333333333333],horizontal,"(890.0, 762.0)",1.15,0.494,1,2661.128,3,0.04,same
0,454,catch,"[(1184, 780)]",[],[1],[],horizontal,"(390.0, 262.0)",1.7,nan,1,2667.155,3,0.04,same
0,455,valid,"[(1170, 791)]",[],[1],[0.5166666666666666],vertical,"(390.0, 762.0)",1.4166666666666667,0.478,1,2673.38,3,0.04,same
0,456,catch,"[(1180, 790)]",[],[1],[],horizontal,"(390.0, 262.0)",1.7,nan,1,2679.582,3,0.04,same
0,457,valid,"[(1180, 774)]",[],[1],[0.65],vertical,"(390.0, 262.0)",1.4666666666666666,0.605,1,2685.935,3,0.04,same
0,458,catch,"[(1180, 791)]",[],[1],[],horizontal,"(890.0, 762.0)",1.7,nan,1,2692.35,3,0.04,same
0,459,invalid_adjacent_other_bar,"[(1180, 776)]",[],[1],[0.5666666666666667],vertical,"(390.0, 262.0)",1.1833333333333333,0.527,1,2698.656,3,0.04,other
0,460,valid,"[(1182, 769)]",[],[1],[0.5166666666666666],vertical,"(890.0, 262.0)",0.85,0.483,1,2704.599,3,0.04,same
0,461,invalid_adjacent_other_bar,"[(1176, 794)]",[],[1],[0.55],horizontal,"(890.0, 762.0)",0.9333333333333333,0.507,1,2710.543,3,0.04,other
0,462,valid,"[(1178, 798)]",[],[1],[0.5333333333333333],vertical,"(390.0, 262.0)",1.15,0.49,1,2716.234,3,0.04,same
0,463,catch,"[(1180, 779)]",[],[1],[],horizontal,"(390.0, 762.0)",1.7,nan,1,2721.866,3,0.04,same
0,464,invalid_adjacent_other_bar,"[(1166, 791)]",[],[1],[0.55],horizontal,"(390.0, 262.0)",0.7666666666666666,0.509,1,2728.051,3,0.04,other
0,465,catch,"[(1182, 781)]",[],[1],[],vertical,"(390.0, 262.0)",1.7,nan,1,2733.521,3,0.04,same
0,466,valid,"[(1180, 797)]",[],[1],[0.5],horizontal,"(890.0, 762.0)",0.8833333333333333,0.461,1,2739.144,3,0.04,same
0,467,valid,"[(1170, 755)]",[],[1],[0.5166666666666666],horizontal,"(390.0, 762.0)",0.6666666666666666,0.475,1,2744.531,3,0.04,same
0,468,valid,"[(1180, 767)]",[],[1],[0.7333333333333333],horizontal,"(390.0, 262.0)",0.9833333333333333,0.698,1,2749.665,3,0.04,same
0,469,invalid_adjacent_other_bar,"[(1180, 798)]",[],[1],[0.5333333333333333],horizontal,"(890.0, 262.0)",0.75,0.492,1,2755.718,3,0.04,other
0,470,valid,"[(1202, 787)]",[],[1],[0.5833333333333334],vertical,"(890.0, 262.0)",1.4333333333333333,0.545,1,2761.709,3,0.04,same
0,471,valid,"[(1180, 790)]",[],[1],[0.5833333333333334],horizontal,"(890.0, 762.0)",1.45,0.542,1,2768.147,3,0.04,same
0,472,invalid_same_bar,"[(1173, 790)]",[],[1],[0.6333333333333333],horizontal,"(890.0, 262.0)",0.8166666666666667,0.59,1,2774.638,3,0.04,same
0,473,valid,"[(1180, 765)]",[],[1],[0.5333333333333333],vertical,"(390.0, 762.0)",0.9666666666666667,0.495,1,2780.922,3,0.04,same
0,474,valid,"[(1210, 774)]",[],[1],[0.5333333333333333],horizontal,"(890.0, 762.0)",1.45,0.492,1,2787.087,3,0.04,same
0,475,invalid_adjacent_other_bar,"[(1181, 786)]",[],[1],[0.55],horizontal,"(890.0, 762.0)",1.4333333333333333,0.509,1,2793.676,3,0.02,other
0,476,valid,"[(1180, 763)]",[],[1],[0.5166666666666666],horizontal,"(390.0, 262.0)",0.5833333333333334,0.479,1,2800.436,3,0.02,same
0,477,valid,"[(1180, 769)]",[],[1],[0.7333333333333333],horizontal,"(890.0, 762.0)",0.9333333333333333,0.688,1,2805.349,3,0.02,same
0,478,valid,"[(1210, 786)]",[],[1],[0.6],vertical,"(390.0, 762.0)",1.3166666666666667,0.563,1,2811.65,3,0.0,same
0,479,catch,"[(1205, 786)]",[],[1],[],horizontal,"(890.0, 262.0)",1.7,nan,1,2818.065,3,0.0,same
0,480,valid,"[(1181, 790)]",[],[1],[0.55],horizontal,"(390.0, 262.0)",0.8833333333333333,0.507,1,2824.033,3,0.0,same
0,481,valid,"[(1206, 772)]",[],[1],[0.6],horizontal,"(390.0, 762.0)",1.05,0.56,1,2830.066,3,0.0,same
0,482,catch,"[(1145, 789)]",[],[1],[],horizontal,"(890.0, 762.0)",1.7,nan,1,2835.982,3,0.0,same
0,483,catch,"[(1176, 774)]",[],[1],[],vertical,"(390.0, 262.0)",1.7,nan,1,2843.25,3,0.0,same
0,484,valid,"[(1180, 796)]",[],[1],[0.55],horizontal,"(390.0, 762.0)",0.55,0.506,1,2849.316,3,0.0,same
0,485,valid,"[(1181, 791)]",[],[1],[0.6],vertical,"(390.0, 762.0)",0.9166666666666666,0.559,1,2854.393,3,0.0,same
0,486,valid,"[(1163, 779)]",[],[1],[0.7333333333333333],vertical,"(890.0, 762.0)",0.48333333333333334,0.689,1,2860.149,3,0.0,same
0,487,valid,"[(1180, 792)]",[],[1],[0.6],vertical,"(390.0, 762.0)",0.85,0.56,1,2865.969,3,0.0,same
0,488,valid,"[(1190, 788)]",[],[1],[0.65],horizontal,"(390.0, 762.0)",0.3833333333333333,0.606,1,2872.189,3,0.0,same
0,489,valid,"[(1180, 763)]",[],[1],[0.8],vertical,"(890.0, 262.0)",1.15,0.755,1,2877.766,3,0.0,same
0,490,valid,"[(1181, 794)]",[],[1],[0.5166666666666666],horizontal,"(890.0, 262.0)",0.8333333333333334,0.478,1,2884.445,3,0.0,same
0,491,valid,"[(1180, 790)]",[],[1],[0.5666666666666667],vertical,"(390.0, 762.0)",1.5166666666666666,0.525,1,2890.398,3,0.0,same
0,492,valid,"[(1180, 770)]",[],[1],[0.6],vertical,"(890.0, 762.0)",0.8166666666666667,0.559,1,2897.067,3,0.0,same
0,493,valid,"[(1177, 786)]",[],[1],[0.6],horizontal,"(890.0, 762.0)",0.9666666666666667,0.566,1,2902.515,3,0.0,same
0,494,valid,"[(1202, 786)]",[],[1],[0.6166666666666667],horizontal,"(390.0, 762.0)",1.3166666666666667,0.575,1,2908.511,3,0.0,same
0,495,invalid_same_bar,"[(1180, 796)]",[],[1],[0.6666666666666666],horizontal,"(890.0, 262.0)",0.7,0.625,1,2915.002,3,0.0,same
0,496,invalid_adjacent_other_bar,"[(1197, 786)]",[],[1],[0.5833333333333334],vertical,"(890.0, 762.0)",0.8,0.544,1,2920.366,3,0.0,other
0,497,catch,"[(1181, 776)]",[],[1],[],horizontal,"(390.0, 762.0)",1.7,nan,1,2925.964,3,0.0,same
0,498,valid,"[(1182, 771)]",[],[1],[0.5333333333333333],horizontal,"(390.0, 262.0)",1.35,0.496,1,2932.149,3,0.0,same
0,499,valid,"[(1206, 764)]","[(1128, 812)]",[1],[0.6],horizontal,"(890.0, 262.0)",,"('bar', 0.608)",0,2938.016,0,0.0,same
0,500,valid,"[(1133, 789)]",[],[1],[0.6666666666666666],vertical,"(890.0, 762.0)",0.65,0.633,1,2940.949,1,0.0,same
0,501,catch,"[(1180, 767)]",[],[1],[],horizontal,"(390.0, 262.0)",1.7,nan,1,2945.749,1,0.0,same
0,502,valid,"[(1180, 784)]",[],[1],[0.65],horizontal,"(390.0, 762.0)",0.95,0.609,1,2950.6,1,0.0,same
0,503,catch,"[(1190, 793)]",[],[1],[],horizontal,"(390.0, 762.0)",1.7,nan,1,2955.544,2,0.0,same
0,504,valid,"[(1185, 770)]",[],[1],[0.5833333333333334],horizontal,"(390.0, 762.0)",1.2,0.55,1,2960.875,2,0.0,same
0,505,valid,"[(1184, 766)]",[],[1],[0.5333333333333333],horizontal,"(890.0, 762.0)",0.6166666666666667,0.5,1,2966.599,2,0.0,same
0,506,valid,"[(1170, 786)]",[],[1],[0.6166666666666667],horizontal,"(890.0, 262.0)",0.9333333333333333,0.579,1,2971.607,3,0.0,same
0,507,valid,"[(1210, 799)]",[],[1],[0.5333333333333333],horizontal,"(390.0, 762.0)",1.3833333333333333,0.489,1,2977.916,3,0.0,same
0,508,catch,"[(1189, 776)]",[],[1],[],horizontal,"(890.0, 262.0)",1.7,nan,1,2984.363,3,0.0,same
0,509,catch,"[(1179, 772)]",[],[1],[],horizontal,"(390.0, 262.0)",1.7,nan,1,2990.316,3,0.0,same
0,510,invalid_adjacent_other_bar,"[(1180, 791)]",[],[1],[0.5666666666666667],horizontal,"(890.0, 762.0)",0.55,0.527,1,2996.418,3,0.0,other
0,511,valid,"[(1175, 800)]",[],[1],[0.6666666666666666],vertical,"(390.0, 262.0)",1.1833333333333333,0.624,1,3001.449,3,0.0,same
0,512,invalid_adjacent_other_bar,"[(1180, 778)]",[],[1],[0.6333333333333333],horizontal,"(390.0, 762.0)",1.3,0.596,1,3007.75,3,0.0,other
0,513,catch,"[(1172, 777)]",[],[1],[],horizontal,"(390.0, 762.0)",1.7,nan,1,3013.903,3,0.0,same
0,514,valid,"[(1165, 791)]",[],[1],[0.5333333333333333],vertical,"(890.0, 262.0)",1.45,0.491,1,3019.8,3,0.0,same
0,515,valid,"[(1179, 770)]",[],[1],[0.5833333333333334],horizontal,"(890.0, 262.0)",0.7666666666666666,0.539,1,3026.133,3,0.0,same
0,516,valid,"[(1189, 787)]",[],[1],[0.5833333333333334],horizontal,"(390.0, 762.0)",0.4666666666666667,0.538,1,3031.784,3,0.0,same
0,517,valid,"[(1208, 781)]",[],[1],[0.6666666666666666],vertical,"(890.0, 262.0)",1.3166666666666667,0.622,1,3037.41,3,0.0,same
0,518,catch,"[(1180, 790)]","[(1144, 817)]",[1],[0.7166666666666667],horizontal,"(890.0, 262.0)",,"('bar', 0.718),nan",0,3043.667,0,0.02,same
0,519,valid,"[(1137, 792)]",[],[1],[0.85],vertical,"(890.0, 762.0)",0.95,nan,0,3046.632,0,0.02,same
0,520,valid,"[(1156, 791)]",[],[1],[0.5666666666666667],vertical,"(390.0, 262.0)",0.8166666666666667,0.525,1,3052.047,1,0.02,same
0,521,valid,"[(1180, 773)]",[],[1],[0.5166666666666666],horizontal,"(890.0, 262.0)",1.3166666666666667,0.473,1,3056.593,1,0.02,same
0,522,valid,"[(1171, 766)]",[],[1],[0.6833333333333333],vertical,"(390.0, 762.0)",1.1833333333333333,0.635,1,3062.019,1,0.02,same
0,523,catch,"[(1210, 775)]",[],[1],[],vertical,"(890.0, 762.0)",1.7,nan,1,3066.99,2,0.02,same
0,524,valid,"[(1220, 780)]",[],[1],[],vertical,"(390.0, 762.0)",,"('fix', 0.213)",0,3072.483,0,0.02,same
0,525,catch,"[(1146, 796)]",[],[1],[],vertical,"(890.0, 262.0)",1.7,nan,1,3074.291,1,0.02,same
0,526,valid,"[(1210, 781)]",[],[1],[0.5],vertical,"(390.0, 762.0)",1.3333333333333333,0.455,1,3079.994,1,0.02,same
0,527,valid,"[(1210, 778)]",[],[1],[0.6],vertical,"(890.0, 262.0)",0.5166666666666666,0.554,1,3085.561,1,0.02,same
0,528,valid,"[(1180, 806)]",[],[1],[0.5166666666666666],horizontal,"(890.0, 262.0)",0.8666666666666667,0.479,1,3090.482,2,0.02,same
0,529,valid,"[(1166, 770)]",[],[1],[0.5166666666666666],vertical,"(890.0, 262.0)",0.8333333333333334,0.476,1,3096.049,2,0.02,same
0,530,catch,"[(1209, 796)]",[],[1],[],vertical,"(390.0, 762.0)",1.7,nan,1,3101.007,2,0.02,same
0,531,invalid_adjacent_other_bar,"[(1175, 801)]",[],[1],[0.55],vertical,"(890.0, 762.0)",0.6666666666666666,0.507,1,3106.666,3,0.02,other
0,532,valid,"[(1184, 766)]",[],[1],[0.6],vertical,"(890.0, 762.0)",1.2833333333333332,0.557,1,3112.478,3,0.02,same
0,533,valid,"[(1203, 799)]",[],[1],[0.5],horizontal,"(890.0, 762.0)",1.2666666666666666,0.459,1,3118.149,3,0.02,same
0,534,valid,"[(1186, 772)]",[],[1],[0.55],horizontal,"(390.0, 262.0)",1.0,0.514,1,3124.2,3,0.02,same
0,535,valid,"[(1180, 786)]",[],[1],[0.5833333333333334],vertical,"(390.0, 762.0)",0.7166666666666667,0.54,1,3129.916,3,0.02,same
0,536,valid,"[(1180, 761)]",[],[1],[0.5833333333333334],horizontal,"(390.0, 762.0)",1.3666666666666667,0.546,1,3135.315,3,0.02,same
0,537,invalid_adjacent_other_bar,"[(1212, 796)]",[],[1],[0.6],horizontal,"(890.0, 762.0)",1.1,0.556,1,3141.299,3,0.02,other
0,538,valid,"[(1183, 776)]",[],[1],[0.5333333333333333],vertical,"(890.0, 262.0)",1.0833333333333333,0.493,1,3147.384,3,0.02,same
0,539,catch,"[(1170, 790)]",[],[1],[],horizontal,"(390.0, 762.0)",1.7,nan,1,3153.172,3,0.02,same
0,540,invalid_same_bar,"[(1175, 771)]",[],[1],[0.5833333333333334],vertical,"(390.0, 762.0)",1.5333333333333332,0.54,1,3159.001,3,0.02,same
0,541,valid,"[(1179, 770)]",[],[1],[0.5333333333333333],vertical,"(890.0, 262.0)",0.35,0.499,1,3165.283,3,0.02,same
0,542,valid,"[(1180, 780)]",[],[1],[0.75],horizontal,"(890.0, 762.0)",0.65,0.702,1,3170.573,3,0.02,same
0,543,valid,"[(1180, 802)]",[],[1],[0.85],vertical,"(890.0, 762.0)",1.1666666666666667,nan,0,3176.224,0,0.02,same
0,544,valid,"[(1167, 777)]",[],[1],[0.5333333333333333],vertical,"(890.0, 762.0)",1.05,0.498,1,3181.466,1,0.02,same
0,545,catch,"[(1165, 772)]",[],[1],[],horizontal,"(390.0, 262.0)",1.7,nan,1,3186.34,1,0.02,same
0,546,valid,"[(1174, 777)]",[],[1],[0.7166666666666667],vertical,"(390.0, 262.0)",0.4166666666666667,0.681,1,3191.425,1,0.02,same
0,547,valid,"[(1195, 767)]",[],[1],[0.6666666666666666],horizontal,"(390.0, 262.0)",0.9,0.622,1,3196.067,2,0.02,same
0,548,catch,"[(1181, 796)]",[],[1],[],horizontal,"(890.0, 262.0)",1.7,nan,1,3201.316,2,0.02,same
0,549,valid,"[(1178, 766)]",[],[1],[0.5833333333333334],vertical,"(390.0, 762.0)",1.4166666666666667,0.538,1,3207.298,2,0.02,same
0,550,invalid_adjacent_other_bar,"[(1170, 790)]",[],[1],[0.5666666666666667],vertical,"(390.0, 262.0)",1.4666666666666666,0.519,1,3213.216,3,0.02,other
0,551,valid,"[(1210, 789)]",[],[1],[0.6666666666666666],horizontal,"(390.0, 762.0)",1.2,0.628,1,3219.525,3,0.02,same
0,552,valid,"[(1179, 778)]",[],[1],[0.5166666666666666],vertical,"(390.0, 262.0)",0.7833333333333333,0.479,1,3225.394,3,0.02,same
0,553,catch,"[(1177, 772)]",[],[1],[],horizontal,"(390.0, 262.0)",1.7,nan,1,3230.835,3,0.02,same
0,554,valid,"[(1176, 786)]",[],[1],[0.5666666666666667],horizontal,"(890.0, 262.0)",1.15,0.533,1,3236.884,3,0.02,same
0,555,catch,"[(1190, 795)]",[],[1],[],horizontal,"(390.0, 762.0)",1.7,nan,1,3242.817,3,0.02,same
0,556,valid,"[(1167, 791)]",[],[1],[0.65],horizontal,"(390.0, 262.0)",0.45,0.618,1,3248.928,3,0.02,same
0,557,valid,"[(1175, 774)]",[],[1],[0.85],vertical,"(390.0, 762.0)",1.0,nan,0,3254.461,0,0.02,same
0,558,valid,"[(1165, 788)]",[],[1],[0.5166666666666666],horizontal,"(390.0, 262.0)",0.8666666666666667,0.475,1,3259.474,1,0.02,same
0,559,valid,"[(1171, 773)]",[],[1],[0.5166666666666666],horizontal,"(890.0, 762.0)",0.36666666666666664,0.483,1,3264.596,1,0.02,same
0,560,valid,"[(1190, 779)]",[],[1],[0.55],vertical,"(390.0, 762.0)",0.5166666666666666,0.505,1,3268.771,1,0.02,same
0,561,invalid_adjacent_other_bar,"[(1166, 760)]",[],[1],[0.55],vertical,"(890.0, 762.0)",0.5666666666666667,0.508,1,3272.898,2,0.02,other
0,562,valid,"[(1175, 789)]",[],[1],[0.5333333333333333],horizontal,"(390.0, 762.0)",1.4,0.49,1,3278.1,2,0.02,same
0,563,invalid_same_bar,"[(1180, 794)]",[],[1],[0.85],vertical,"(390.0, 762.0)",0.36666666666666664,nan,0,3284.04,0,0.02,same
0,564,valid,"[(1138, 792)]",[],[1],[0.6833333333333333],horizontal,"(890.0, 762.0)",0.45,0.642,1,3288.396,1,0.02,same
0,565,valid,"[(1188, 787)]",[],[1],[0.6666666666666666],horizontal,"(390.0, 762.0)",0.6,0.617,1,3293.102,1,0.02,same
0,566,invalid_same_bar,"[(1191, 791)]",[],[1],[0.7166666666666667],vertical,"(890.0, 762.0)",0.4666666666666667,0.673,1,3297.766,1,0.02,same
0,567,valid,"[(1180, 791)]",[],[1],[0.8],vertical,"(890.0, 762.0)",1.2,0.755,1,3302.499,2,0.02,same
0,568,valid,"[(1185, 795)]",[],[1],[0.5666666666666667],vertical,"(890.0, 262.0)",0.36666666666666664,0.526,1,3308.466,2,0.0,same
0,569,valid,"[(1165, 799)]",[],[1],[0.5166666666666666],vertical,"(890.0, 262.0)",0.65,0.479,1,3313.413,2,0.0,same
0,570,valid,"[(1164, 774)]",[],[1],[0.5833333333333334],horizontal,"(890.0, 762.0)",0.7333333333333333,0.543,1,3318.907,3,0.0,same
0,571,valid,"[(1185, 776)]",[],[1],[0.7666666666666666],vertical,"(890.0, 262.0)",0.48333333333333334,0.724,1,3324.849,3,0.0,same
0,572,catch,"[(1205, 798)]",[],[1],[],vertical,"(890.0, 762.0)",1.7,nan,1,3330.249,3,0.0,same
0,573,valid,"[(1191, 776)]",[],[1],[0.55],horizontal,"(390.0, 262.0)",0.4,0.512,1,3336.016,3,0.0,same
0,574,valid,"[(1180, 765)]",[],[1],[0.65],horizontal,"(390.0, 762.0)",1.1666666666666667,0.614,1,3341.548,3,0.0,same
0,575,valid,"[(1170, 761)]",[],[1],[0.7166666666666667],vertical,"(890.0, 762.0)",0.43333333333333335,0.674,1,3347.433,3,0.0,same
0,576,catch,"[(1180, 780)]","[(1176, 785)]",[1],[0.016666666666666666],vertical,"(890.0, 762.0)",,"('bar', 0.033),nan",0,3352.478,0,0.02,same
0,577,catch,"[(1136, 803)]",[],[1],[],horizontal,"(890.0, 262.0)",1.7,nan,1,3354.668,1,0.02,same
0,578,valid,"[(1204, 773)]",[],[1],[0.65],horizontal,"(890.0, 762.0)",0.7666666666666666,0.603,1,3360.166,1,0.02,same
0,579,valid,"[(1191, 786)]",[],[1],[0.6],vertical,"(390.0, 762.0)",0.6666666666666666,0.556,1,3365.177,1,0.02,same
0,580,invalid_adjacent_other_bar,"[(1200, 790)]",[],[1],[0.6],vertical,"(390.0, 762.0)",0.3833333333333333,0.56,1,3369.984,2,0.02,other
0,581,valid,"[(1190, 783)]",[],[1],[0.6666666666666666],vertical,"(890.0, 762.0)",0.8833333333333333,0.625,1,3374.956,2,0.02,same
0,582,valid,"[(1185, 795)]",[],[1],[0.5333333333333333],vertical,"(890.0, 762.0)",0.9666666666666667,0.495,1,3380.549,2,0.02,same
0,583,catch,"[(1175, 772)]",[],[1],[],vertical,"(890.0, 262.0)",1.7,nan,1,3385.878,3,0.02,same
0,584,valid,"[(1190, 781)]",[],[1],[0.5],vertical,"(390.0, 262.0)",0.3833333333333333,0.463,1,3392.116,3,0.02,same
0,585,valid,"[(1188, 791)]",[],[1],[0.5333333333333333],horizontal,"(390.0, 262.0)",1.3833333333333333,0.493,1,3397.452,3,0.02,same
0,586,valid,"[(1180, 797)]",[],[1],[0.7333333333333333],vertical,"(390.0, 262.0)",1.1833333333333333,0.694,1,3403.8,3,0.02,same
0,587,catch,"[(1180, 781)]",[],[1],[],vertical,"(390.0, 262.0)",1.7,nan,1,3410.036,3,0.02,same
0,588,valid,"[(1174, 786)]",[],[1],[0.5666666666666667],vertical,"(890.0, 762.0)",0.5833333333333334,0.524,1,3416.25,3,0.02,same
0,589,valid,"[(1182, 765)]",[],[1],[0.5833333333333334],horizontal,"(890.0, 262.0)",0.6166666666666667,0.537,1,3422.117,3,0.02,same
0,590,valid,"[(1180, 778)]",[],[1],[0.85],vertical,"(390.0, 762.0)",1.15,nan,0,3427.734,0,0.02,same
0,591,valid,"[(1135, 789)]",[],[1],[0.25],horizontal,"(390.0, 762.0)",1.4,0.219,1,3432.249,1,0.02,same
0,592,catch,"[(1178, 761)]",[],[1],[],vertical,"(890.0, 762.0)",1.7,nan,1,3438.555,1,0.02,same
0,593,valid,"[(1180, 786)]",[],[1],[0.55],vertical,"(890.0, 762.0)",1.0,0.509,1,3443.57,1,0.02,same
0,594,valid,"[(1198, 794)]",[],[1],[0.5333333333333333],vertical,"(890.0, 762.0)",0.3833333333333333,0.494,1,3448.477,2,0.02,same
0,595,valid,"[(1186, 785)]",[],[1],[0.6166666666666667],horizontal,"(890.0, 262.0)",0.9333333333333333,0.571,1,3453.133,2,0.02,same
0,596,valid,"[(1180, 789)]",[],[1],[0.55],vertical,"(890.0, 762.0)",1.0166666666666666,0.513,1,3458.612,2,0.02,same
0,597,valid,"[(1177, 791)]",[],[1],[0.65],horizontal,"(890.0, 262.0)",1.4833333333333334,0.605,1,3464.084,3,0.02,same
0,598,valid,"[(1183, 773)]",[],[1],[0.6333333333333333],vertical,"(890.0, 262.0)",1.1333333333333333,0.587,1,3470.555,3,0.02,same
0,599,valid,"[(1180, 796)]",[],[1],[0.5666666666666667],horizontal,"(390.0, 762.0)",0.8166666666666667,0.521,1,3476.733,3,0.02,same
0,600,valid,"[(1179, 791)]",[],[1],[0.5333333333333333],horizontal,"(890.0, 262.0)",0.6333333333333333,0.493,1,3481.92,3,0.02,same
0,601,valid,"[(1162, 778)]",[],[1],[0.6333333333333333],horizontal,"(390.0, 762.0)",1.2833333333333332,0.589,1,3487.049,3,0.02,same
0,602,catch,"[(1159, 755)]",[],[1],[],horizontal,"(390.0, 262.0)",1.7,nan,1,3492.865,3,0.02,same
0,603,catch,"[(1168, 777)]",[],[1],[],vertical,"(890.0, 762.0)",1.7,nan,1,3499.199,3,0.02,same
0,604,valid,"[(1180, 781)]",[],[1],[0.6166666666666667],horizontal,"(390.0, 762.0)",0.6833333333333333,0.575,1,3505.2,3,0.02,same
0,605,catch,"[(1182, 766)]",[],[1],[],vertical,"(390.0, 262.0)",1.7,nan,1,3510.94,3,0.02,same
0,606,valid,"[(1181, 787)]",[],[1],[0.55],horizontal,"(390.0, 762.0)",0.7333333333333333,0.505,1,3516.648,3,0.02,same
0,607,valid,"[(1180, 773)]",[],[1],[0.7166666666666667],horizontal,"(390.0, 262.0)",1.5,0.666,1,3521.766,3,0.02,same
0,608,catch,"[(1180, 788)]",[],[1],[],horizontal,"(390.0, 262.0)",1.7,nan,1,3528.039,3,0.02,same
0,609,valid,"[(1181, 775)]",[],[1],[0.6],vertical,"(390.0, 262.0)",0.8166666666666667,0.554,1,3533.734,3,0.02,same
0,610,valid,"[(1180, 794)]",[],[1],[0.5833333333333334],vertical,"(390.0, 262.0)",1.2666666666666666,0.542,1,3539.527,3,0.02,same
0,611,catch,"[(1180, 795)]","[(1175, 806)]",[1],[0.5166666666666666],horizontal,"(890.0, 762.0)",,"('bar', 0.525),nan",0,3545.909,0,0.04,same
0,612,valid,"[(1140, 799)]",[],[1],[0.5333333333333333],vertical,"(890.0, 262.0)",1.4166666666666667,0.491,1,3548.667,1,0.04,same
0,613,valid,"[(1179, 786)]",[],[1],[0.55],horizontal,"(390.0, 762.0)",0.7666666666666666,0.507,1,3554.586,1,0.04,same
0,614,valid,"[(1175, 769)]",[],[1],[0.5666666666666667],vertical,"(390.0, 262.0)",0.8666666666666667,0.524,1,3559.311,1,0.04,same
0,615,invalid_same_bar,"[(1180, 761)]",[],[1],[0.31666666666666665],horizontal,"(890.0, 262.0)",1.4166666666666667,0.28,1,3564.416,2,0.04,same
0,616,valid,"[(1174, 797)]",[],[1],[0.7],vertical,"(390.0, 262.0)",1.3,0.654,1,3570.192,2,0.04,same
0,617,valid,"[(1170, 765)]",[],[1],[0.65],horizontal,"(890.0, 262.0)",0.43333333333333335,0.605,1,3576.184,2,0.04,same
0,618,catch,"[(1160, 780)]",[],[1],[],horizontal,"(890.0, 262.0)",1.7,nan,1,3580.972,3,0.04,same
0,619,valid,"[(1166, 792)]",[],[1],[0.65],vertical,"(890.0, 262.0)",1.1166666666666667,0.611,1,3586.778,3,0.04,same
0,620,valid,"[(1213, 778)]",[],[1],[0.5166666666666666],horizontal,"(390.0, 262.0)",1.2,0.478,1,3592.53,3,0.04,same
0,621,valid,"[(1201, 778)]",[],[1],[0.5333333333333333],horizontal,"(390.0, 262.0)",0.5333333333333333,0.491,1,3598.8,3,0.04,same
0,622,catch,"[(1166, 791)]",[],[1],[],vertical,"(890.0, 262.0)",1.7,nan,1,3604.1,3,0.04,same
0,623,invalid_adjacent_other_bar,"[(1180, 782)]","[(1108, 818)]",[1],[0.7833333333333333],horizontal,"(890.0, 262.0)",,"('bar', 0.796)",0,3610.628,0,0.04,other
0,624,valid,"[(1116, 794)]",[],[1],[0.6333333333333333],horizontal,"(390.0, 262.0)",0.7333333333333333,0.59,1,3613.545,1,0.04,same
0,625,valid,"[(1135, 799)]",[],[1],[0.7],horizontal,"(390.0, 262.0)",0.3833333333333333,0.649,1,3618.666,1,0.04,same
0,626,catch,"[(1200, 786)]",[],[1],[],horizontal,"(890.0, 762.0)",1.7,nan,1,3624.063,1,0.02,same
0,627,valid,"[(1179, 757)]",[],[1],[0.55],vertical,"(390.0, 262.0)",0.7833333333333333,0.51,1,3629.195,2,0.02,same
0,628,valid,"[(1197, 786)]",[],[1],[0.6],vertical,"(890.0, 262.0)",1.0,0.558,1,3634.871,2,0.02,same
0,629,catch,"[(1165, 755)]",[],[1],[],horizontal,"(390.0, 262.0)",,"('cti', 0.982),nan",0,3640.644,0,0.04,same
0,630,catch,"[(1170, 791)]",[],[1],[],vertical,"(390.0, 262.0)",1.7,nan,1,3644.935,1,0.04,same
0,631,invalid_adjacent_other_bar,"[(1135, 773)]",[],[1],[0.4166666666666667],vertical,"(890.0, 262.0)",1.5166666666666666,0.378,1,3649.708,1,0.04,other
0,632,catch,"[(1166, 786)]",[],[1],[],vertical,"(890.0, 762.0)",,"('cti', 0.64),nan",0,3655.433,0,0.06,same
0,633,valid,"[(1160, 790)]",[],[1],[0.55],horizontal,"(890.0, 262.0)",1.2,0.51,1,3659.433,1,0.06,same
0,634,valid,"[(1176, 772)]",[],[1],[0.5333333333333333],horizontal,"(890.0, 262.0)",0.9666666666666667,0.496,1,3664.847,1,0.06,same
0,635,valid,"[(1175, 791)]",[],[1],[0.55],vertical,"(390.0, 262.0)",1.1666666666666667,0.512,1,3669.766,1,0.06,same
0,636,valid,"[(1183, 785)]",[],[1],[0.6333333333333333],horizontal,"(890.0, 262.0)",0.9166666666666666,0.59,1,3675.101,2,0.06,same
0,637,valid,"[(1200, 776)]",[],[1],[0.7166666666666667],vertical,"(390.0, 762.0)",0.9666666666666667,0.674,1,3680.4,2,0.06,same
0,638,valid,"[(1173, 774)]",[],[1],[0.85],horizontal,"(390.0, 762.0)",1.4833333333333334,nan,0,3685.866,0,0.06,same
0,639,valid,"[(1163, 793)]",[],[1],[0.55],horizontal,"(390.0, 262.0)",0.43333333333333335,0.51,1,3691.157,1,0.06,same
0,640,valid,"[(1179, 781)]",[],[1],[0.6666666666666666],horizontal,"(890.0, 262.0)",1.0333333333333332,0.623,1,3696.034,1,0.06,same
0,641,catch,"[(1176, 776)]",[],[1],[],horizontal,"(390.0, 762.0)",1.7,nan,1,3701.101,1,0.06,same
0,642,valid,"[(1185, 792)]",[],[1],[0.55],horizontal,"(890.0, 762.0)",0.9833333333333333,0.507,1,3706.302,2,0.06,same
0,643,catch,"[(1176, 776)]",[],[1],[],horizontal,"(890.0, 262.0)",1.7,nan,1,3711.799,2,0.06,same
0,644,valid,"[(1175, 786)]",[],[1],[0.5166666666666666],vertical,"(890.0, 262.0)",1.2166666666666666,0.474,1,3717.016,2,0.06,same
0,645,valid,"[(1170, 787)]",[],[1],[0.5666666666666667],vertical,"(390.0, 262.0)",0.75,0.524,1,3722.467,3,0.06,same
0,646,invalid_adjacent_other_bar,"[(1193, 792)]",[],[1],[0.65],vertical,"(390.0, 262.0)",0.9333333333333333,0.602,1,3728.351,3,0.06,other
0,647,valid,"[(1181, 767)]",[],[1],[0.4166666666666667],horizontal,"(890.0, 262.0)",1.5,0.381,1,3734.333,3,0.06,same
0,648,catch,"[(1179, 769)]",[],[1],[],horizontal,"(390.0, 262.0)",1.7,nan,1,3740.517,3,0.06,same
0,649,valid,"[(1170, 789)]",[],[1],[0.6333333333333333],vertical,"(890.0, 762.0)",0.5,0.588,1,3746.668,3,0.06,same
0,650,catch,"[(1165, 792)]",[],[1],[],vertical,"(390.0, 762.0)",1.7,nan,1,3752.241,3,0.06,same
0,651,valid,"[(1175, 766)]",[],[1],[0.5166666666666666],vertical,"(890.0, 262.0)",0.45,0.478,1,3758.192,3,0.06,same
0,652,invalid_same_bar,"[(1170, 748), (1135, 816)]",[],"[0, 1]",[0.7],horizontal,"(390.0, 262.0)",1.0833333333333333,0.653,1,3763.15,3,0.06,same
0,653,valid,"[(1172, 786)]",[],[1],[0.6166666666666667],horizontal,"(390.0, 762.0)",0.7833333333333333,0.579,1,3770.156,3,0.06,same
0,654,valid,"[(1167, 773)]",[],[1],[0.6333333333333333],vertical,"(890.0, 762.0)",1.4166666666666667,0.587,1,3775.447,3,0.06,same
0,655,valid,"[(1167, 796)]",[],[1],[0.8166666666666667],horizontal,"(890.0, 762.0)",1.4333333333333333,0.771,1,3781.925,3,0.06,same
0,656,catch,"[(1175, 798)]",[],[1],[],vertical,"(890.0, 762.0)",1.7,nan,1,3788.746,3,0.06,same
0,657,valid,"[(1176, 796)]",[],[1],[0.75],horizontal,"(890.0, 762.0)",1.0333333333333332,0.707,1,3794.612,3,0.06,same
0,658,valid,"[(1177, 784)]",[],[1],[0.5666666666666667],vertical,"(890.0, 762.0)",0.9833333333333333,0.523,1,3800.775,3,0.06,same
0,659,catch,"[(1180, 786)]",[],[1],[],horizontal,"(890.0, 762.0)",1.7,nan,1,3806.625,3,0.06,same
0,660,catch,"[(1185, 790)]",[],[1],[],horizontal,"(890.0, 762.0)",1.7,nan,1,3812.467,3,0.06,same
0,661,catch,"[(1165, 784)]",[],[1],[],vertical,"(390.0, 762.0)",,"('cti', 1.537),nan",0,3818.801,0,0.06,same
0,662,valid,"[(1150, 820)]",[],[1],[0.5166666666666666],horizontal,"(390.0, 262.0)",1.3666666666666667,0.479,1,3823.441,1,0.06,same
0,663,valid,"[(1167, 801)]",[],[1],[0.1],horizontal,"(390.0, 262.0)",0.9,0.07,0,3873.139,0,0.06,same
0,664,catch,"[(1138, 795)]",[],[1],[],vertical,"(390.0, 762.0)",1.7,nan,1,3877.647,1,0.06,same
0,665,valid,"[(1180, 786)]",[],[1],[0.5],horizontal,"(390.0, 762.0)",1.5333333333333332,0.459,1,3883.416,1,0.06,same
0,666,valid,"[(1179, 782)]",[],[1],[0.6],vertical,"(390.0, 762.0)",1.1166666666666667,0.556,1,3889.465,1,0.06,same
0,667,valid,"[(1170, 795)]",[],[1],[0.6666666666666666],horizontal,"(890.0, 262.0)",1.1333333333333333,0.619,1,3894.835,2,0.06,same
0,668,valid,"[(1176, 796)]",[],[1],[0.65],vertical,"(890.0, 262.0)",1.3,0.602,1,3900.3,2,0.06,same
0,669,invalid_adjacent_other_bar,"[(1170, 776)]",[],[1],[0.6333333333333333],vertical,"(390.0, 262.0)",0.6333333333333333,0.584,1,3905.998,2,0.06,other
0,670,valid,"[(1177, 795)]",[],[1],[0.6166666666666667],vertical,"(390.0, 762.0)",0.65,0.567,1,3910.961,3,0.06,same
0,671,valid,"[(1179, 763)]",[],[1],[0.85],horizontal,"(390.0, 762.0)",0.43333333333333335,nan,0,3916.235,0,0.06,same
0,672,catch,"[(1140, 785)]",[],[1],[],horizontal,"(890.0, 262.0)",1.7,nan,1,3920.229,1,0.06,same
0,673,valid,"[(1180, 772)]",[],[1],"[0.85, 0.85]",horizontal,"(390.0, 262.0)",0.6333333333333333,"0.801,nan",0,3925.734,0,0.06,same
0,674,catch,"[(1146, 789)]",[],[1],[],horizontal,"(390.0, 262.0)",1.7,nan,1,3930.546,1,0.06,same
0,675,valid,"[(1173, 798)]",[],[1],[0.5833333333333334],vertical,"(390.0, 762.0)",0.9666666666666667,0.538,1,3935.334,1,0.06,same
0,676,catch,"[(1178, 766)]",[],[1],[],vertical,"(390.0, 762.0)",1.7,nan,1,3940.8,1,0.06,same
0,677,catch,"[(1180, 772)]",[],[1],[],vertical,"(390.0, 762.0)",1.7,nan,1,3945.818,2,0.06,same
0,678,catch,"[(1175, 784)]",[],[1],[],vertical,"(890.0, 762.0)",1.7,nan,1,3951.644,2,0.06,same
0,679,valid,"[(1170, 798)]",[],[1],[0.5666666666666667],horizontal,"(890.0, 762.0)",0.5833333333333334,0.526,1,3957.768,2,0.04,same
0,680,invalid_adjacent_other_bar,"[(1173, 767)]",[],[1],[0.55],horizontal,"(390.0, 762.0)",1.4666666666666666,0.509,1,3962.919,3,0.04,other
0,681,valid,"[(1188, 779)]",[],[1],[0.6666666666666666],vertical,"(390.0, 262.0)",1.0166666666666666,0.62,1,3968.901,3,0.04,same
0,682,catch,"[(1202, 792)]",[],[1],[],horizontal,"(390.0, 262.0)",1.7,nan,1,3975.039,3,0.02,same
0,683,valid,"[(1177, 772)]",[],[1],[0.5833333333333334],vertical,"(390.0, 762.0)",0.55,0.541,1,3980.784,3,0.02,same
0,684,catch,"[(1178, 776)]",[],[1],[],horizontal,"(390.0, 262.0)",1.7,nan,1,3986.485,3,0.02,same
0,685,valid,"[(1160, 785)]",[],[1],[0.55],horizontal,"(390.0, 262.0)",0.8,0.508,1,3992.286,3,0.02,same
0,686,valid,"[(1139, 807)]",[],[1],[0.55],horizontal,"(390.0, 762.0)",0.65,0.513,1,3997.669,3,0.02,same
0,687,valid,"[(1170, 791)]",[],[1],[0.5833333333333334],vertical,"(890.0, 762.0)",0.5833333333333334,0.544,1,4007.125,3,0.02,same
0,688,catch,"[(1161, 783)]",[],[1],[],horizontal,"(890.0, 262.0)",1.7,nan,1,4012.521,3,0.02,same
0,689,valid,"[(1180, 796)]",[],[1],[0.6333333333333333],vertical,"(890.0, 762.0)",0.5666666666666667,0.591,1,4018.535,3,0.02,same
0,690,catch,"[(1160, 779)]",[],[1],[],horizontal,"(390.0, 762.0)",1.7,nan,1,4023.947,3,0.02,same
0,691,valid,"[(1174, 787)]",[],[1],[0.7],vertical,"(390.0, 262.0)",0.8333333333333334,0.655,1,4029.723,3,0.02,same
0,692,valid,"[(1180, 766)]",[],[1],[0.5333333333333333],horizontal,"(390.0, 262.0)",1.4833333333333334,0.49,1,4035.819,3,0.02,same
0,693,valid,"[(1164, 766)]",[],[1],[0.6333333333333333],vertical,"(890.0, 262.0)",1.4,0.59,1,4041.768,3,0.02,same
0,694,valid,"[(1177, 779)]",[],[1],[0.55],horizontal,"(890.0, 762.0)",0.5333333333333333,0.516,1,4048.174,3,0.02,same
0,695,catch,"[(1160, 786)]",[],[1],[],horizontal,"(890.0, 762.0)",1.7,nan,1,4053.55,3,0.02,same
0,696,valid,"[(1162, 776)]",[],[1],[0.6166666666666667],vertical,"(390.0, 762.0)",1.15,0.571,1,4059.517,3,0.02,same
0,697,catch,"[(1181, 773)]",[],[1],[],vertical,"(890.0, 262.0)",1.7,nan,1,4065.939,3,0.02,same
0,698,catch,"[(1180, 776)]",[],[1],[],horizontal,"(390.0, 262.0)",1.7,nan,1,4071.845,3,0.02,same
0,699,valid,"[(1160, 771)]",[],[1],[0.85],vertical,"(390.0, 262.0)",0.6666666666666666,nan,0,4078.384,0,0.02,same
0,700,valid,"[(1154, 784)]",[],[1],[0.5],vertical,"(390.0, 262.0)",0.7,0.463,1,4082.829,1,0.02,same
0,701,valid,"[(1160, 794)]",[],[1],[0.6166666666666667],vertical,"(890.0, 262.0)",0.6666666666666666,0.574,1,4087.502,1,0.02,same
0,702,catch,"[(1185, 772)]",[],[1],[],vertical,"(890.0, 762.0)",1.7,nan,1,4092.722,1,0.02,same
0,703,valid,"[(1170, 791)]",[],[1],[0.85],vertical,"(890.0, 762.0)",0.9166666666666666,nan,0,4097.922,0,0.02,same
0,704,valid,"[(1150, 775)]",[],[1],[0.5333333333333333],horizontal,"(390.0, 762.0)",0.4666666666666667,0.492,1,4102.943,1,0.02,same
0,705,catch,"[(1185, 791)]",[],[1],[],horizontal,"(890.0, 262.0)",,"('cti', 1.679),nan",0,4107.65,0,0.04,same
0,706,catch,"[(1165, 776)]",[],[1],[],vertical,"(890.0, 762.0)",1.7,nan,1,4112.63,1,0.04,same
0,707,valid,"[(1180, 796)]",[],[1],[0.55],vertical,"(890.0, 262.0)",1.1333333333333333,0.513,1,4117.618,1,0.04,same
0,708,valid,"[(1165, 773)]",[],[1],[0.6],vertical,"(890.0, 262.0)",1.0,0.558,1,4122.653,1,0.04,same
0,709,valid,"[(1160, 776)]",[],[1],[0.5666666666666667],vertical,"(390.0, 762.0)",1.3166666666666667,0.536,1,4127.94,2,0.04,same
0,710,valid,"[(1180, 802)]",[],[1],[0.6833333333333333],horizontal,"(390.0, 262.0)",0.4666666666666667,0.642,1,4134.032,2,0.04,same
0,711,invalid_same_bar,"[(1171, 787)]",[],[1],[0.85],vertical,"(390.0, 262.0)",1.0,nan,0,4139.13,0,0.02,same
0,712,catch,"[(1170, 762)]",[],[1],[],vertical,"(390.0, 262.0)",1.7,nan,1,4143.952,1,0.02,same
0,713,valid,"[(1165, 797)]",[],[1],[0.6],horizontal,"(890.0, 262.0)",0.9,0.558,1,4148.996,1,0.02,same
0,714,valid,"[(1207, 776)]",[],[1],[0.7],horizontal,"(890.0, 762.0)",0.75,0.657,1,4153.551,1,0.02,same
0,715,valid,"[(1197, 785)]",[],[1],[0.7833333333333333],vertical,"(390.0, 762.0)",0.8666666666666667,0.733,1,4158.484,2,0.02,same
0,716,valid,"[(1191, 772)]",[],[1],[0.5666666666666667],horizontal,"(890.0, 762.0)",1.2333333333333334,0.52,1,4163.855,2,0.02,same
0,717,valid,"[(1170, 791)]",[],[1],"[0.85, 0.85]",vertical,"(890.0, 762.0)",0.45,"0.802,nan",0,4169.384,0,0.02,same
0,718,valid,"[(1181, 795)]",[],[1],[0.5666666666666667],horizontal,"(890.0, 262.0)",0.3833333333333333,0.524,1,4173.828,1,0.02,same
0,719,catch,"[(1178, 805)]",[],[1],[],vertical,"(890.0, 262.0)",1.7,nan,1,4178.591,1,0.02,same
0,720,valid,"[(1205, 803)]",[],[1],[0.5],horizontal,"(890.0, 262.0)",0.9666666666666667,0.46,1,4184.056,1,0.02,same
0,721,catch,"[(1187, 768)]",[],[1],[],horizontal,"(390.0, 762.0)",1.7,nan,1,4189.077,2,0.02,same
0,722,valid,"[(1181, 801)]",[],[1],[0.6],vertical,"(390.0, 262.0)",0.4166666666666667,0.559,1,4194.634,2,0.02,same
0,723,valid,"[(1186, 796)]",[],[1],[0.85],horizontal,"(890.0, 762.0)",0.7833333333333333,nan,0,4199.451,0,0.02,same
0,724,valid,"[(1150, 793)]",[],[1],[0.5],vertical,"(390.0, 262.0)",1.2166666666666666,0.456,1,4204.404,1,0.02,same
0,725,valid,"[(1185, 782)]",[],[1],[0.85],vertical,"(890.0, 762.0)",1.2,nan,0,4209.884,0,0.02,same
0,726,valid,"[(1165, 772)]",[],[1],[0.55],horizontal,"(890.0, 762.0)",0.9666666666666667,0.511,1,4215.248,1,0.02,same
0,727,valid,"[(1178, 775)]",[],[1],[0.6],horizontal,"(890.0, 262.0)",0.5833333333333334,0.558,1,4220.084,1,0.02,same
0,728,valid,"[(1183, 797)]",[],[1],[0.6],vertical,"(890.0, 762.0)",0.8,0.558,1,4224.902,1,0.02,same
0,729,valid,"[(1181, 780)]",[],[1],[0.55],vertical,"(390.0, 262.0)",0.6333333333333333,0.511,1,4229.885,2,0.02,same
0,730,valid,"[(1185, 774)]",[],[1],[0.6],horizontal,"(890.0, 762.0)",1.0333333333333332,0.561,1,4235.051,2,0.02,same
0,731,catch,"[(1184, 779)]",[],[1],[],vertical,"(890.0, 262.0)",1.7,nan,1,4240.655,2,0.02,same
0,732,valid,"[(1166, 798)]",[],[1],[0.5666666666666667],horizontal,"(890.0, 762.0)",1.4166666666666667,0.527,1,4246.084,3,0.02,same
0,733,valid,"[(1182, 794)]",[],[1],[0.5166666666666666],horizontal,"(890.0, 262.0)",1.5166666666666666,0.476,1,4252.678,3,0.02,same
0,734,catch,"[(1205, 793)]",[],[1],[],vertical,"(390.0, 262.0)",1.7,nan,1,4259.219,3,0.02,same
0,735,valid,"[(1180, 771)]",[],[1],[0.5333333333333333],vertical,"(890.0, 262.0)",1.4333333333333333,0.491,1,4265.334,3,0.02,same
0,736,valid,"[(1173, 776)]",[],[1],[0.5666666666666667],horizontal,"(390.0, 262.0)",0.7333333333333333,0.53,1,4271.968,3,0.02,same
0,737,catch,"[(1183, 774)]",[],[1],[],vertical,"(390.0, 762.0)",1.7,nan,1,4277.645,3,0.02,same
0,738,valid,"[(1183, 802)]",[],[1],[0.6666666666666666],horizontal,"(390.0, 762.0)",1.15,0.62,1,4283.725,3,0.02,same
0,739,invalid_same_bar,"[(1154, 772)]",[],[1],[0.65],vertical,"(890.0, 262.0)",1.2166666666666666,0.605,1,4289.868,3,0.02,same
0,740,valid,"[(1180, 783)]",[],[1],[0.6666666666666666],vertical,"(890.0, 262.0)",1.3,0.623,1,4296.112,3,0.02,same
0,741,valid,"[(1180, 785)]",[],[1],[0.75],horizontal,"(890.0, 762.0)",1.2,0.707,1,4302.29,3,0.02,same
0,742,valid,"[(1181, 798)]",[],[1],[0.55],horizontal,"(390.0, 762.0)",1.5,0.521,1,4308.476,3,0.02,same
0,743,valid,"[(1165, 791)]",[],[1],[0.55],vertical,"(890.0, 762.0)",0.6166666666666667,0.506,1,4314.818,3,0.02,same
0,744,catch,"[(1185, 795)]",[],[1],[],vertical,"(390.0, 262.0)",1.7,nan,1,4320.114,3,0.02,same
0,745,valid,"[(1114, 816)]",[],[1],[0.65],vertical,"(390.0, 262.0)",1.4333333333333333,0.602,1,4326.402,3,0.02,same
0,746,valid,"[(1133, 806)]",[],[1],[0.8],horizontal,"(890.0, 262.0)",1.1166666666666667,0.751,1,4401.567,3,0.02,same
0,747,invalid_same_bar,"[(1160, 804)]",[],[1],[0.85],horizontal,"(890.0, 762.0)",1.1666666666666667,nan,0,4407.768,0,0.02,same
0,748,catch,"[(1105, 842)]",[],[1],[],vertical,"(390.0, 762.0)",1.7,nan,1,4412.685,1,0.02,same
0,749,valid,"[(1138, 816)]",[],[1],[0.6666666666666666],horizontal,"(890.0, 262.0)",0.95,0.618,1,4418.052,1,0.02,same
0,750,invalid_adjacent_other_bar,"[(1176, 767)]",[],[1],[0.6333333333333333],horizontal,"(390.0, 262.0)",1.4666666666666666,0.591,1,4423.302,1,0.02,other
0,751,valid,"[(1165, 768)]",[],[1],[0.7333333333333333],horizontal,"(890.0, 262.0)",0.9333333333333333,0.691,1,4428.665,2,0.02,same
0,752,valid,"[(1179, 806)]",[],[1],[0.85],vertical,"(890.0, 762.0)",0.5833333333333334,nan,0,4434.057,0,0.02,same
0,753,catch,"[(1163, 771)]",[],[1],[],vertical,"(890.0, 762.0)",1.7,nan,1,4438.796,1,0.02,same
0,754,invalid_adjacent_other_bar,"[(1169, 755)]",[],[1],[0.5333333333333333],horizontal,"(890.0, 262.0)",1.0666666666666667,0.491,1,4443.776,1,0.02,other
0,755,valid,"[(1211, 757)]",[],[1],[0.55],horizontal,"(390.0, 762.0)",0.5666666666666667,0.505,1,4449.055,1,0.0,same
0,756,valid,"[(1183, 778)]",[],[1],[0.75],horizontal,"(890.0, 262.0)",1.05,0.701,1,4453.617,2,0.0,same
0,757,valid,"[(1185, 784)]",[],[1],[0.5833333333333334],vertical,"(390.0, 762.0)",0.5333333333333333,0.543,1,4459.568,2,0.0,same
0,758,valid,"[(1166, 770)]",[],[1],[0.55],horizontal,"(390.0, 262.0)",0.36666666666666664,0.507,1,4464.754,2,0.0,same
0,759,valid,"[(1185, 772)]",[],[1],[0.5833333333333334],vertical,"(390.0, 262.0)",0.7666666666666666,0.547,1,4469.144,3,0.0,same
0,760,valid,"[(1165, 766)]",[],[1],[0.5666666666666667],horizontal,"(390.0, 762.0)",1.3,0.526,1,4474.728,3,0.0,same
0,761,valid,"[(1181, 773)]",[],[1],[0.6],vertical,"(890.0, 762.0)",1.2833333333333332,0.557,1,4480.684,3,0.0,same
0,762,catch,"[(1180, 773)]",[],[1],[],vertical,"(390.0, 762.0)",1.7,nan,1,4486.651,3,0.0,same
0,763,valid,"[(1164, 791)]",[],[1],[0.6833333333333333],horizontal,"(890.0, 762.0)",1.1666666666666667,0.641,1,4492.667,3,0.0,same
0,764,catch,"[(1189, 790)]",[],[1],[],horizontal,"(390.0, 262.0)",1.7,nan,1,4498.535,3,0.0,same
0,765,valid,"[(1169, 769)]",[],[1],[0.5333333333333333],horizontal,"(390.0, 762.0)",1.45,0.491,1,4504.43,3,0.0,same
0,766,valid,"[(1166, 778)]",[],[1],[0.6],horizontal,"(890.0, 262.0)",1.1333333333333333,0.557,1,4510.936,3,0.0,same
0,767,invalid_same_bar,"[(1165, 789)]",[],[1],[0.5166666666666666],horizontal,"(390.0, 762.0)",1.4833333333333334,0.474,1,4517.127,3,0.0,same
0,768,catch,"[(1166, 772)]",[],[1],[],vertical,"(890.0, 762.0)",1.7,nan,1,4523.935,3,0.0,same
0,769,valid,"[(1210, 776)]",[],[1],[0.5166666666666666],vertical,"(890.0, 262.0)",0.5833333333333334,0.474,1,4529.919,3,0.0,same
0,770,catch,"[(1171, 760)]",[],[1],[],horizontal,"(890.0, 262.0)",1.7,nan,1,4535.589,3,0.0,same
0,771,valid,"[(1177, 786)]",[],[1],[0.5666666666666667],vertical,"(390.0, 262.0)",0.5,0.529,1,4541.395,3,0.0,same
0,772,valid,"[(1161, 791)]",[],[1],[0.8166666666666667],vertical,"(390.0, 762.0)",1.0666666666666667,0.768,1,4547.118,3,0.0,same
0,773,valid,"[(1172, 798)]",[],[1],[0.7833333333333333],vertical,"(890.0, 262.0)",1.2333333333333334,0.742,1,4553.459,3,0.0,same
0,774,catch,"[(1175, 789)]",[],[1],[],vertical,"(890.0, 762.0)",1.7,nan,1,4559.347,3,0.0,same
0,775,valid,"[(1178, 797)]",[],[1],[0.5166666666666666],horizontal,"(890.0, 762.0)",1.15,0.471,1,4565.319,3,0.0,same
0,776,catch,"[(1183, 774)]",[],[1],[],vertical,"(890.0, 762.0)",1.7,nan,1,4571.557,3,0.0,same
0,777,valid,"[(1165, 799)]",[],[1],[0.7333333333333333],vertical,"(390.0, 762.0)",0.95,0.689,1,4577.157,3,0.0,same
0,778,invalid_same_bar,"[(1185, 773)]",[],[1],[0.85],vertical,"(890.0, 762.0)",1.1666666666666667,nan,0,4584.468,0,0.0,same
0,779,valid,"[(1160, 773)]",[],[1],[0.5666666666666667],vertical,"(890.0, 262.0)",1.55,0.524,1,4589.735,1,0.0,same
0,780,valid,"[(1214, 785)]",[],[1],[0.6],horizontal,"(390.0, 762.0)",1.15,0.561,1,4595.242,1,0.0,same
0,781,valid,"[(1185, 771)]",[],[1],[0.5666666666666667],vertical,"(390.0, 262.0)",1.3666666666666667,0.528,1,4600.968,1,0.0,same
0,782,valid,"[(1180, 778)]",[],[1],[0.65],vertical,"(390.0, 262.0)",0.9666666666666667,0.605,1,4606.369,2,0.0,same
0,783,valid,"[(1176, 781)]",[],[1],[0.6166666666666667],vertical,"(890.0, 762.0)",0.4666666666666667,0.572,1,4612.0,2,0.0,same
0,784,valid,"[(1179, 811)]",[],[1],[0.5333333333333333],horizontal,"(890.0, 762.0)",0.6833333333333333,0.496,1,4616.892,2,0.0,same
0,785,valid,"[(1182, 791)]",[],[1],[0.85],vertical,"(890.0, 762.0)",1.0833333333333333,nan,0,4622.636,0,0.0,same
0,786,valid,"[(1135, 778)]",[],[1],[0.5333333333333333],horizontal,"(390.0, 262.0)",0.6166666666666667,0.494,1,4627.971,1,0.0,same
0,787,valid,"[(1163, 756)]",[],[1],[0.6],vertical,"(890.0, 262.0)",1.15,0.562,1,4632.535,1,0.0,same
0,788,valid,"[(1205, 768)]",[],[1],[0.6333333333333333],vertical,"(390.0, 262.0)",1.1166666666666667,0.599,1,4638.518,1,0.0,same
0,789,catch,"[(1181, 744), (1125, 819)]",[],"[0, 1]",[],vertical,"(890.0, 262.0)",1.7,nan,1,4643.286,2,0.0,same
0,790,valid,"[(1212, 782)]",[],[1],[0.6333333333333333],horizontal,"(890.0, 762.0)",0.5833333333333334,0.593,1,4650.154,2,0.0,same
0,791,valid,"[(1214, 770)]",[],[1],[0.6333333333333333],vertical,"(890.0, 262.0)",0.7833333333333333,0.591,1,4655.5,2,0.0,same
0,792,invalid_adjacent_other_bar,"[(1180, 786)]",[],[1],[0.5166666666666666],horizontal,"(890.0, 262.0)",0.95,0.488,1,4661.075,3,0.0,other
0,793,catch,"[(1186, 795)]",[],[1],[],vertical,"(390.0, 262.0)",1.7,nan,1,4666.885,3,0.0,same
0,794,valid,"[(1180, 762)]",[],[1],[0.5833333333333334],horizontal,"(390.0, 762.0)",0.4666666666666667,0.541,1,4673.102,3,0.0,same
0,795,invalid_adjacent_other_bar,"[(1177, 779)]",[],[1],[0.55],vertical,"(390.0, 762.0)",0.6666666666666666,0.51,1,4678.619,3,0.0,other
0,796,valid,"[(1177, 770)]",[],[1],[0.5333333333333333],vertical,"(390.0, 762.0)",1.35,0.491,1,4683.702,3,0.0,same
0,797,valid,"[(1166, 792)]",[],[1],[0.5666666666666667],vertical,"(390.0, 262.0)",0.65,0.533,1,4689.931,3,0.0,same
0,798,valid,"[(1185, 776)]",[],[1],[0.5333333333333333],horizontal,"(390.0, 762.0)",0.6,0.495,1,4695.769,3,0.0,same
0,799,valid,"[(1180, 791)]",[],[1],[0.7166666666666667],vertical,"(890.0, 262.0)",0.3833333333333333,0.674,1,4701.77,3,0.0,same
0,800,invalid_adjacent_other_bar,"[(1166, 776)]",[],[1],[0.5666666666666667],vertical,"(890.0, 262.0)",0.4,0.532,1,4706.869,3,0.0,other
0,801,valid,"[(1185, 777)]",[],[1],[0.5666666666666667],horizontal,"(390.0, 262.0)",0.35,0.531,1,4712.402,3,0.0,same
0,802,catch,"[(1165, 786)]",[],[1],[],horizontal,"(390.0, 762.0)",1.7,"('cti', 1.701),nan",0,4717.301,0,0.02,same
0,803,invalid_adjacent_other_bar,"[(1146, 777)]",[],[1],[0.5],horizontal,"(390.0, 762.0)",1.4666666666666666,0.457,1,4722.136,1,0.02,other
0,804,valid,"[(1191, 781)]",[],[1],[0.5833333333333334],vertical,"(390.0, 762.0)",0.95,0.55,1,4727.573,1,0.02,same
0,805,valid,"[(1206, 781)]",[],[1],[0.85],horizontal,"(390.0, 262.0)",1.15,nan,0,4732.868,0,0.02,same
0,806,invalid_adjacent_other_bar,"[(1165, 771)]",[],[1],[0.6166666666666667],horizontal,"(890.0, 762.0)",0.75,0.576,1,4738.069,1,0.02,other
0,807,invalid_adjacent_other_bar,"[(1185, 778)]",[],[1],[0.6],horizontal,"(890.0, 762.0)",0.9666666666666667,0.56,1,4742.957,1,0.02,other
0,808,valid,"[(1164, 756)]",[],[1],[0.5],vertical,"(390.0, 262.0)",1.45,0.469,1,4748.215,1,0.02,same
0,809,valid,"[(1185, 795)]",[],[1],[0.55],horizontal,"(890.0, 262.0)",1.1166666666666667,0.505,1,4754.018,2,0.02,same
0,810,catch,"[(1177, 770)]",[],[1],[],vertical,"(890.0, 262.0)",,"('cti', 1.603),nan",0,4759.55,0,0.04,same
0,811,valid,"[(1185, 769)]",[],[1],[0.6166666666666667],horizontal,"(390.0, 762.0)",0.4,0.574,1,4764.269,1,0.04,same
0,812,catch,"[(1166, 751), (1145, 799)]",[],"[0, 1]",[],horizontal,"(890.0, 762.0)",1.7,nan,1,4768.837,1,0.04,same
0,813,valid,"[(1180, 775)]",[],[1],[0.5833333333333334],vertical,"(890.0, 762.0)",0.85,0.543,1,4775.075,1,0.04,same
0,814,catch,"[(1180, 761)]",[],[1],[],horizontal,"(890.0, 762.0)",1.7,nan,1,4779.97,2,0.04,same
0,815,valid,"[(1195, 767)]",[],[1],[0.3],horizontal,"(890.0, 762.0)",1.0666666666666667,0.261,1,4785.82,2,0.04,same
0,816,catch,"[(1173, 775)]",[],[1],[],horizontal,"(390.0, 762.0)",1.7,nan,1,4790.968,2,0.04,same
0,817,valid,"[(1165, 752), (1137, 816)]",[],"[0, 1]",[0.5333333333333333],vertical,"(390.0, 762.0)",0.7833333333333333,0.497,1,4796.414,3,0.04,same
0,818,catch,"[(1177, 773)]",[],[1],[],vertical,"(890.0, 262.0)",1.7,nan,1,4803.535,3,0.04,same
0,819,valid,"[(1176, 769)]",[],[1],[0.5833333333333334],vertical,"(890.0, 762.0)",0.45,0.54,1,4809.753,3,0.04,same
0,820,valid,"[(1176, 791)]",[],[1],[0.6666666666666666],horizontal,"(890.0, 762.0)",0.75,0.619,1,4814.985,3,0.04,same
0,821,valid,"[(1185, 779)]",[],[1],[0.5166666666666666],vertical,"(390.0, 762.0)",1.1166666666666667,0.479,1,4820.385,3,0.04,same
0,822,valid,"[(1168, 764)]",[],[1],[0.55],vertical,"(890.0, 762.0)",0.7666666666666666,0.504,1,4826.519,3,0.04,same
0,823,catch,"[(1175, 772)]",[],[1],[],vertical,"(890.0, 762.0)",1.7,nan,1,4832.219,3,0.04,same
0,824,valid,"[(1170, 794)]",[],[1],[0.5166666666666666],horizontal,"(890.0, 762.0)",1.0666666666666667,0.476,1,4838.469,3,0.04,same
0,825,catch,"[(1185, 774)]",[],[1],[],horizontal,"(390.0, 762.0)",1.7,nan,1,4844.336,3,0.04,same
0,826,valid,"[(1175, 772)]",[],[1],[0.5666666666666667],horizontal,"(390.0, 262.0)",0.7333333333333333,0.524,1,4850.121,3,0.04,same
0,827,valid,"[(1201, 768)]",[],[1],[0.4666666666666667],horizontal,"(890.0, 262.0)",0.6,0.424,1,4855.919,3,0.04,same
0,828,valid,"[(1170, 770)]",[],[1],[0.85],horizontal,"(390.0, 262.0)",0.3833333333333333,nan,0,4861.154,0,0.04,same
0,829,catch,"[(1165, 775)]",[],[1],[],horizontal,"(390.0, 762.0)",1.7,nan,1,4865.486,1,0.04,same
0,830,catch,"[(1180, 772)]",[],[1],[],horizontal,"(390.0, 262.0)",1.7,nan,1,4871.268,1,0.04,same
0,831,valid,"[(1180, 757)]",[],[1],[0.5833333333333334],horizontal,"(390.0, 262.0)",0.4,0.537,1,4876.415,1,0.04,same
0,832,catch,"[(1180, 792)]",[],[1],[],horizontal,"(890.0, 262.0)",1.7,nan,1,4880.765,2,0.04,same
0,833,catch,"[(1170, 777)]",[],[1],[],vertical,"(890.0, 762.0)",1.7,nan,1,4886.725,2,0.04,same
0,834,valid,"[(1193, 773)]",[],[1],[0.85],horizontal,"(890.0, 762.0)",0.45,nan,0,4892.213,0,0.04,same
0,835,catch,"[(1156, 771)]",[],[1],[],horizontal,"(390.0, 762.0)",1.7,nan,1,4896.468,1,0.04,same
0,836,catch,"[(1208, 796)]",[],[1],[],vertical,"(390.0, 762.0)",1.7,nan,1,4901.936,1,0.04,same
0,837,valid,"[(1180, 765)]",[],[1],[0.55],vertical,"(890.0, 262.0)",0.7833333333333333,0.508,1,4907.135,1,0.04,same
0,838,valid,"[(1190, 786)]",[],[1],[0.7166666666666667],vertical,"(890.0, 762.0)",0.9666666666666667,0.671,1,4912.25,2,0.04,same
0,839,valid,"[(1180, 781)]",[],[1],[0.5],vertical,"(890.0, 262.0)",0.35,0.455,1,4917.798,2,0.04,same
0,840,valid,"[(1180, 779)]",[],[1],[0.5333333333333333],horizontal,"(890.0, 262.0)",0.6666666666666666,0.491,1,4922.636,2,0.04,same
0,841,valid,"[(1119, 786)]",[],[1],[0.4666666666666667],horizontal,"(390.0, 262.0)",1.4166666666666667,0.423,1,4927.802,3,0.04,same
0,842,invalid_adjacent_other_bar,"[(1175, 791)]",[],[1],[0.5],vertical,"(890.0, 762.0)",0.5333333333333333,0.454,1,4936.953,3,0.04,other
0,843,valid,"[(1165, 794)]",[],[1],[0.6166666666666667],horizontal,"(890.0, 262.0)",0.9,0.571,1,4942.437,3,0.04,same
0,844,valid,"[(1170, 783)]",[],[1],[0.55],horizontal,"(890.0, 762.0)",1.15,0.507,1,4948.386,3,0.04,same
0,845,catch,"[(1170, 791)]",[],[1],[],horizontal,"(390.0, 762.0)",1.7,nan,1,4954.252,3,0.04,same
0,846,valid,"[(1176, 793)]",[],[1],[0.5666666666666667],horizontal,"(390.0, 262.0)",0.8166666666666667,0.521,1,4960.338,3,0.04,same
0,847,valid,"[(1165, 754)]",[],[1],[0.5333333333333333],vertical,"(890.0, 262.0)",0.8666666666666667,0.491,1,4965.804,3,0.04,same
0,848,valid,"[(1170, 791)]",[],[1],[0.7166666666666667],vertical,"(390.0, 762.0)",1.2,0.674,1,4971.9,3,0.04,same
0,849,valid,"[(1166, 776)]",[],[1],[0.5333333333333333],horizontal,"(890.0, 262.0)",1.5166666666666666,0.502,1,4978.135,3,0.04,same
0,850,valid,"[(1170, 769)]",[],[1],[0.5833333333333334],horizontal,"(390.0, 762.0)",0.5666666666666667,0.541,1,4984.512,3,0.04,same
0,851,valid,"[(1164, 796)]",[],[1],[0.5333333333333333],vertical,"(890.0, 262.0)",1.3833333333333333,0.492,1,4989.602,3,0.04,same
0,852,valid,"[(1199, 786)]",[],[1],[0.6166666666666667],vertical,"(390.0, 762.0)",1.2666666666666666,0.576,1,4995.929,3,0.02,same
0,853,valid,"[(1175, 777)]",[],[1],[0.55],vertical,"(890.0, 762.0)",0.85,0.516,1,5002.51,3,0.02,same
0,854,valid,"[(1190, 791)]",[],[1],[0.5666666666666667],horizontal,"(390.0, 762.0)",1.3833333333333333,0.527,1,5008.185,3,0.02,same
0,855,valid,"[(1168, 775)]",[],[1],[0.4166666666666667],horizontal,"(390.0, 762.0)",1.5166666666666666,0.379,1,5014.119,3,0.02,same
