block,trial,trial_type,taps_start_loc_during_fix,taps_end_loc_during_fix,taps_on_lever_during_fix,taps_on_lever_s_during_fix,bar_orientation,target_xy,cti,rt,acc,time,pulses,fa_rate_recent100,p_catch
0,422,target,"[(1138, 796)]",[],[1],[0.7166666666666667],horizontal,"(890.0, 762.0)",0.55,0.685,1,6842.173,2,0.04,0.25
0,423,target,"[(1153, 807)]",[],[1],[0.6],horizontal,"(390.0, 262.0)",1.433333333,0.558,1,6847.722,2,0.04,0.25
0,424,catch,"[(1156, 779)]",[],[1],[],horizontal,"(390.0, 262.0)",1.65,nan,1,6853.484,3,0.04,0.25
0,425,target,"[(1175, 807)]",[],[1],[0.5833333333333334],horizontal,"(890.0, 262.0)",1.15,0.544,1,6859.673,3,0.04,0.25
0,426,target,"[(1175, 809)]",[],[1],[0.6833333333333333],horizontal,"(390.0, 262.0)",0.45,0.639,1,6865.556,3,0.04,0.25
0,427,target,"[(1160, 793)]",[],[1],[0.6333333333333333],vertical,"(390.0, 262.0)",0.666666667,0.59,1,6870.756,3,0.04,0.25
0,428,target,"[(1176, 810)]",[],[1],[0.5333333333333333],horizontal,"(890.0, 762.0)",0.433333333,0.496,1,6876.572,3,0.04,0.25
0,429,target,"[(1175, 797)]",[],[1],[0.5333333333333333],vertical,"(890.0, 262.0)",0.816666667,0.49,1,6881.722,3,0.04,0.25
0,430,target,"[(1160, 798)]",[],[1],[0.6],horizontal,"(890.0, 762.0)",1.333333333,0.561,1,6887.705,3,0.04,0.25
0,431,target,"[(1175, 801)]",[],[1],[0.6166666666666667],vertical,"(890.0, 762.0)",0.733333333,0.574,1,6893.989,3,0.04,0.25
0,432,target,"[(1161, 804)]",[],[1],[0.7333333333333333],vertical,"(390.0, 762.0)",1.183333333,0.687,1,6899.355,3,0.04,0.25
0,433,target,"[(1162, 784)]",[],[1],[0.7666666666666666],horizontal,"(890.0, 262.0)",1.133333333,0.726,1,6905.521,3,0.04,0.25
0,434,target,"[(1161, 791)]",[],[1],[0.5166666666666666],vertical,"(890.0, 762.0)",1.116666667,0.479,1,6912.045,3,0.04,0.25
0,435,catch,"[(1148, 812)]",[],[1],[],vertical,"(890.0, 762.0)",1.65,nan,1,6917.854,3,0.04,0.25
0,436,catch,"[(1150, 828)]",[],[1],[],vertical,"(390.0, 762.0)",1.65,nan,1,6924.19,3,0.04,0.25
0,437,target,"[(1158, 811)]",[],[1],[0.6],horizontal,"(390.0, 262.0)",0.616666667,0.561,1,6930.09,3,0.04,0.25
0,438,target,"[(1137, 821)]",[],[1],[0.6166666666666667],vertical,"(890.0, 262.0)",0.8,0.576,1,6935.704,3,0.04,0.25
0,439,target,"[(1158, 795)]",[],[1],[0.5833333333333334],horizontal,"(890.0, 762.0)",0.7,0.54,1,6941.564,3,0.04,0.25
0,440,target,"[(1173, 797)]",[],[1],[0.85],vertical,"(890.0, 262.0)",0.683333333,nan,0,6947.357,0,0.04,0.25
0,441,target,"[(1141, 808)]",[],[1],"[0.85, 0.85]",horizontal,"(390.0, 262.0)",1.483333333,"0.805,nan",0,6951.687,0,0.04,0.25
0,442,target,"[(1136, 794)]",[],[1],[0.65],vertical,"(890.0, 262.0)",0.783333333,0.609,1,6957.356,1,0.04,0.25
0,443,target,"[(1173, 804)]",[],[1],[0.5166666666666666],vertical,"(390.0, 762.0)",0.983333333,0.475,1,6962.054,1,0.04,0.25
0,444,catch,"[(1170, 803)]",[],[1],[],vertical,"(890.0, 262.0)",1.65,nan,1,6967.106,1,0.02,0.25
0,445,catch,"[(1165, 808)]",[],[1],[],vertical,"(890.0, 762.0)",1.65,nan,1,6972.64,2,0.02,0.25
0,446,target,"[(1162, 791)]",[],[1],[0.5666666666666667],vertical,"(890.0, 262.0)",0.933333333,0.521,1,6978.189,2,0.02,0.25
0,447,target,"[(1135, 793)]",[],[1],[0.6333333333333333],horizontal,"(890.0, 762.0)",0.883333333,0.591,1,6983.522,2,0.02,0.25
0,448,target,"[(1151, 796)]",[],[1],[0.4],horizontal,"(890.0, 262.0)",1.5,0.359,1,6988.987,2,0.02,0.25
0,449,target,"[(1169, 792)]",[],[1],[0.85],vertical,"(890.0, 262.0)",0.7,nan,0,6994.884,0,0.02,0.25
0,450,catch,"[(1175, 801)]",[],[1],[],vertical,"(390.0, 762.0)",1.65,nan,1,6999.082,1,0.02,0.25
0,451,catch,"[(1175, 802)]",[],[1],[],horizontal,"(890.0, 262.0)",1.65,nan,1,7004.379,1,0.02,0.25
0,452,target,"[(1138, 827)]",[],[1],[0.43333333333333335],vertical,"(890.0, 262.0)",1.533333333,0.392,1,7009.415,1,0.02,0.25
0,453,catch,"[(1173, 793)]",[],[1],[],vertical,"(390.0, 262.0)",1.65,nan,1,7015.023,2,0.02,0.25
0,454,catch,"[(1153, 778)]",[],[1],[],vertical,"(390.0, 262.0)",1.65,nan,1,7020.877,2,0.02,0.25
0,455,catch,"[(1161, 794)]",[],[1],[],vertical,"(390.0, 262.0)",1.65,nan,1,7026.824,2,0.02,0.25
0,456,catch,"[(1170, 789)]",[],[1],[],vertical,"(890.0, 262.0)",1.65,nan,1,7032.348,2,0.02,0.25
0,457,target,"[(1139, 799)]",[],[1],[0.85],horizontal,"(390.0, 762.0)",0.383333333,nan,0,7038.118,0,0.02,0.25
0,458,target,"[(1137, 796)]",[],[1],[0.5666666666666667],vertical,"(390.0, 262.0)",0.966666667,0.524,1,7042.293,1,0.02,0.25
0,459,target,"[(1136, 807)]",[],[1],[0.7],horizontal,"(390.0, 762.0)",0.35,0.652,1,7047.224,1,0.02,0.25
0,460,catch,"[(1148, 788)]",[],[1],[],horizontal,"(890.0, 262.0)",1.65,nan,1,7052.306,1,0.02,0.25
0,461,catch,"[(1136, 766)]",[],[1],[],horizontal,"(390.0, 762.0)",1.65,nan,1,7057.68,2,0.02,0.25
0,462,catch,"[(1153, 803)]",[],[1],[],vertical,"(890.0, 262.0)",1.65,nan,1,7063.515,2,0.02,0.25
0,463,catch,"[(1149, 766)]",[],[1],[],horizontal,"(890.0, 762.0)",1.65,nan,1,7069.518,2,0.02,0.25
0,464,target,"[(1160, 804)]",[],[1],[0.5833333333333334],vertical,"(390.0, 762.0)",0.6,0.542,1,7075.723,2,0.02,0.25
0,465,target,"[(1160, 794)]",[],[1],[0.5333333333333333],vertical,"(890.0, 762.0)",0.95,0.492,1,7081.273,3,0.02,0.25
0,466,catch,"[(1170, 801)]",[],[1],[],vertical,"(390.0, 262.0)",1.65,nan,1,7087.523,3,0,0.25
0,467,target,"[(1171, 806)]",[],[1],[0.36666666666666664],horizontal,"(890.0, 262.0)",1.5,0.334,1,7093.184,3,0,0.25
0,468,catch,"[(1173, 792)]",[],[1],[],horizontal,"(890.0, 762.0)",1.65,nan,1,7099.37,3,0,0.25
0,469,target,"[(1174, 793)]",[],[1],[0.48333333333333334],horizontal,"(390.0, 762.0)",1.516666667,0.442,1,7104.969,3,0,0.25
0,470,target,"[(1162, 793)]",[],[1],[0.5666666666666667],vertical,"(390.0, 262.0)",1.466666667,0.532,1,7111.067,3,0,0.25
0,471,target,"[(1136, 798)]",[],[1],[0.06666666666666667],vertical,"(390.0, 762.0)",0.983333333,0.037,0,7117.19,0,0,0.25
0,472,target,"[(1131, 793)]",[],[1],[0.6333333333333333],vertical,"(390.0, 262.0)",0.916666667,0.589,1,7121.14,1,0,0.25
0,473,target,"[(1136, 802)]",[],[1],[0.6],vertical,"(890.0, 262.0)",0.916666667,0.553,1,7126.392,1,0,0.25
0,474,target,"[(1162, 787)]",[],[1],[0.65],horizontal,"(390.0, 762.0)",0.516666667,0.609,1,7131.374,1,0,0.25
0,475,target,"[(1150, 787)]",[],[1],[0.5333333333333333],vertical,"(890.0, 762.0)",0.7,0.488,1,7136.273,2,0,0.25
0,476,target,"[(1158, 773)]",[],[1],[0.8166666666666667],vertical,"(390.0, 762.0)",0.516666667,0.778,1,7141.84,2,0,0.25
0,477,target,"[(1166, 789)]",[],[1],[0.85],horizontal,"(890.0, 262.0)",0.566666667,nan,0,7146.873,0,0,0.25
0,478,target,"[(1132, 792)]",[],[1],[0.5333333333333333],vertical,"(390.0, 262.0)",0.9,0.494,1,7151.802,1,0,0.25
0,479,target,"[(1136, 772)]",[],[1],[0.5833333333333334],horizontal,"(890.0, 262.0)",1.533333333,0.541,1,7156.793,1,0,0.25
0,480,target,"[(1170, 793)]",[],[1],[0.7],horizontal,"(390.0, 762.0)",1.35,0.655,1,7162.41,1,0,0.25
0,481,catch,"[(1142, 812)]",[],[1],[],vertical,"(890.0, 262.0)",1.65,nan,1,7167.523,2,0,0.25
0,482,target,"[(1159, 800)]",[],[1],[0.7666666666666666],horizontal,"(390.0, 762.0)",0.983333333,0.725,1,7172.973,2,0,0.25
0,483,target,"[(1164, 771)]",[],[1],[0.6],vertical,"(890.0, 262.0)",0.766666667,0.562,1,7178.856,2,0,0.25
0,484,target,"[(1151, 800)]",[],[1],[0.55],vertical,"(890.0, 762.0)",0.5,0.512,1,7184.353,2,0,0.25
0,485,target,"[(1138, 805)]",[],[1],[0.55],vertical,"(390.0, 262.0)",1.366666667,0.508,1,7189.256,3,0,0.25
0,486,target,"[(1159, 785)]",[],[1],[0.6333333333333333],vertical,"(890.0, 762.0)",1.116666667,0.593,1,7195.393,3,0,0.25
0,487,target,"[(1136, 787)]",[],[1],[0.5666666666666667],horizontal,"(390.0, 262.0)",0.716666667,0.526,1,7201.44,3,0,0.25
0,488,target,"[(1163, 799)]",[],[1],[0.5],vertical,"(390.0, 262.0)",1.416666667,0.461,1,7207.173,3,0,0.25
0,489,target,"[(1157, 787)]",[],[1],[0.6166666666666667],vertical,"(890.0, 762.0)",0.833333333,0.569,1,7213.447,3,0,0.25
0,490,target,"[(1136, 808)]",[],[1],[0.5833333333333334],horizontal,"(890.0, 262.0)",0.783333333,0.541,1,7218.824,3,0,0.25
0,491,catch,"[(1151, 794)]",[],[1],[],horizontal,"(890.0, 262.0)",1.65,nan,1,7224.152,3,0,0.25
0,492,target,"[(1157, 788)]",[],[1],[0.55],horizontal,"(390.0, 762.0)",0.416666667,0.509,1,7229.985,3,0,0.25
0,493,target,"[(1170, 795)]",[],[1],[0.4666666666666667],horizontal,"(390.0, 262.0)",1.416666667,0.435,1,7235.097,3,0,0.25
0,494,target,"[(1132, 815)]",[],[1],[0.5166666666666666],horizontal,"(390.0, 762.0)",1.433333333,0.482,1,7241.041,3,0,0.25
0,495,catch,"[(1134, 802)]",[],[1],[],vertical,"(390.0, 262.0)",,"('cti', 1.44),nan",0,7248.317,0,0.02,0.25
0,496,target,"[(1155, 795)]",[],[1],[0.5166666666666666],vertical,"(890.0, 262.0)",1.25,0.477,1,7252.873,1,0.02,0.25
0,497,catch,"[(1141, 799)]",[],[1],[],vertical,"(890.0, 762.0)",1.65,nan,1,7258.49,1,0.02,0.25
0,498,target,"[(1160, 792)]",[],[1],[0.6333333333333333],vertical,"(390.0, 762.0)",0.45,0.593,1,7263.566,1,0.02,0.25
0,499,target,"[(1136, 781)]",[],[1],[0.7],vertical,"(890.0, 262.0)",0.433333333,0.654,1,7268.14,2,0.02,0.25
0,500,catch,"[(1162, 799)]",[],[1],[],vertical,"(390.0, 262.0)",1.65,nan,1,7273.424,2,0.02,0.25
0,501,target,"[(1136, 792)]",[],[1],[0.6666666666666666],vertical,"(890.0, 262.0)",1.366666667,0.621,1,7279.474,2,0.02,0.25
0,502,target,"[(1164, 795)]",[],[1],[0.55],vertical,"(390.0, 262.0)",0.566666667,0.509,1,7285.991,2,0.02,0.25
0,503,target,"[(1123, 821)]",[],[1],[0.7],vertical,"(890.0, 262.0)",1.15,0.654,1,7291.306,3,0.02,0.25
0,504,target,"[(1164, 797)]",[],[1],[0.31666666666666665],vertical,"(890.0, 762.0)",0.9,0.276,1,7299.975,3,0.02,0.25
0,505,target,"[(1169, 792)]",[],[1],[0.5666666666666667],vertical,"(890.0, 262.0)",0.433333333,0.529,1,7305.95,3,0.02,0.25
0,506,catch,"[(1151, 792)]",[],[1],[],vertical,"(390.0, 262.0)",1.65,nan,1,7311.384,3,0.02,0.25
0,507,target,"[(1167, 804)]",[],[1],[0.45],vertical,"(890.0, 762.0)",1.466666667,0.406,1,7317.409,3,0.02,0.25
0,508,target,"[(1167, 794)]",[],[1],[0.65],horizontal,"(390.0, 262.0)",0.9,0.603,1,7323.64,3,0.02,0.25
0,509,target,"[(1116, 820)]",[],[1],[0.55],horizontal,"(390.0, 262.0)",1.416666667,0.505,1,7329.667,3,0.02,0.25
0,510,catch,"[(1131, 826)]",[],[1],[],horizontal,"(390.0, 762.0)",1.65,nan,1,7336.012,3,0.02,0.25
0,511,target,"[(1157, 815)]",[],[1],[0.6333333333333333],vertical,"(390.0, 262.0)",1.333333333,0.594,1,7343.067,3,0.02,0.25
0,512,catch,"[(1159, 804)]",[],[1],[],vertical,"(390.0, 762.0)",1.65,nan,1,7349.549,3,0.02,0.25
0,513,catch,"[(1147, 808)]",[],[1],[],vertical,"(390.0, 762.0)",1.65,nan,1,7355.624,3,0.02,0.25
0,514,target,"[(1160, 794)]",[],[1],[0.6],vertical,"(890.0, 762.0)",0.733333333,0.561,1,7361.443,3,0.02,0.25
0,515,catch,"[(1160, 810)]",[],[1],[],vertical,"(890.0, 762.0)",1.65,nan,1,7367.674,3,0.02,0.25
0,516,catch,"[(1134, 831)]",[],[1],[],vertical,"(890.0, 762.0)",1.65,nan,1,7373.487,3,0.02,0.25
0,517,target,"[(1155, 806)]",[],[1],[0.5666666666666667],horizontal,"(390.0, 762.0)",1.116666667,0.523,1,7439.663,3,0.02,0.25
0,518,target,"[(1183, 809)]",[],[1],[0.6333333333333333],horizontal,"(890.0, 262.0)",0.716666667,0.589,1,7445.789,3,0.02,0.25
0,519,target,"[(1180, 813)]",[],[1],[0.5],horizontal,"(390.0, 762.0)",0.833333333,0.462,1,7451.659,3,0.02,0.25
0,520,catch,"[(1175, 799)]",[],[1],[],vertical,"(390.0, 762.0)",1.65,nan,1,7457.341,3,0.02,0.25
0,521,catch,"[(1180, 798)]",[],[1],[],horizontal,"(890.0, 262.0)",1.65,nan,1,7463.023,3,0.02,0.25
0,522,target,"[(1182, 792)]",[],[1],[0.6166666666666667],vertical,"(390.0, 762.0)",0.633333333,0.568,1,7469.239,3,0.02,0.25
0,523,target,"[(1160, 808)]",[],[1],[0.5166666666666666],vertical,"(890.0, 762.0)",1.433333333,0.472,1,7474.388,3,0.02,0.25
0,524,target,"[(1165, 794)]",[],[1],[0.4],horizontal,"(890.0, 762.0)",1.5,0.364,1,7480.283,3,0.02,0.25
0,525,catch,"[(1129, 794)]",[],[1],[],horizontal,"(890.0, 762.0)",1.65,nan,1,7486.908,3,0.02,0.25
0,526,target,"[(1128, 810)]",[],[1],[0.6333333333333333],vertical,"(390.0, 762.0)",1.116666667,0.592,1,7493.02,3,0.02,0.25
0,527,catch,"[(1116, 842)]",[],[1],[],horizontal,"(390.0, 762.0)",1.65,nan,1,7498.737,3,0.02,0.25
0,528,target,"[(1225, 758)]","[(1225, 758)]",[1],[0.11666666666666667],vertical,"(890.0, 262.0)",,"('bar', 0.134)",0,7504.857,0,0.02,0.25
0,529,target,"[(1155, 842)]",[],[1],[0.85],vertical,"(390.0, 762.0)",0.55,nan,0,8231.095,0,0.02,0.25
0,530,target,"[(1137, 823)]",[],[1],[0.85],horizontal,"(390.0, 762.0)",1.35,nan,0,11624.181,0,0.02,0.25
0,531,target,"[(1126, 825)]",[],[1],[0.85],horizontal,"(390.0, 262.0)",0.416666667,nan,0,11629.657,0,0.02,0.25
0,532,target,"[(1174, 803)]",[],[1],[0.5833333333333334],horizontal,"(890.0, 762.0)",0.633333333,0.538,1,11633.958,1,0.02,0.25
0,533,catch,"[(1180, 794)]",[],[1],[],vertical,"(390.0, 762.0)",1.65,nan,1,11639.103,1,0.02,0.25
0,534,target,"[(1158, 804)]",[],[1],[0.5333333333333333],horizontal,"(890.0, 262.0)",0.8,0.494,1,11644.714,1,0.02,0.25
0,535,catch,"[(1168, 794)]",[],[1],[],vertical,"(390.0, 262.0)",1.65,nan,1,11649.683,2,0.02,0.25
0,536,target,"[(1176, 800)]",[],[1],[0.6333333333333333],horizontal,"(390.0, 762.0)",1.166666667,0.588,1,11655.668,2,0.02,0.25
0,537,target,"[(1160, 806)]",[],[1],[0.5833333333333334],vertical,"(890.0, 262.0)",0.8,0.543,1,11661.661,2,0.02,0.25
0,538,target,"[(1184, 792)]",[],[1],[0.5333333333333333],horizontal,"(390.0, 262.0)",0.45,0.491,1,11667.003,2,0.02,0.25
0,539,target,"[(1186, 807)]","[(1120, 861)]",[1],[0.3333333333333333],horizontal,"(390.0, 762.0)",,"('bar', 0.346)",0,11672.187,0,0.02,0.25
0,540,target,"[(1141, 855)]",[],[1],[0.6833333333333333],horizontal,"(390.0, 262.0)",1.25,0.641,1,11675.001,1,0.02,0.25
0,541,target,"[(1165, 789)]",[],[1],[0.6166666666666667],horizontal,"(390.0, 762.0)",0.533333333,0.57,1,11680.615,1,0.02,0.25
0,542,target,"[(1172, 798)]",[],[1],[0.85],horizontal,"(890.0, 762.0)",0.433333333,nan,0,11685.325,0,0.02,0.25
0,543,target,"[(1145, 790)]",[],[1],[0.5333333333333333],vertical,"(390.0, 262.0)",0.466666667,0.492,1,11689.957,1,0.02,0.25
0,544,target,"[(1167, 794)]",[],[1],[0.5333333333333333],horizontal,"(390.0, 262.0)",0.933333333,0.485,1,11694.4,1,0.02,0.25
0,545,target,"[(1160, 779)]",[],[1],[0.5333333333333333],vertical,"(890.0, 762.0)",0.966666667,0.493,1,11699.283,1,0,0.25
0,546,catch,"[(1161, 802)]",[],[1],[],horizontal,"(890.0, 762.0)",1.65,nan,1,11704.725,2,0,0.25
0,547,target,"[(1165, 810)]",[],[1],[0.55],vertical,"(890.0, 762.0)",1.15,0.513,1,11710.937,2,0,0.25
0,548,catch,"[(1160, 805)]",[],[1],[],horizontal,"(890.0, 762.0)",1.65,nan,1,11716.758,2,0,0.25
0,549,target,"[(1180, 790)]",[],[1],[0.55],horizontal,"(390.0, 762.0)",0.583333333,0.51,1,11722.325,2,0,0.25
0,550,catch,"[(1173, 796)]",[],[1],[],vertical,"(390.0, 762.0)",1.65,nan,1,11728.035,3,0,0.25
0,551,target,"[(1160, 769)]",[],[1],[0.5333333333333333],vertical,"(890.0, 262.0)",1.333333333,0.5,1,11734.468,3,0,0.25
0,552,target,"[(1165, 774)]",[],[1],[0.55],vertical,"(890.0, 762.0)",1.366666667,0.514,1,11740.758,3,0,0.25
0,553,target,"[(1169, 812)]",[],[1],[0.48333333333333334],vertical,"(390.0, 762.0)",1.45,0.447,1,11746.892,3,0,0.25
0,554,catch,"[(1176, 789)]",[],[1],[],horizontal,"(390.0, 762.0)",1.65,nan,1,11753.179,3,0,0.25
0,555,target,"[(1175, 797)]",[],[1],[0.5333333333333333],vertical,"(390.0, 262.0)",1,0.495,1,11758.991,3,0,0.25
0,556,target,"[(1163, 779)]",[],[1],[0.5833333333333334],horizontal,"(390.0, 262.0)",1.166666667,0.542,1,11764.954,3,0,0.25
0,557,catch,"[(1178, 774)]",[],[1],[],horizontal,"(390.0, 762.0)",1.65,nan,1,11770.96,3,0,0.25
0,558,catch,"[(1175, 803)]",[],[1],[],vertical,"(390.0, 262.0)",1.65,nan,1,11776.575,3,0,0.25
0,559,target,"[(1160, 793)]",[],[1],[0.55],horizontal,"(890.0, 262.0)",1.016666667,0.503,1,11782.99,3,0,0.25
0,560,target,"[(1126, 797)]",[],[1],[0.5833333333333334],vertical,"(390.0, 262.0)",0.983333333,0.542,1,11789.123,3,0,0.25
0,561,catch,"[(1133, 782)]",[],[1],[],vertical,"(390.0, 762.0)",1.65,nan,1,11795.183,3,0,0.25
0,562,target,"[(1158, 810)]",[],[1],[0.85],vertical,"(390.0, 762.0)",1.25,nan,0,11801.16,0,0,0.25
0,563,target,"[(1150, 801)]",[],[1],[0.65],horizontal,"(390.0, 762.0)",0.833333333,0.61,1,11806.025,1,0,0.25
0,564,target,"[(1158, 790)]",[],[1],[0.5333333333333333],horizontal,"(390.0, 762.0)",0.416666667,0.498,1,11810.955,1,0,0.25
0,565,target,"[(1160, 795)]",[],[1],[],vertical,"(890.0, 762.0)",,"('cti', 1.205)",0,11815.485,0,0.02,0.25
0,566,target,"[(1131, 795)]",[],[1],[0.6833333333333333],vertical,"(390.0, 762.0)",0.733333333,0.639,1,11820.026,1,0.02,0.25
0,567,target,"[(1164, 800)]",[],[1],[0.6333333333333333],vertical,"(890.0, 762.0)",0.366666667,0.589,1,11824.819,1,0.02,0.25
0,568,catch,"[(1174, 796)]",[],[1],[],horizontal,"(890.0, 262.0)",1.65,nan,1,11829.253,1,0.02,0.25
0,569,catch,"[(1162, 782)]",[],[1],[],vertical,"(890.0, 762.0)",1.65,nan,1,11834.448,2,0.02,0.25
0,570,target,"[(1166, 797)]",[],[1],[0.4166666666666667],horizontal,"(390.0, 262.0)",1.466666667,0.375,1,11839.815,2,0.02,0.25
0,571,catch,"[(1167, 791)]",[],[1],[],vertical,"(390.0, 762.0)",1.65,nan,1,11845.625,2,0.02,0.25
0,572,catch,"[(1135, 827)]",[],[1],[],vertical,"(390.0, 262.0)",1.65,nan,1,11851.574,2,0.02,0.25
0,573,target,"[(1160, 808)]",[],[1],[0.5333333333333333],horizontal,"(890.0, 262.0)",1,0.491,1,11857.808,3,0.02,0.25
0,574,target,"[(1164, 811)]",[],[1],[0.5666666666666667],horizontal,"(890.0, 262.0)",0.4,0.518,1,11863.903,3,0.02,0.25
0,575,target,"[(1171, 796)]",[],[1],[0.85],vertical,"(390.0, 762.0)",1.333333333,nan,0,11868.999,0,0.02,0.25
0,576,catch,"[(1140, 795)]",[],[1],[],horizontal,"(390.0, 762.0)",1.65,nan,1,11873.793,1,0.02,0.25
0,577,target,"[(1160, 816)]",[],[1],[0.5166666666666666],horizontal,"(890.0, 762.0)",0.433333333,0.477,1,11879,1,0.02,0.25
0,578,target,"[(1167, 777)]",[],[1],[0.6333333333333333],vertical,"(890.0, 762.0)",1.183333333,0.591,1,11883.158,1,0.02,0.25
0,579,target,"[(1175, 788)]",[],[1],[0.6333333333333333],vertical,"(390.0, 762.0)",0.9,0.584,1,11888.491,2,0.02,0.25
0,580,target,"[(1162, 798)]",[],[1],[0.43333333333333335],horizontal,"(890.0, 262.0)",1.35,0.388,1,11893.595,2,0.02,0.25
0,581,catch,"[(1169, 811)]",[],[1],[],vertical,"(890.0, 762.0)",1.65,nan,1,11899.642,2,0.02,0.25
0,582,catch,"[(1162, 804)]",[],[1],[],horizontal,"(390.0, 262.0)",1.65,nan,1,11905.414,2,0.02,0.25
0,583,target,"[(1160, 799)]",[],[1],[0.5333333333333333],horizontal,"(890.0, 262.0)",0.85,0.497,1,11911.509,3,0.02,0.25
0,584,target,"[(1161, 797)]",[],[1],[0.5],horizontal,"(390.0, 762.0)",1.416666667,0.457,1,11917.143,3,0.02,0.25
0,585,target,"[(1171, 794)]",[],[1],[0.5333333333333333],vertical,"(890.0, 762.0)",1.416666667,0.494,1,11923.243,3,0.02,0.25
0,586,target,"[(1161, 805)]",[],[1],[0.6166666666666667],vertical,"(890.0, 762.0)",1.316666667,0.571,1,11929.325,3,0.02,0.25
0,587,target,"[(1160, 796)]",[],[1],[0.6333333333333333],vertical,"(390.0, 262.0)",0.9,0.59,1,11935.343,3,0.02,0.25
0,588,target,"[(1175, 793)]",[],[1],[0.55],horizontal,"(390.0, 762.0)",0.9,0.506,1,11941.062,3,0.02,0.25
0,589,target,"[(1170, 801)]",[],[1],[0.55],horizontal,"(390.0, 262.0)",1.033333333,0.506,1,11947.208,3,0.02,0.25
0,590,target,"[(1162, 790)]",[],[1],[0.85],horizontal,"(390.0, 762.0)",0.416666667,nan,0,11953.368,0,0.02,0.25
0,591,target,"[(1143, 804)]",[],[1],[0.5166666666666666],vertical,"(390.0, 762.0)",1.483333333,0.474,1,11957.36,1,0.02,0.25
0,592,target,"[(1160, 816)]",[],[1],[0.55],horizontal,"(890.0, 762.0)",0.75,0.509,1,11963.159,1,0.02,0.25
0,593,target,"[(1161, 788)]",[],[1],[0.5333333333333333],horizontal,"(890.0, 762.0)",0.366666667,0.493,1,11968.817,1,0.02,0.25
0,594,target,"[(1160, 792)]",[],[1],[0.5833333333333334],horizontal,"(390.0, 262.0)",1.266666667,0.536,1,11973.387,2,0.02,0.25
0,595,target,"[(1142, 774)]",[],[1],[0.65],horizontal,"(390.0, 762.0)",0.65,0.607,1,11978.935,2,0.02,0.25
0,596,target,"[(1162, 811)]",[],[1],[0.55],horizontal,"(390.0, 262.0)",1.1,0.508,1,11984.456,2,0.02,0.25
0,597,target,"[(1174, 812)]",[],[1],[0.8166666666666667],horizontal,"(890.0, 762.0)",1.2,0.773,1,11990.143,2,0.02,0.25
0,598,catch,"[(1156, 787)]",[],[1],[],vertical,"(390.0, 262.0)",1.65,nan,1,11996.043,3,0.02,0.25
0,599,target,"[(1168, 787)]",[],[1],[0.31666666666666665],horizontal,"(890.0, 262.0)",1.416666667,0.288,1,12002.542,3,0.02,0.25
0,600,catch,"[(1160, 781)]",[],[1],[],vertical,"(890.0, 262.0)",1.65,nan,1,12008.67,3,0.02,0.25
0,601,target,"[(1175, 792)]",[],[1],[0.55],vertical,"(390.0, 262.0)",0.583333333,0.513,1,12014.607,3,0.02,0.25
0,602,catch,"[(1161, 795)]",[],[1],[],horizontal,"(890.0, 262.0)",1.65,nan,1,12019.926,3,0.02,0.25
0,603,target,"[(1169, 799)]",[],[1],"[0.85, 0.85]",vertical,"(890.0, 762.0)",1.166666667,"0.799,nan",0,12025.917,0,0.02,0.25
0,604,target,"[(1142, 798)]",[],[1],[0.5833333333333334],horizontal,"(390.0, 262.0)",0.45,0.542,1,12030.992,1,0.02,0.25
0,605,target,"[(1129, 787)]",[],[1],[0.5833333333333334],vertical,"(890.0, 262.0)",1.183333333,0.547,1,12035.72,1,0.02,0.25
0,606,target,"[(1175, 800)]",[],[1],[0.6666666666666666],horizontal,"(890.0, 262.0)",1.166666667,0.623,1,12041.027,1,0.02,0.25
0,607,target,"[(1159, 775)]",[],[1],[0.5166666666666666],horizontal,"(890.0, 262.0)",0.983333333,0.483,1,12046.526,2,0.02,0.25
0,608,catch,"[(1159, 774)]",[],[1],[],horizontal,"(390.0, 262.0)",1.65,nan,1,12052.043,2,0.02,0.25
0,609,target,"[(1175, 786)]",[],[1],[0.5666666666666667],vertical,"(390.0, 262.0)",0.633333333,0.524,1,12057.227,2,0.02,0.25
0,610,catch,"[(1160, 807)]",[],[1],[],vertical,"(390.0, 762.0)",1.65,nan,1,12062.492,2,0.02,0.25
0,611,target,"[(1157, 795)]",[],[1],[0.8],vertical,"(390.0, 762.0)",1.266666667,0.753,1,12068.36,3,0.02,0.25
0,612,target,"[(1173, 791)]",[],[1],[0.5],horizontal,"(890.0, 762.0)",1.366666667,0.46,1,12074.815,3,0.02,0.25
0,613,target,"[(1161, 797)]",[],[1],[0.5666666666666667],vertical,"(390.0, 762.0)",1.433333333,0.537,1,12081.21,3,0.02,0.25
0,614,target,"[(1164, 804)]",[],[1],[0.75],vertical,"(890.0, 762.0)",0.883333333,0.701,1,12087.277,3,0.02,0.25
0,615,target,"[(1158, 800)]",[],[1],[0.6166666666666667],horizontal,"(390.0, 762.0)",1.383333333,0.573,1,12093.576,3,0,0.25
0,616,target,"[(1162, 793)]",[],[1],[0.6666666666666666],horizontal,"(890.0, 262.0)",1.25,0.622,1,12099.793,3,0,0.25
0,617,target,"[(1138, 795)]",[],[1],[0.5333333333333333],horizontal,"(390.0, 262.0)",1.533333333,0.491,1,12105.937,3,0,0.25
0,618,catch,"[(1172, 806)]",[],[1],[],vertical,"(390.0, 762.0)",1.65,nan,1,12112.326,3,0,0.25
0,619,target,"[(1131, 827)]",[],[1],[],horizontal,"(390.0, 762.0)",,"('fix', 0.512)",0,12118.309,0,0,0.25
0,620,catch,"[(1131, 836)]",[],[1],[],horizontal,"(390.0, 262.0)",1.65,nan,1,12121.773,1,0,0.25
0,621,catch,"[(1154, 793)]",[],[1],[],vertical,"(390.0, 262.0)",1.65,nan,1,12138.026,1,0,0.25
0,622,catch,"[(1142, 827)]",[],[1],[],vertical,"(890.0, 762.0)",1.65,nan,1,12143.567,1,0,0.25
0,623,target,"[(1156, 785)]",[],[1],[0.7],horizontal,"(390.0, 262.0)",1.016666667,0.661,1,12148.848,2,0,0.25
0,624,target,"[(1166, 805)]",[],[1],[0.7666666666666666],vertical,"(390.0, 762.0)",0.4,0.716,1,12154.991,2,0,0.25
0,625,target,"[(1149, 796)]",[],[1],[0.6166666666666667],vertical,"(890.0, 262.0)",0.866666667,0.568,1,12160.244,2,0,0.25
0,626,target,"[(1152, 818)]",[],[1],[0.65],horizontal,"(390.0, 262.0)",0.766666667,0.604,1,12166.052,2,0,0.25
0,627,target,"[(1146, 813)]",[],[1],[0.85],vertical,"(890.0, 762.0)",1.033333333,nan,0,12171.294,0,0,0.25
0,628,catch,"[(1136, 790)]",[],[1],[],vertical,"(390.0, 762.0)",1.65,nan,1,12176.227,1,0,0.25
0,629,target,"[(1160, 788)]",[],[1],[0.5833333333333334],horizontal,"(390.0, 762.0)",1.083333333,0.539,1,12181.637,1,0,0.25
0,630,target,"[(1156, 806)]",[],[1],[0.6833333333333333],vertical,"(890.0, 262.0)",1.066666667,0.635,1,12186.66,1,0,0.25
0,631,target,"[(1180, 800)]",[],[1],[0.6],vertical,"(390.0, 262.0)",0.916666667,0.56,1,12191.604,2,0,0.25
0,632,target,"[(1160, 816)]",[],[1],[0.5833333333333334],horizontal,"(890.0, 762.0)",1.5,0.538,1,12197.511,2,0,0.25
0,633,target,"[(1165, 815)]",[],[1],[0.7333333333333333],horizontal,"(390.0, 262.0)",1.066666667,0.687,1,12203.408,2,0,0.25
0,634,target,"[(1160, 806)]",[],[1],[0.6666666666666666],vertical,"(890.0, 762.0)",1.233333333,0.622,1,12209.144,2,0,0.25
0,635,target,"[(1174, 803)]",[],[1],[0.7166666666666667],horizontal,"(890.0, 762.0)",1.2,0.677,1,12215.321,3,0,0.25
0,636,catch,"[(1175, 800)]",[],[1],[],vertical,"(890.0, 262.0)",1.65,nan,1,12221.61,3,0,0.25
0,637,target,"[(1167, 794)]",[],[1],[0.75],horizontal,"(390.0, 762.0)",0.45,0.701,1,12227.693,3,0,0.25
0,638,target,"[(1162, 778)]",[],[1],[0.6833333333333333],vertical,"(390.0, 262.0)",0.616666667,0.641,1,12233.36,3,0,0.25
0,639,target,"[(1160, 772)]",[],[1],[0.7166666666666667],horizontal,"(890.0, 762.0)",0.583333333,0.672,1,12239.017,3,0,0.25
0,640,target,"[(1172, 800)]",[],[1],[0.5333333333333333],horizontal,"(890.0, 762.0)",0.8,0.497,1,12244.809,3,0,0.25
0,641,catch,"[(1181, 800)]",[],[1],[],horizontal,"(890.0, 262.0)",1.65,nan,1,12250.376,3,0,0.25
0,642,catch,"[(1160, 792)]",[],[1],[],vertical,"(890.0, 262.0)",1.65,nan,1,12256.66,3,0,0.25
0,643,target,"[(1166, 798)]",[],[1],[0.5166666666666666],horizontal,"(390.0, 262.0)",0.983333333,0.474,1,12262.975,3,0,0.25
0,644,catch,"[(1164, 796)]",[],[1],[],horizontal,"(890.0, 762.0)",1.65,nan,1,12268.925,3,0,0.25
0,645,catch,"[(1148, 826)]",[],[1],[],vertical,"(890.0, 262.0)",1.65,nan,1,12275.114,3,0,0.25
0,646,target,"[(1159, 807)]",[],[1],[0.5333333333333333],vertical,"(390.0, 262.0)",1,0.489,1,12281.426,3,0,0.25
0,647,target,"[(1159, 792)]",[],[1],[0.5],vertical,"(890.0, 762.0)",0.616666667,0.459,1,12287.044,3,0,0.25
0,648,target,"[(1160, 806)]",[],[1],[0.6166666666666667],vertical,"(890.0, 762.0)",0.866666667,0.575,1,12292.177,3,0,0.25
0,649,target,"[(1174, 798)]",[],[1],[0.85],horizontal,"(390.0, 762.0)",0.383333333,nan,0,12297.773,0,0,0.25
0,650,target,"[(1136, 798)]",[],[1],[0.5833333333333334],horizontal,"(390.0, 262.0)",1.233333333,0.553,1,12302.027,1,0,0.25
0,651,target,"[(1161, 805)]",[],[1],[0.6],horizontal,"(390.0, 762.0)",1.4,0.563,1,12307.313,1,0,0.25
0,652,target,"[(1178, 789)]",[],[1],[0.6166666666666667],vertical,"(390.0, 762.0)",0.733333333,0.573,1,12312.867,1,0,0.25
0,653,target,"[(1165, 796)]",[],[1],[0.6666666666666666],horizontal,"(890.0, 262.0)",0.583333333,0.623,1,12317.678,2,0,0.25
0,654,catch,"[(1160, 813)]",[],[1],[],vertical,"(890.0, 762.0)",1.65,nan,1,12322.719,2,0,0.25
0,655,target,"[(1161, 799)]",[],[1],[0.5666666666666667],horizontal,"(390.0, 762.0)",0.766666667,0.527,1,12327.971,2,0,0.25
0,656,catch,"[(1174, 788)]",[],[1],[],vertical,"(390.0, 762.0)",1.65,nan,1,12333.761,2,0,0.25
0,657,target,"[(1161, 787)]",[],[1],[0.75],vertical,"(390.0, 762.0)",1.166666667,0.705,1,12338.959,3,0,0.25
0,658,target,"[(1161, 793)]",[],[1],[0.6833333333333333],horizontal,"(390.0, 762.0)",1.266666667,0.635,1,12344.923,3,0,0.25
0,659,target,"[(1174, 831)]",[],[1],[0.4166666666666667],horizontal,"(890.0, 262.0)",1.416666667,0.378,1,12351.544,3,0,0.25
0,660,target,"[(1167, 806)]",[],[1],[0.6833333333333333],horizontal,"(890.0, 262.0)",0.4,0.635,1,12357.537,3,0,0.25
0,661,catch,"[(1160, 789)]",[],[1],[],vertical,"(890.0, 762.0)",1.65,nan,1,12362.685,3,0,0.25
0,662,catch,"[(1160, 796)]",[],[1],[],horizontal,"(390.0, 262.0)",1.65,nan,1,12368.543,3,0,0.25
0,663,target,"[(1157, 794)]",[],[1],[0.55],vertical,"(890.0, 262.0)",0.4,0.508,1,12374.526,3,0,0.25
0,664,target,"[(1175, 798)]",[],[1],[0.6666666666666666],horizontal,"(390.0, 262.0)",0.75,0.619,1,12379.707,3,0,0.25
0,665,target,"[(1167, 807)]",[],[1],[0.23333333333333334],horizontal,"(390.0, 762.0)",1.083333333,0.198,0,12385.503,0,0,0.25
0,666,target,"[(1155, 792)]",[],[1],[0.5166666666666666],vertical,"(890.0, 762.0)",0.7,0.473,1,12389.911,1,0,0.25
0,667,catch,"[(1159, 782)]",[],[1],[],horizontal,"(390.0, 762.0)",1.65,nan,1,12394.787,1,0,0.25
0,668,target,"[(1162, 799)]",[],[1],[0.6],vertical,"(890.0, 762.0)",1.416666667,0.56,1,12400.093,1,0,0.25
0,669,catch,"[(1167, 805)]",[],[1],[],horizontal,"(390.0, 262.0)",1.65,nan,1,12405.844,2,0,0.25
0,670,target,"[(1160, 786)]",[],[1],[0.5166666666666666],vertical,"(890.0, 262.0)",0.583333333,0.474,1,12411.345,2,0,0.25
0,671,catch,"[(1155, 783)]",[],[1],[],vertical,"(390.0, 262.0)",1.65,nan,1,12416.325,2,0,0.25
0,672,target,"[(1136, 803)]",[],[1],[0.6666666666666666],vertical,"(390.0, 762.0)",1,0.643,1,12422.043,2,0,0.25
0,673,catch,"[(1154, 814)]",[],[1],[],vertical,"(390.0, 762.0)",1.65,nan,1,12428.041,3,0,0.25
0,674,target,"[(1175, 794)]",[],[1],[0.65],vertical,"(890.0, 262.0)",0.7,0.61,1,12434.46,3,0,0.25
0,675,target,"[(1169, 791)]",[],[1],[0.55],horizontal,"(890.0, 262.0)",1.533333333,0.512,1,12439.777,3,0,0.25
0,676,target,"[(1174, 793)]",[],[1],[0.55],horizontal,"(390.0, 762.0)",0.7,0.511,1,12445.927,3,0,0.25
0,677,target,"[(1170, 794)]",[],[1],[0.6166666666666667],horizontal,"(390.0, 762.0)",1.066666667,0.573,1,12451.378,3,0,0.25
0,678,catch,"[(1164, 792)]",[],[1],[],horizontal,"(890.0, 262.0)",1.65,nan,1,12457.077,3,0,0.25
0,679,catch,"[(1147, 792)]",[],[1],[],horizontal,"(890.0, 262.0)",1.65,nan,1,12462.949,3,0,0.25
0,680,catch,"[(1158, 794)]",[],[1],[],vertical,"(890.0, 262.0)",1.65,nan,1,12469.077,3,0,0.25
0,681,catch,"[(1175, 790)]",[],[1],[],vertical,"(890.0, 762.0)",,"('cti', 1.563),nan",0,12474.857,0,0.02,0.25
0,682,target,"[(1111, 791)]",[],[1],[0.5833333333333334],vertical,"(890.0, 262.0)",0.683333333,0.542,1,12479.966,1,0.02,0.25
0,683,target,"[(1183, 802)]",[],[1],[0.6],horizontal,"(890.0, 262.0)",0.533333333,0.56,1,12485.027,1,0.02,0.25
0,684,target,"[(1161, 789)]",[],[1],[0.55],horizontal,"(890.0, 762.0)",0.983333333,0.509,1,12489.844,1,0.02,0.25
0,685,target,"[(1141, 797)]",[],[1],[0.5333333333333333],vertical,"(390.0, 262.0)",0.683333333,0.493,1,12494.798,2,0.02,0.25
0,686,target,"[(1165, 794)]",[],[1],[0.5],vertical,"(890.0, 762.0)",0.85,0.462,1,12500.119,2,0.02,0.25
0,687,target,"[(1142, 832)]",[],[1],[0.3],horizontal,"(890.0, 762.0)",1.416666667,0.264,1,12505.55,2,0.02,0.25
0,688,target,"[(1157, 791)]",[],[1],[0.4],horizontal,"(890.0, 262.0)",1.083333333,0.358,1,12511.495,2,0.02,0.25
0,689,catch,"[(1156, 791)]",[],[1],[],horizontal,"(890.0, 762.0)",1.65,nan,1,12516.791,3,0.02,0.25
0,690,target,"[(1159, 801)]",[],[1],[0.5166666666666666],horizontal,"(390.0, 762.0)",1.366666667,0.475,1,12522.947,3,0.02,0.25
0,691,catch,"[(1156, 778)]",[],[1],[],vertical,"(890.0, 762.0)",1.65,nan,1,12529.371,3,0.02,0.25
0,692,target,"[(1167, 787)]",[],[1],[0.55],horizontal,"(890.0, 762.0)",0.516666667,0.505,1,12535.563,3,0.02,0.25
0,693,target,"[(1160, 797)]",[],[1],[0.6],horizontal,"(890.0, 762.0)",1.316666667,0.553,1,12541.039,3,0.02,0.25
0,694,target,"[(1159, 785)]",[],[1],[0.5833333333333334],horizontal,"(390.0, 262.0)",1.35,0.539,1,12546.965,3,0.02,0.25
0,695,target,"[(1146, 802)]",[],[1],[0.6666666666666666],horizontal,"(890.0, 262.0)",1.2,0.624,1,12553.098,3,0.02,0.25
0,696,target,"[(1155, 799)]",[],[1],[0.5833333333333334],horizontal,"(890.0, 262.0)",0.933333333,0.538,1,12559.043,3,0.02,0.25
0,697,catch,"[(1160, 801)]",[],[1],[],horizontal,"(890.0, 262.0)",1.65,nan,1,12564.585,3,0.02,0.25
0,698,target,"[(1167, 803)]",[],[1],[0.26666666666666666],vertical,"(890.0, 762.0)",1.533333333,0.232,1,12570.186,3,0.02,0.25
0,699,target,"[(1157, 799)]",[],[1],[0.6666666666666666],horizontal,"(390.0, 262.0)",0.916666667,0.62,1,12576.578,3,0.02,0.25
0,700,catch,"[(1175, 794)]",[],[1],[],vertical,"(890.0, 262.0)",1.65,nan,1,12582.387,3,0.02,0.25
0,701,target,"[(1161, 788)]",[],[1],[0.5666666666666667],vertical,"(390.0, 762.0)",1.316666667,0.523,1,12588.163,3,0.02,0.25
0,702,catch,"[(1160, 781)]",[],[1],[],vertical,"(390.0, 262.0)",1.65,nan,1,12594.15,3,0.02,0.25
0,703,target,"[(1159, 814)]",[],[1],[0.5166666666666666],horizontal,"(390.0, 762.0)",0.916666667,0.48,1,12599.929,3,0.02,0.25
0,704,target,"[(1160, 794)]",[],[1],[0.5333333333333333],horizontal,"(890.0, 762.0)",1.383333333,0.49,1,12605.675,3,0.02,0.25
0,705,catch,"[(1160, 812)]",[],[1],[],vertical,"(890.0, 262.0)",1.65,nan,1,12612.095,3,0.02,0.25
0,706,target,"[(1164, 802)]",[],[1],[0.6],vertical,"(390.0, 762.0)",0.75,0.556,1,12617.871,3,0.02,0.25
0,707,target,"[(1157, 792)]",[],[1],[0.5333333333333333],vertical,"(890.0, 262.0)",0.833333333,0.497,1,12623.329,3,0.02,0.25
0,708,target,"[(1180, 778)]",[],[1],[0.5833333333333334],horizontal,"(390.0, 762.0)",1.033333333,0.54,1,12629.312,3,0.02,0.25
0,709,catch,"[(1165, 797)]",[],[1],[],horizontal,"(390.0, 262.0)",1.65,nan,1,12635.411,3,0.02,0.25
0,710,target,"[(1161, 799)]",[],[1],[0.4],vertical,"(890.0, 262.0)",1.483333333,0.36,1,12640.968,3,0.02,0.25
0,711,target,"[(1174, 790)]",[],[1],[0.5833333333333334],vertical,"(890.0, 762.0)",0.583333333,0.547,1,12647.179,3,0.02,0.25
0,712,target,"[(1154, 791)]",[],[1],[0.85],vertical,"(390.0, 762.0)",0.5,nan,0,12652.362,0,0.02,0.25
0,713,target,"[(1131, 787)]",[],[1],[0.6333333333333333],vertical,"(390.0, 262.0)",1.366666667,0.59,1,12656.745,1,0.02,0.25
0,714,catch,"[(1148, 797)]",[],[1],[],vertical,"(890.0, 762.0)",1.65,nan,1,12662.547,1,0.02,0.25
0,715,target,"[(1172, 815)]",[],[1],[0.5666666666666667],horizontal,"(890.0, 762.0)",0.416666667,0.531,1,12667.753,1,0.02,0.25
0,716,catch,"[(1155, 806)]",[],[1],[],vertical,"(890.0, 262.0)",1.65,nan,1,12672.296,2,0.02,0.25
0,717,target,"[(1158, 784)]",[],[1],[0.85],horizontal,"(390.0, 762.0)",0.383333333,nan,0,12677.984,0,0.02,0.25
0,718,target,"[(1142, 821)]",[],[1],[0.5],horizontal,"(390.0, 762.0)",1.483333333,0.458,1,12682.445,1,0.02,0.25
0,719,target,"[(1168, 807)]",[],[1],[0.5333333333333333],horizontal,"(390.0, 762.0)",0.75,0.49,1,12705.137,1,0.02,0.25
0,720,target,"[(1155, 812)]",[],[1],[0.6],horizontal,"(390.0, 762.0)",0.966666667,0.553,1,12710.373,1,0.02,0.25
0,721,target,"[(1132, 818)]",[],[1],[0.6],vertical,"(390.0, 762.0)",0.966666667,0.558,1,12715.596,2,0.02,0.25
0,722,target,"[(1160, 826)]",[],[1],[0.85],horizontal,"(890.0, 762.0)",0.9,nan,0,12721.161,0,0.02,0.25
0,723,target,"[(1121, 807)]",[],[1],[0.45],vertical,"(390.0, 762.0)",0.766666667,0.41,1,12725.644,1,0.02,0.25
0,724,target,"[(1141, 804)]",[],[1],[0.55],vertical,"(390.0, 762.0)",0.466666667,0.503,1,12730.762,1,0.02,0.25
0,725,target,"[(1111, 832)]",[],[1],[0.5666666666666667],vertical,"(390.0, 762.0)",1.5,0.52,1,12735.195,1,0.02,0.25
0,726,target,"[(1158, 808)]",[],[1],[0.5333333333333333],horizontal,"(890.0, 262.0)",0.35,0.491,1,12741.395,2,0.02,0.25
0,727,catch,"[(1159, 810)]",[],[1],[],vertical,"(390.0, 262.0)",1.65,nan,1,12746.804,2,0.02,0.25
0,728,target,"[(1161, 797)]","[(1109, 855)]",[1],[0.31666666666666665],horizontal,"(390.0, 762.0)",,"('bar', 0.326)",0,12752.595,0,0.02,0.25
0,729,catch,"[(1157, 818)]",[],[1],[],vertical,"(390.0, 762.0)",1.65,nan,1,12755.527,1,0.02,0.25
0,730,target,"[(1172, 823)]",[],[1],[0.5333333333333333],horizontal,"(390.0, 262.0)",1.516666667,0.492,1,12761.005,1,0.02,0.25
0,731,target,"[(1159, 803)]",[],[1],[0.6833333333333333],horizontal,"(890.0, 762.0)",0.916666667,0.638,1,12766.408,1,0,0.25
0,732,target,"[(1160, 794)]",[],[1],[0.6],horizontal,"(890.0, 762.0)",1.166666667,0.558,1,12771.227,2,0,0.25
0,733,target,"[(1159, 801)]",[],[1],[0.5333333333333333],vertical,"(390.0, 262.0)",0.983333333,0.488,1,12776.995,2,0,0.25
0,734,target,"[(1166, 788)]",[],[1],[0.48333333333333334],horizontal,"(390.0, 762.0)",1.483333333,0.439,1,12782.395,2,0,0.25
0,735,catch,"[(1145, 794)]",[],[1],[],vertical,"(390.0, 262.0)",1.65,nan,1,12788.78,2,0,0.25
0,736,target,"[(1172, 807)]",[],[1],[0.6],horizontal,"(890.0, 262.0)",1.366666667,0.558,1,12794.511,3,0,0.25
0,737,target,"[(1137, 795)]",[],[1],[0.6666666666666666],vertical,"(890.0, 262.0)",0.35,0.616,1,12800.871,3,0,0.25
0,738,target,"[(1161, 800)]",[],[1],[0.6333333333333333],horizontal,"(390.0, 762.0)",0.516666667,0.586,1,12806.02,3,0,0.25
0,739,target,"[(1161, 799)]",[],[1],[0.85],horizontal,"(890.0, 262.0)",1.35,"('cti', 1.343),nan",0,12811.561,0,0.02,0.25
0,740,catch,"[(1157, 799)]",[],[1],[],vertical,"(890.0, 262.0)",1.65,nan,1,12817.063,1,0.02,0.25
0,741,catch,"[(1160, 820)]",[],[1],[],horizontal,"(390.0, 262.0)",1.65,nan,1,12822.312,1,0.02,0.25
0,742,target,"[(1140, 794)]",[],[1],[0.5833333333333334],horizontal,"(890.0, 762.0)",1.116666667,0.539,1,12827.396,1,0.02,0.25
0,743,catch,"[(1164, 798)]",[],[1],[],vertical,"(390.0, 762.0)",1.65,nan,1,12832.78,2,0.02,0.25
0,744,target,"[(1162, 825)]",[],[1],[0.5666666666666667],vertical,"(390.0, 262.0)",0.933333333,0.533,1,12838.28,2,0.02,0.25
0,745,catch,"[(1165, 817)]",[],[1],[],vertical,"(890.0, 262.0)",1.65,nan,1,12843.358,2,0.02,0.25
0,746,target,"[(1164, 806)]",[],[1],[0.6],vertical,"(390.0, 262.0)",1.3,0.558,1,12848.89,2,0.02,0.25
0,747,catch,"[(1170, 818)]",[],[1],[],vertical,"(390.0, 762.0)",1.65,nan,1,12854.646,3,0.02,0.25
0,748,target,"[(1165, 797)]",[],[1],[0.5166666666666666],horizontal,"(390.0, 262.0)",1.1,0.476,1,12861.244,3,0.02,0.25
0,749,target,"[(1163, 772)]",[],[1],[0.5166666666666666],vertical,"(890.0, 262.0)",0.916666667,0.472,1,12866.819,3,0.02,0.25
0,750,target,"[(1172, 797)]",[],[1],[0.4666666666666667],horizontal,"(390.0, 262.0)",0.65,0.433,1,12872.395,3,0.02,0.25
0,751,catch,"[(1168, 779)]",[],[1],[],horizontal,"(890.0, 262.0)",1.65,nan,1,12878.069,3,0.02,0.25
0,752,target,"[(1170, 794)]",[],[1],[0.5333333333333333],horizontal,"(390.0, 262.0)",0.716666667,0.49,1,12883.984,3,0.02,0.25
0,753,target,"[(1136, 798)]",[],[1],[0.48333333333333334],horizontal,"(390.0, 262.0)",1.383333333,0.44,1,12889.822,3,0.02,0.25
0,754,catch,"[(1161, 798)]",[],[1],[],vertical,"(390.0, 762.0)",1.65,nan,1,12896.012,3,0.02,0.25
0,755,catch,"[(1159, 811)]",[],[1],[],vertical,"(390.0, 762.0)",1.65,nan,1,12901.78,3,0.02,0.25
0,756,target,"[(1174, 804)]",[],[1],[0.6833333333333333],horizontal,"(390.0, 762.0)",1.45,0.64,1,12907.846,3,0.02,0.25
0,757,target,"[(1175, 797)]",[],[1],[0.85],vertical,"(890.0, 762.0)",0.816666667,nan,0,12914.08,0,0.02,0.25
0,758,target,"[(1147, 801)]",[],[1],[0.6833333333333333],vertical,"(890.0, 762.0)",0.8,0.637,1,12918.962,1,0.02,0.25
0,759,target,"[(1137, 798)]",[],[1],[0.7833333333333333],horizontal,"(890.0, 762.0)",1.183333333,0.734,1,12923.813,1,0.02,0.25
0,760,target,"[(1131, 803)]",[],[1],[0.55],vertical,"(890.0, 762.0)",0.683333333,0.51,1,12928.979,1,0.02,0.25
0,761,target,"[(1166, 811)]",[],[1],[0.7166666666666667],horizontal,"(890.0, 262.0)",0.7,0.68,1,12933.496,2,0.02,0.25
0,762,target,"[(1166, 803)]",[],[1],[0.6166666666666667],horizontal,"(390.0, 762.0)",0.716666667,0.579,1,12939.229,2,0.02,0.25
0,763,target,"[(1156, 799)]",[],[1],[0.55],vertical,"(890.0, 262.0)",1.05,0.508,1,12944.496,2,0.02,0.25
0,764,target,"[(1166, 802)]",[],[1],[0.6333333333333333],horizontal,"(890.0, 262.0)",0.483333333,0.593,1,12949.928,2,0.02,0.25
0,765,target,"[(1161, 839)]",[],[1],[0.65],vertical,"(390.0, 262.0)",1.366666667,0.609,1,12954.774,3,0.02,0.25
0,766,target,"[(1144, 793)]",[],[1],[0.3],vertical,"(890.0, 762.0)",1.183333333,0.263,1,12961.23,3,0.02,0.25
0,767,target,"[(1157, 803)]",[],[1],[0.6166666666666667],vertical,"(890.0, 762.0)",0.416666667,0.578,1,12967.247,3,0.02,0.25
0,768,target,"[(1141, 771)]",[],[1],[0.85],horizontal,"(390.0, 262.0)",0.483333333,nan,0,12972.163,0,0.02,0.25
0,769,target,"[(1129, 800)]",[],[1],[0.5666666666666667],vertical,"(390.0, 262.0)",1.133333333,0.521,1,12976.38,1,0.02,0.25
0,770,target,"[(1159, 813)]",[],[1],[0.85],vertical,"(390.0, 262.0)",0.933333333,nan,0,12982.119,0,0.02,0.25
0,771,target,"[(1131, 810)]",[],[1],[0.85],vertical,"(390.0, 262.0)",0.366666667,nan,0,12986.981,0,0.02,0.25
0,772,target,"[(1124, 798)]",[],[1],[0.85],horizontal,"(390.0, 262.0)",0.383333333,nan,0,13155.446,0,0.02,0.25
0,773,catch,"[(1131, 794)]",[],[1],[],horizontal,"(390.0, 762.0)",1.65,nan,1,13160.131,1,0.02,0.25
0,774,target,"[(1181, 810)]",[],[1],[0.55],vertical,"(390.0, 262.0)",1.3,0.509,1,13165.663,1,0.02,0.25
0,775,target,"[(1125, 856)]",[],[1],[0.6666666666666666],vertical,"(390.0, 262.0)",1.25,0.618,1,13171.312,1,0.02,0.25
0,776,target,"[(1156, 799)]",[],[1],[0.7666666666666666],vertical,"(390.0, 762.0)",0.383333333,0.722,1,13177.597,2,0.02,0.25
0,777,target,"[(1171, 786)]",[],[1],[0.7333333333333333],horizontal,"(390.0, 262.0)",1.033333333,0.685,1,13182.738,2,0.02,0.25
0,778,target,"[(1159, 808)]",[],[1],[0.36666666666666664],vertical,"(890.0, 762.0)",1.366666667,0.326,1,13188.827,2,0.02,0.25
0,779,target,"[(1161, 792)]",[],[1],[0.6],horizontal,"(890.0, 262.0)",1.183333333,0.55,1,13194.629,2,0.02,0.25
0,780,catch,"[(1155, 789)]",[],[1],[],horizontal,"(890.0, 762.0)",1.65,nan,1,13200.297,3,0.02,0.25
0,781,target,"[(1132, 794)]",[],[1],[0.7333333333333333],vertical,"(390.0, 262.0)",1.1,0.687,1,13206.281,3,0.02,0.25
0,782,target,"[(1156, 782)]",[],[1],[0.55],horizontal,"(390.0, 262.0)",0.833333333,0.508,1,13212.63,3,0.02,0.25
0,783,target,"[(1148, 796)]",[],[1],[0.85],vertical,"(890.0, 262.0)",0.516666667,nan,0,13218.448,0,0.02,0.25
0,784,target,"[(1150, 793)]",[],[1],[0.5333333333333333],vertical,"(890.0, 262.0)",0.966666667,0.492,1,13222.797,1,0.02,0.25
0,785,catch,"[(1160, 770)]",[],[1],[],vertical,"(390.0, 762.0)",1.65,nan,1,13228.306,1,0.02,0.25
0,786,catch,"[(1132, 801)]",[],[1],[0.03333333333333333],horizontal,"(890.0, 762.0)",1.65,"0.019,nan",0,13233.498,0,0.04,0.25
0,787,target,"[(1144, 798)]",[],[1],[0.55],vertical,"(390.0, 762.0)",1.05,0.512,1,13238.864,1,0.04,0.25
0,788,target,"[(1131, 795)]",[],[1],[0.5666666666666667],horizontal,"(390.0, 262.0)",1.283333333,0.522,1,13243.799,1,0.04,0.25
0,789,catch,"[(1132, 804)]",[],[1],[],vertical,"(890.0, 762.0)",1.65,nan,1,13249.298,1,0.02,0.25
0,790,catch,"[(1159, 799)]",[],[1],[],vertical,"(390.0, 762.0)",1.65,nan,1,13254.814,2,0.02,0.25
0,791,target,"[(1175, 807)]",[],[1],[0.55],vertical,"(390.0, 262.0)",0.533333333,0.507,1,13260.715,2,0.02,0.25
0,792,target,"[(1157, 782)]",[],[1],[0.5],horizontal,"(390.0, 762.0)",0.65,0.462,1,13265.395,2,0.02,0.25
0,793,catch,"[(1190, 778)]",[],[1],[],horizontal,"(390.0, 262.0)",1.65,nan,1,13271.147,2,0.02,0.25
0,794,catch,"[(1180, 773)]",[],[1],[],horizontal,"(890.0, 762.0)",1.65,nan,1,13276.414,3,0.02,0.25
0,795,target,"[(1135, 791)]",[],[1],[0.5333333333333333],vertical,"(890.0, 762.0)",1.016666667,0.49,1,13282.43,3,0.02,0.25
0,796,target,"[(1131, 783)]",[],[1],[0.6166666666666667],vertical,"(890.0, 262.0)",0.433333333,0.571,1,13287.88,3,0.02,0.25
0,797,target,"[(1152, 800)]",[],[1],[0.5833333333333334],horizontal,"(390.0, 762.0)",0.683333333,0.541,1,13293.264,3,0.02,0.25
0,798,target,"[(1159, 792)]",[],[1],[0.6333333333333333],horizontal,"(390.0, 262.0)",0.916666667,0.587,1,13298.682,3,0.02,0.25
0,799,catch,"[(1154, 794)]",[],[1],[],horizontal,"(390.0, 762.0)",1.65,nan,1,13304.632,3,0.02,0.25
0,800,catch,"[(1177, 783)]",[],[1],[],vertical,"(890.0, 262.0)",1.65,nan,1,13310.397,3,0.02,0.25
0,801,target,"[(1155, 802)]",[],[1],[0.6],vertical,"(890.0, 262.0)",0.95,0.554,1,13316.193,3,0.02,0.25
0,802,target,"[(1150, 812)]",[],[1],[0.5833333333333334],vertical,"(390.0, 262.0)",0.5,0.545,1,13321.966,3,0.02,0.25
0,803,target,"[(1157, 787)]",[],[1],[0.85],vertical,"(390.0, 762.0)",0.516666667,nan,0,13327.003,0,0.02,0.25
0,804,target,"[(1113, 788)]",[],[1],[0.8166666666666667],horizontal,"(890.0, 762.0)",0.5,0.77,1,13331.214,1,0.02,0.25
0,805,catch,"[(1135, 790)]",[],[1],[],horizontal,"(890.0, 262.0)",1.65,nan,1,13335.981,1,0.02,0.25
0,806,target,"[(1134, 782)]",[],[1],[0.31666666666666665],horizontal,"(890.0, 262.0)",1.516666667,0.28,1,13340.765,1,0.02,0.25
0,807,target,"[(1162, 797)]",[],[1],[0.5333333333333333],horizontal,"(390.0, 762.0)",1,0.488,1,13346.481,2,0.02,0.25
0,808,target,"[(1175, 794)]",[],[1],[0.75],vertical,"(890.0, 762.0)",0.566666667,0.702,1,13351.874,2,0.02,0.25
0,809,target,"[(1175, 786)]",[],[1],[0.6666666666666666],vertical,"(890.0, 262.0)",1.116666667,0.62,1,13357.343,2,0.02,0.25
0,810,target,"[(1160, 783)]",[],[1],[0.6833333333333333],horizontal,"(890.0, 762.0)",0.6,0.635,1,13363.017,2,0.02,0.25
0,811,target,"[(1155, 788)]",[],[1],[0.5333333333333333],vertical,"(390.0, 762.0)",1.316666667,0.492,1,13368.444,3,0.02,0.25
0,812,catch,"[(1179, 792)]",[],[1],[],horizontal,"(390.0, 762.0)",1.65,nan,1,13374.885,3,0.02,0.25
0,813,target,"[(1159, 794)]",[],[1],[0.65],horizontal,"(890.0, 762.0)",1.066666667,0.604,1,13380.849,3,0.02,0.25
0,814,target,"[(1181, 808)]",[],[1],[0.5333333333333333],horizontal,"(890.0, 262.0)",0.366666667,0.492,1,13387.051,3,0.02,0.25
0,815,target,"[(1160, 782)]",[],[1],[0.6],vertical,"(890.0, 762.0)",0.75,0.553,1,13392.132,3,0.02,0.25
0,816,catch,"[(1159, 795)]",[],[1],[],horizontal,"(890.0, 762.0)",1.65,nan,1,13397.84,3,0.02,0.25
0,817,target,"[(1160, 798)]",[],[1],[0.5333333333333333],vertical,"(890.0, 262.0)",0.4,0.486,1,13404.175,3,0.02,0.25
0,818,target,"[(1159, 796)]",[],[1],[0.6166666666666667],vertical,"(890.0, 762.0)",0.65,0.576,1,13409.215,3,0.02,0.25
0,819,catch,"[(1161, 790)]",[],[1],[],horizontal,"(890.0, 762.0)",1.65,nan,1,13414.565,3,0.02,0.25
0,820,target,"[(1175, 809)]",[],[1],[0.7166666666666667],horizontal,"(890.0, 262.0)",1.2,0.668,1,13420.128,3,0.02,0.25
0,821,target,"[(1158, 776)]",[],[1],[0.5833333333333334],horizontal,"(390.0, 262.0)",0.683333333,0.546,1,13426.383,3,0.02,0.25
0,822,target,"[(1132, 790)]",[],[1],[0.7666666666666666],horizontal,"(890.0, 262.0)",1.116666667,0.715,1,13431.961,3,0.02,0.25
0,823,target,"[(1154, 776)]",[],[1],[0.45],vertical,"(890.0, 762.0)",1.45,0.412,1,13437.814,3,0.02,0.25
0,824,target,"[(1165, 788)]",[],[1],[0.36666666666666664],vertical,"(390.0, 762.0)",1.433333333,0.328,1,13443.961,3,0.02,0.25
0,825,target,"[(1131, 793)]",[],[1],[0.75],horizontal,"(890.0, 762.0)",0.783333333,0.704,1,13450.448,3,0.02,0.25
0,826,target,"[(1131, 769)]",[],[1],[0.65],horizontal,"(890.0, 762.0)",0.916666667,0.606,1,13456.24,3,0.02,0.25
0,827,target,"[(1175, 786)]",[],[1],[0.5166666666666666],vertical,"(890.0, 762.0)",0.45,0.476,1,13462.152,3,0.02,0.25
0,828,target,"[(1132, 787)]",[],[1],[0.5666666666666667],vertical,"(390.0, 762.0)",0.95,0.525,1,13466.901,3,0.02,0.25
0,829,target,"[(1156, 798)]",[],[1],[0.55],vertical,"(390.0, 762.0)",0.6,0.508,1,13472.351,3,0.02,0.25
0,830,target,"[(1144, 792)]",[],[1],[0.6333333333333333],vertical,"(890.0, 262.0)",0.933333333,0.593,1,13477.977,3,0.02,0.25
0,831,target,"[(1164, 787)]",[],[1],[0.55],vertical,"(890.0, 262.0)",1.033333333,0.507,1,13484.153,3,0.02,0.25
0,832,target,"[(1144, 802)]",[],[1],[0.6833333333333333],horizontal,"(890.0, 262.0)",1.166666667,0.635,1,13490.037,3,0.02,0.25
0,833,target,"[(1151, 778)]",[],[1],[0.36666666666666664],horizontal,"(390.0, 762.0)",1.483333333,0.329,1,13495.928,3,0.02,0.25
0,834,target,"[(1158, 800)]",[],[1],[0.5833333333333334],vertical,"(890.0, 762.0)",1.283333333,0.561,1,13502.03,3,0.02,0.25
0,835,target,"[(1159, 779)]",[],[1],[0.6],horizontal,"(890.0, 762.0)",0.933333333,0.557,1,13508.374,3,0.02,0.25
0,836,target,"[(1162, 795)]",[],[1],[0.5],vertical,"(890.0, 262.0)",1.283333333,0.456,1,13514.163,3,0,0.25
0,837,target,"[(1175, 797)]",[],[1],[0.55],horizontal,"(390.0, 762.0)",1.333333333,0.518,1,13520.015,3,0,0.25
0,838,target,"[(1149, 778)]",[],[1],[0.21666666666666667],vertical,"(390.0, 762.0)",1.35,0.183,0,13525.766,0,0,0.25
0,839,target,"[(1130, 791)]",[],[1],[0.7],horizontal,"(390.0, 262.0)",1.483333333,0.656,1,13530.707,1,0,0.25
0,840,target,"[(1158, 808)]",[],[1],[0.5666666666666667],vertical,"(890.0, 262.0)",0.666666667,0.519,1,13536.815,1,0,0.25
0,841,target,"[(1137, 800)]",[],[1],[0.3833333333333333],horizontal,"(390.0, 262.0)",1.516666667,0.345,1,13541.291,1,0,0.25
0,842,catch,"[(1151, 796)]",[],[1],[],vertical,"(890.0, 762.0)",1.65,nan,1,13546.617,2,0,0.25
0,843,catch,"[(1156, 802)]",[],[1],[],vertical,"(890.0, 762.0)",,"('cti', 1.185),nan",0,13552.166,0,0.02,0.25
0,844,target,"[(1155, 796)]",[],[1],[0.65],horizontal,"(890.0, 262.0)",1,0.612,1,13556.333,1,0.02,0.25
0,845,target,"[(1174, 815)]",[],[1],[0.5333333333333333],vertical,"(390.0, 262.0)",1.4,0.491,1,13561.369,1,0.02,0.25
0,846,target,"[(1175, 798)]",[],[1],[0.5],horizontal,"(390.0, 262.0)",0.666666667,0.459,1,13567.133,1,0.02,0.25
0,847,target,"[(1170, 782)]",[],[1],[0.6333333333333333],horizontal,"(890.0, 262.0)",1.3,0.593,1,13572.332,2,0.02,0.25
0,848,catch,"[(1159, 795)]",[],[1],[],vertical,"(890.0, 262.0)",1.65,nan,1,13578.474,2,0.02,0.25
0,849,target,"[(1175, 796)]",[],[1],[0.3333333333333333],vertical,"(390.0, 262.0)",1.35,0.295,1,13584.083,2,0.02,0.25
0,850,target,"[(1154, 790)]",[],[1],[0.55],vertical,"(390.0, 762.0)",1.5,0.504,1,13590.282,2,0.02,0.25
0,851,catch,"[(1155, 794)]",[],[1],[],vertical,"(390.0, 762.0)",1.65,nan,1,13596.397,3,0.02,0.25
0,852,target,"[(1155, 807)]",[],[1],[0.55],horizontal,"(890.0, 762.0)",1.316666667,0.503,1,13602.684,3,0.02,0.25
0,853,target,"[(1155, 789)]",[],[1],[0.5333333333333333],vertical,"(890.0, 262.0)",0.833333333,0.493,1,13609.085,3,0.02,0.25
0,854,catch,"[(1156, 801)]",[],[1],[],vertical,"(890.0, 262.0)",1.65,nan,1,13614.914,3,0.02,0.25
0,855,target,"[(1165, 803)]",[],[1],[0.5666666666666667],horizontal,"(890.0, 762.0)",0.466666667,0.526,1,13621.135,3,0.02,0.25
0,856,target,"[(1136, 792)]",[],[1],[0.6],horizontal,"(890.0, 262.0)",0.716666667,0.555,1,13626.748,3,0.02,0.25
0,857,target,"[(1174, 787)]",[],[1],[0.6833333333333333],vertical,"(390.0, 762.0)",1.116666667,0.639,1,13632.515,3,0.02,0.25
0,858,catch,"[(1157, 774)]",[],[1],[],horizontal,"(890.0, 262.0)",1.65,nan,1,13638.982,3,0.02,0.25
0,859,catch,"[(1160, 792)]",[],[1],[],vertical,"(890.0, 762.0)",1.65,nan,1,13644.833,3,0.02,0.25
0,860,catch,"[(1160, 796)]",[],[1],[],horizontal,"(390.0, 262.0)",1.65,nan,1,13650.665,3,0.02,0.25
0,861,target,"[(1175, 784)]",[],[1],[0.85],horizontal,"(390.0, 262.0)",0.366666667,nan,0,13656.716,0,0.02,0.25
0,862,target,"[(1126, 794)]",[],[1],[0.5833333333333334],vertical,"(390.0, 262.0)",0.8,0.547,1,13660.673,1,0.02,0.25
0,863,target,"[(1157, 794)]",[],[1],[0.4666666666666667],horizontal,"(390.0, 262.0)",1.366666667,0.425,1,13665.733,1,0.02,0.25
0,864,target,"[(1160, 797)]",[],[1],[0.55],horizontal,"(390.0, 762.0)",1,0.506,1,13671.131,1,0.02,0.25
0,865,target,"[(1151, 814)]",[],[1],[0.6166666666666667],vertical,"(890.0, 262.0)",1.266666667,0.572,1,13675.905,2,0.02,0.25
0,866,target,"[(1157, 799)]",[],[1],[0.6333333333333333],horizontal,"(390.0, 262.0)",1.333333333,0.605,1,13681.749,2,0.02,0.25
0,867,catch,"[(1165, 796)]",[],[1],[],vertical,"(890.0, 762.0)",,"('cti', 1.406),nan",0,13687.983,0,0.04,0.25
0,868,target,"[(1131, 792)]",[],[1],[0.6666666666666666],vertical,"(890.0, 762.0)",0.816666667,0.617,1,13692.83,1,0.04,0.25
0,869,target,"[(1156, 791)]",[],[1],[0.65],vertical,"(390.0, 762.0)",0.666666667,0.606,1,13697.648,1,0.04,0.25
0,870,target,"[(1131, 805)]",[],[1],[0.7],horizontal,"(890.0, 262.0)",1.116666667,0.657,1,13702.399,1,0.04,0.25
0,871,target,"[(1175, 784)]",[],[1],[0.7666666666666666],vertical,"(890.0, 262.0)",1.25,0.719,1,13707.601,2,0.04,0.25
0,872,target,"[(1175, 820)]",[],[1],[0.55],horizontal,"(890.0, 762.0)",0.616666667,0.502,1,13713.867,2,0.04,0.25
0,873,target,"[(1157, 811)]",[],[1],[0.65],vertical,"(390.0, 762.0)",1.416666667,0.613,1,13719.021,2,0.04,0.25
0,874,target,"[(1176, 766)]",[],[1],[0.55],horizontal,"(390.0, 262.0)",1.45,0.514,1,13725.082,2,0.04,0.25
0,875,target,"[(1177, 783)]",[],[1],[0.6333333333333333],horizontal,"(390.0, 762.0)",0.85,0.596,1,13731.383,3,0.04,0.25
0,876,target,"[(1140, 815)]",[],[1],[0.5833333333333334],vertical,"(890.0, 762.0)",0.4,0.538,1,13737.388,3,0.04,0.25
0,877,target,"[(1175, 795)]",[],[1],[0.4666666666666667],vertical,"(390.0, 262.0)",1.416666667,0.429,1,13742.799,3,0.04,0.25
0,878,catch,"[(1156, 782)]",[],[1],[],horizontal,"(890.0, 762.0)",1.65,nan,1,13748.917,3,0.04,0.25
0,879,target,"[(1160, 801)]",[],[1],[0.5333333333333333],horizontal,"(890.0, 262.0)",0.516666667,0.486,1,13754.734,3,0.04,0.25
0,880,catch,"[(1159, 785)]",[],[1],[],horizontal,"(390.0, 262.0)",1.65,nan,1,13759.746,3,0.04,0.25
0,881,target,"[(1155, 791)]",[],[1],[0.8333333333333334],horizontal,"(390.0, 262.0)",1.166666667,0.785,1,13765.329,3,0.04,0.25
0,882,target,"[(1160, 765)]",[],[1],[0.6333333333333333],horizontal,"(390.0, 262.0)",1.2,0.586,1,13771.8,3,0.04,0.25
0,883,target,"[(1161, 789)]",[],[1],[0.5833333333333334],horizontal,"(390.0, 262.0)",1.5,0.539,1,13778.166,3,0.04,0.25
0,884,target,"[(1158, 799)]",[],[1],[0.3833333333333333],vertical,"(390.0, 262.0)",1.466666667,0.35,1,13784.233,3,0.04,0.25
0,885,target,"[(1136, 793)]",[],[1],[0.55],vertical,"(890.0, 262.0)",0.433333333,0.505,1,13790.629,3,0.04,0.25
0,886,target,"[(1138, 798)]",[],[1],[0.6333333333333333],horizontal,"(890.0, 262.0)",1.216666667,0.588,1,13795.932,3,0.04,0.25
0,887,target,"[(1146, 801)]",[],[1],[0.45],vertical,"(390.0, 262.0)",1.433333333,0.42,1,13801.791,3,0.04,0.25
0,888,target,"[(1158, 835)]",[],[1],[0.6166666666666667],vertical,"(890.0, 762.0)",0.65,0.571,1,13808.227,3,0.04,0.25
0,889,target,"[(1158, 807)]",[],[1],[0.5666666666666667],horizontal,"(390.0, 762.0)",0.35,0.53,1,13814.233,3,0.04,0.25
0,890,target,"[(1165, 779)]",[],[1],[0.6],horizontal,"(890.0, 762.0)",1.216666667,0.556,1,13819.348,3,0.04,0.25
0,891,catch,"[(1175, 799)]",[],[1],[],vertical,"(390.0, 262.0)",1.65,nan,1,13825.617,3,0.04,0.25
0,892,target,"[(1137, 800)]",[],[1],[0.55],horizontal,"(390.0, 262.0)",0.65,0.508,1,13831.188,3,0.04,0.25
0,893,target,"[(1167, 776)]",[],[1],[0.6333333333333333],vertical,"(890.0, 262.0)",0.666666667,0.587,1,13837.167,3,0.02,0.25
0,894,catch,"[(1157, 807)]",[],[1],[],vertical,"(890.0, 262.0)",1.65,nan,1,13842.821,3,0.02,0.25
0,895,target,"[(1171, 804)]",[],[1],[0.5333333333333333],vertical,"(890.0, 262.0)",0.433333333,0.488,1,13848.933,3,0.02,0.25
0,896,target,"[(1174, 807)]",[],[1],[0.55],horizontal,"(890.0, 262.0)",1.516666667,0.509,1,13854.499,3,0.02,0.25
0,897,target,"[(1156, 791)]",[],[1],[0.75],horizontal,"(390.0, 762.0)",0.966666667,0.709,1,13860.685,3,0.02,0.25
0,898,target,"[(1160, 787)]",[],[1],[0.7833333333333333],vertical,"(390.0, 762.0)",0.6,0.732,1,13866.441,3,0.02,0.25
0,899,target,"[(1143, 799)]",[],[1],[0.6333333333333333],vertical,"(890.0, 762.0)",1.433333333,0.587,1,13871.962,3,0.02,0.25
0,900,catch,"[(1172, 796)]",[],[1],[],horizontal,"(390.0, 762.0)",1.65,nan,1,13878.159,3,0.02,0.25
0,901,target,"[(1140, 787)]",[],[1],[0.5166666666666666],horizontal,"(390.0, 762.0)",1.466666667,0.477,1,13884.449,3,0.02,0.25
0,902,catch,"[(1136, 792)]",[],[1],[],vertical,"(890.0, 762.0)",1.65,nan,1,13890.551,3,0.02,0.25
0,903,target,"[(1159, 798)]",[],[1],[0.5333333333333333],horizontal,"(890.0, 262.0)",0.4,0.488,1,13896.518,3,0.02,0.25
0,904,target,"[(1131, 786)]",[],[1],[0.7166666666666667],vertical,"(890.0, 262.0)",1.083333333,0.673,1,13901.831,3,0.02,0.25
0,905,target,"[(1162, 804)]",[],[1],[0.55],vertical,"(390.0, 762.0)",1.416666667,0.514,1,13908.25,3,0.02,0.25
0,906,target,"[(1155, 790)]",[],[1],[0.7666666666666666],vertical,"(390.0, 262.0)",1.166666667,0.72,1,13914.433,3,0.02,0.25
0,907,catch,"[(1132, 793)]",[],[1],[],vertical,"(890.0, 762.0)",1.65,nan,1,13920.737,3,0.02,0.25
0,908,target,"[(1168, 803)]",[],[1],[0.55],vertical,"(890.0, 762.0)",0.9,0.51,1,13926.602,3,0.02,0.25
0,909,target,"[(1121, 795)]",[],[1],[0.75],vertical,"(390.0, 762.0)",0.35,0.706,1,13932.251,3,0.02,0.25
0,910,catch,"[(1170, 791)]",[],[1],[],vertical,"(890.0, 762.0)",1.65,nan,1,13937.768,3,0.02,0.25
0,911,target,"[(1146, 782)]",[],[1],[0.7],vertical,"(390.0, 262.0)",1.366666667,0.655,1,13943.85,3,0.02,0.25
0,912,target,"[(1160, 813)]",[],[1],[0.5833333333333334],vertical,"(890.0, 262.0)",0.666666667,0.543,1,13950.077,3,0.02,0.25
0,913,target,"[(1160, 798)]",[],[1],[0.5333333333333333],horizontal,"(890.0, 762.0)",1.166666667,0.492,1,13955.885,3,0.02,0.25
0,914,target,"[(1168, 782)]",[],[1],[0.5166666666666666],horizontal,"(390.0, 262.0)",1.133333333,0.479,1,13961.784,3,0.02,0.25
0,915,target,"[(1160, 808)]",[],[1],[0.7],horizontal,"(890.0, 262.0)",1.333333333,0.654,1,13967.767,3,0.02,0.25
0,916,target,"[(1136, 786)]",[],[1],[0.5166666666666666],vertical,"(890.0, 262.0)",0.85,0.477,1,13974.183,3,0.02,0.25
0,917,target,"[(1160, 795)]",[],[1],[0.55],vertical,"(890.0, 262.0)",0.583333333,0.512,1,13979.625,3,0,0.25
0,918,target,"[(1157, 798)]",[],[1],[0.85],horizontal,"(390.0, 262.0)",1.35,nan,0,13984.815,0,0,0.25
0,919,target,"[(1165, 804)]",[],[1],[0.48333333333333334],vertical,"(890.0, 762.0)",1.216666667,0.443,1,13989.551,1,0,0.25
0,920,target,"[(1144, 794)]",[],[1],[0.5333333333333333],vertical,"(890.0, 262.0)",1.366666667,0.493,1,13995.111,1,0,0.25
0,921,target,"[(1134, 799)]",[],[1],[0.85],vertical,"(890.0, 762.0)",1.183333333,nan,0,14000.834,0,0,0.25
0,922,target,"[(1136, 787)]",[],[1],[0.6833333333333333],vertical,"(390.0, 762.0)",0.783333333,0.637,1,14005.74,1,0,0.25
0,923,target,"[(1145, 795)]",[],[1],[0.6833333333333333],vertical,"(890.0, 262.0)",0.666666667,0.633,1,14011.102,1,0,0.25
0,924,target,"[(1136, 808)]",[],[1],[0.5833333333333334],vertical,"(890.0, 762.0)",0.383333333,0.54,1,14016.317,1,0,0.25
0,925,target,"[(1134, 808)]",[],[1],[0.5166666666666666],vertical,"(390.0, 762.0)",1.116666667,0.477,1,14021.121,2,0,0.25
0,926,target,"[(1158, 801)]",[],[1],[0.65],vertical,"(890.0, 762.0)",0.483333333,0.608,1,14027.134,2,0,0.25
0,927,target,"[(1141, 804)]",[],[1],[0.85],vertical,"(890.0, 762.0)",0.483333333,nan,0,14032.435,0,0,0.25
0,928,catch,"[(1119, 782)]",[],[1],[],horizontal,"(890.0, 262.0)",1.65,nan,1,14037.05,1,0,0.25
0,929,target,"[(1131, 804)]",[],[1],[0.85],horizontal,"(890.0, 762.0)",1.116666667,nan,0,14042.235,0,0,0.25
0,930,target,"[(1157, 805)]",[],[1],[0.5166666666666666],horizontal,"(890.0, 262.0)",1.166666667,0.475,1,14047.567,1,0,0.25
0,931,catch,"[(1161, 797)]",[],[1],[],vertical,"(390.0, 262.0)",1.65,nan,1,14052.584,1,0,0.25
0,932,catch,"[(1161, 804)]",[],[1],[],vertical,"(890.0, 262.0)",1.65,nan,1,14057.734,1,0,0.25
0,933,catch,"[(1160, 786)]",[],[1],[],horizontal,"(390.0, 762.0)",1.65,nan,1,14063.35,2,0,0.25
0,934,target,"[(1160, 794)]",[],[1],[0.3833333333333333],horizontal,"(390.0, 262.0)",1.466666667,0.345,1,14069.384,2,0,0.25
0,935,catch,"[(1157, 801)]",[],[1],[],vertical,"(390.0, 262.0)",1.65,nan,1,14075.309,2,0,0.25
0,936,catch,"[(1160, 792)]",[],[1],[],horizontal,"(390.0, 262.0)",1.65,nan,1,14081.125,2,0,0.25
0,937,target,"[(1157, 789)]",[],[1],[0.55],vertical,"(390.0, 262.0)",0.733333333,0.508,1,14086.541,3,0,0.25
0,938,catch,"[(1175, 801)]",[],[1],[],horizontal,"(390.0, 262.0)",1.65,nan,1,14092.023,3,0,0.25
0,939,target,"[(1136, 787)]",[],[1],[],horizontal,"(390.0, 262.0)",,"('cti', 1.097)",0,14097.611,0,0.02,0.25
0,940,catch,"[(1150, 841)]",[],[1],[],horizontal,"(890.0, 762.0)",,"('cti', 1.461),nan",0,14102.051,0,0.04,0.25
0,941,target,"[(1141, 811)]",[],[1],[0.4666666666666667],vertical,"(390.0, 762.0)",1.216666667,0.424,1,14988.422,1,0.04,0.25
0,942,target,"[(1174, 816)]",[],[1],[0.6833333333333333],vertical,"(390.0, 262.0)",1.05,0.644,1,14993.951,1,0.04,0.25
0,943,target,"[(1170, 829)]",[],[1],[0.6333333333333333],vertical,"(890.0, 762.0)",1.033333333,0.594,1,14999.135,1,0.04,0.25
0,944,target,"[(1147, 810)]",[],[1],[0.85],horizontal,"(890.0, 762.0)",0.7,nan,0,15004.738,0,0.04,0.25
0,945,catch,"[(1153, 824)]",[],[1],[],horizontal,"(390.0, 762.0)",1.65,nan,1,15009.237,1,0.04,0.25
0,946,target,"[(1156, 794)]",[],[1],[0.55],horizontal,"(390.0, 262.0)",0.9,0.515,1,15014.371,1,0.04,0.25
0,947,target,"[(1159, 804)]",[],[1],[0.5333333333333333],vertical,"(890.0, 762.0)",0.633333333,0.492,1,15019.438,1,0.04,0.25
0,948,target,"[(1175, 796)]",[],[1],[0.5666666666666667],horizontal,"(890.0, 262.0)",0.733333333,0.529,1,15024.093,2,0.04,0.25
0,949,catch,"[(1153, 818)]",[],[1],[],vertical,"(890.0, 262.0)",1.65,nan,1,15029.39,2,0.04,0.25
0,950,target,"[(1156, 788)]",[],[1],[0.5666666666666667],vertical,"(890.0, 762.0)",0.616666667,0.527,1,15034.787,2,0.04,0.25
0,951,catch,"[(1161, 786)]",[],[1],[],horizontal,"(890.0, 762.0)",1.65,nan,1,15039.854,2,0.04,0.25
0,952,target,"[(1175, 822)]",[],[1],[0.7666666666666666],horizontal,"(390.0, 262.0)",0.733333333,0.717,1,15045.438,3,0.04,0.25
0,953,catch,"[(1159, 822)]",[],[1],[],horizontal,"(890.0, 762.0)",1.65,nan,1,15051.587,3,0.04,0.25
0,954,target,"[(1157, 798)]",[],[1],[0.6],vertical,"(890.0, 262.0)",1.033333333,0.559,1,15057.249,3,0.04,0.25
0,955,catch,"[(1160, 799)]",[],[1],[],horizontal,"(890.0, 262.0)",1.65,nan,1,15063.455,3,0.04,0.25
0,956,target,"[(1157, 790)]",[],[1],[0.4],horizontal,"(390.0, 262.0)",1.4,0.361,1,15069.189,3,0.04,0.25
0,957,catch,"[(1176, 795)]",[],[1],[],horizontal,"(890.0, 762.0)",,"('cti', 1.159),nan",0,15075.323,0,0.06,0.25
0,958,target,"[(1159, 811)]",[],[1],[0.5666666666666667],vertical,"(890.0, 762.0)",0.583333333,0.521,1,15079.539,1,0.06,0.25
0,959,target,"[(1164, 791)]",[],[1],[0.6333333333333333],vertical,"(390.0, 762.0)",1.183333333,0.59,1,15084.401,1,0.06,0.25
0,960,target,"[(1144, 799)]",[],[1],[0.85],horizontal,"(390.0, 262.0)",1.05,nan,0,15089.755,0,0.06,0.25
0,961,target,"[(1135, 802)]",[],[1],[0.6166666666666667],horizontal,"(890.0, 762.0)",1.283333333,0.58,1,15094.544,1,0.06,0.25
0,962,catch,"[(1175, 819)]",[],[1],[],vertical,"(390.0, 262.0)",1.65,nan,1,15099.855,1,0.06,0.25
0,963,catch,"[(1156, 778)]",[],[1],[],vertical,"(390.0, 762.0)",1.65,nan,1,15105.171,1,0.06,0.25
0,964,target,"[(1179, 782)]",[],[1],[0.7333333333333333],horizontal,"(890.0, 762.0)",1,0.692,1,15110.204,2,0.06,0.25
0,965,target,"[(1174, 811)]",[],[1],[0.48333333333333334],horizontal,"(390.0, 762.0)",1.15,0.444,1,15115.742,2,0.06,0.25
0,966,target,"[(1145, 818)]",[],[1],[0.55],vertical,"(390.0, 262.0)",0.85,0.505,1,15121.644,2,0.06,0.25
0,967,target,"[(1148, 792)]",[],[1],[0.5333333333333333],vertical,"(890.0, 262.0)",1.283333333,0.492,1,15126.97,2,0.06,0.25
0,968,catch,"[(1186, 799)]",[],[1],[],vertical,"(890.0, 262.0)",1.65,nan,1,15133.278,3,0.06,0.25
0,969,target,"[(1157, 792)]",[],[1],[0.5],horizontal,"(890.0, 762.0)",0.883333333,0.459,1,15139.755,3,0.06,0.25
0,970,target,"[(1160, 799)]",[],[1],[0.5166666666666666],horizontal,"(890.0, 262.0)",1.083333333,0.475,1,15145.24,3,0.06,0.25
0,971,target,"[(1170, 787)]",[],[1],[0.5666666666666667],vertical,"(890.0, 762.0)",0.816666667,0.525,1,15150.889,3,0.06,0.25
0,972,target,"[(1163, 793)]",[],[1],[0.48333333333333334],horizontal,"(890.0, 262.0)",0.916666667,0.441,1,15156.558,3,0.06,0.25
0,973,target,"[(1159, 801)]",[],[1],[0.6666666666666666],horizontal,"(890.0, 262.0)",0.383333333,0.622,1,15162.417,3,0.06,0.25
0,974,target,"[(1159, 787)]",[],[1],[0.6166666666666667],vertical,"(890.0, 762.0)",1.35,0.579,1,15167.328,3,0.06,0.25
0,975,catch,"[(1160, 802)]",[],[1],[],vertical,"(890.0, 762.0)",1.65,nan,1,15173.456,3,0.06,0.25
0,976,catch,"[(1161, 774)]",[],[1],[],horizontal,"(390.0, 262.0)",1.65,nan,1,15179.216,3,0.06,0.25
0,977,target,"[(1181, 768)]",[],[1],[0.7166666666666667],horizontal,"(890.0, 262.0)",0.366666667,0.67,1,15184.92,3,0.06,0.25
0,978,target,"[(1169, 802)]",[],[1],[0.5833333333333334],vertical,"(390.0, 762.0)",0.716666667,0.55,1,15189.988,3,0.06,0.25
0,979,target,"[(1161, 787)]",[],[1],[0.5666666666666667],vertical,"(890.0, 762.0)",0.866666667,0.525,1,15195.439,3,0.06,0.25
0,980,target,"[(1171, 798)]",[],[1],[0.7166666666666667],horizontal,"(390.0, 262.0)",1.3,0.665,1,15201.022,3,0.06,0.25
0,981,catch,"[(1165, 795)]",[],[1],[],horizontal,"(390.0, 262.0)",1.65,nan,1,15207.038,3,0.06,0.25
0,982,target,"[(1169, 791)]",[],[1],[0.5],vertical,"(890.0, 262.0)",0.466666667,0.461,1,15212.823,3,0.06,0.25
0,983,target,"[(1174, 782)]",[],[1],[0.5166666666666666],horizontal,"(890.0, 262.0)",1.283333333,0.481,1,15217.654,3,0.06,0.25
0,984,catch,"[(1173, 810)]",[],[1],[],vertical,"(390.0, 262.0)",1.65,nan,1,15223.722,3,0.06,0.25
0,985,target,"[(1167, 796)]",[],[1],[],horizontal,"(390.0, 762.0)",,"('cti', 1.128)",0,15229.706,0,0.08,0.25
0,986,catch,"[(1139, 798)]",[],[1],[],horizontal,"(890.0, 762.0)",1.65,nan,1,15233.957,1,0.08,0.25
0,987,target,"[(1156, 784)]",[],[1],[0.6166666666666667],vertical,"(890.0, 762.0)",0.383333333,0.572,1,15238.967,1,0.08,0.25
0,988,target,"[(1116, 809)]",[],[1],[0.5166666666666666],vertical,"(390.0, 262.0)",0.866666667,0.478,1,15243.122,1,0.08,0.25
0,989,catch,"[(1161, 787)]",[],[1],[],horizontal,"(890.0, 262.0)",1.65,nan,1,15248.373,2,0.06,0.25
0,990,target,"[(1164, 782)]",[],[1],[0.5333333333333333],horizontal,"(890.0, 262.0)",0.766666667,0.497,1,15253.706,2,0.04,0.25
0,991,target,"[(1169, 794)]",[],[1],[0.48333333333333334],horizontal,"(890.0, 762.0)",1.35,0.439,1,15258.8,2,0.04,0.25
0,992,catch,"[(1182, 795)]",[],[1],[],vertical,"(890.0, 762.0)",1.65,nan,1,15264.472,2,0.04,0.25
0,993,target,"[(1175, 802)]",[],[1],[0.7],horizontal,"(390.0, 762.0)",1.066666667,0.657,1,15269.989,3,0.04,0.25
0,994,catch,"[(1144, 782)]",[],[1],[],horizontal,"(890.0, 762.0)",1.65,nan,1,15276.188,3,0.04,0.25
0,995,target,"[(1172, 802)]",[],[1],[0.6833333333333333],vertical,"(890.0, 262.0)",1.183333333,0.646,1,15282.372,3,0.04,0.25
0,996,target,"[(1158, 798)]",[],[1],[0.3333333333333333],horizontal,"(390.0, 262.0)",1.45,0.301,1,15288.74,3,0.04,0.25
0,997,catch,"[(1159, 782)]",[],[1],[],horizontal,"(890.0, 762.0)",1.65,nan,1,15294.856,3,0.04,0.25
0,998,target,"[(1166, 802)]",[],[1],[0.5166666666666666],horizontal,"(390.0, 262.0)",1.383333333,0.476,1,15300.722,3,0.04,0.25
0,999,catch,"[(1168, 784)]",[],[1],[],vertical,"(390.0, 762.0)",1.65,nan,1,15306.673,3,0.04,0.25
0,1000,target,"[(1172, 767)]",[],[1],[0.55],horizontal,"(390.0, 762.0)",1.183333333,0.509,1,15312.173,3,0.04,0.25
0,1001,target,"[(1161, 799)]",[],[1],[0.5],vertical,"(390.0, 262.0)",0.816666667,0.462,1,15318.406,3,0.04,0.25
0,1002,target,"[(1186, 795)]",[],[1],[0.6166666666666667],horizontal,"(390.0, 762.0)",1.2,0.576,1,15324.19,3,0.04,0.25
0,1003,target,"[(1172, 794)]",[],[1],[0.6833333333333333],horizontal,"(890.0, 762.0)",0.7,0.64,1,15330.24,3,0.04,0.25
0,1004,target,"[(1183, 799)]",[],[1],[0.6333333333333333],horizontal,"(890.0, 762.0)",1.5,0.596,1,15335.79,3,0.04,0.25
0,1005,target,"[(1171, 781)]",[],[1],[0.55],vertical,"(890.0, 262.0)",1.15,0.511,1,15341.872,3,0.04,0.25
0,1006,target,"[(1151, 778)]",[],[1],[0.5833333333333334],horizontal,"(890.0, 262.0)",1.2,0.545,1,15347.606,3,0.04,0.25
0,1007,catch,"[(1166, 808)]",[],[1],[],vertical,"(390.0, 762.0)",1.65,nan,1,15353.823,3,0.02,0.25
0,1008,target,"[(1159, 780)]",[],[1],[0.5333333333333333],vertical,"(890.0, 762.0)",0.916666667,0.496,1,15359.606,3,0.02,0.25
0,1009,catch,"[(1161, 793)]",[],[1],[],horizontal,"(890.0, 762.0)",1.65,nan,1,15365.387,3,0.02,0.25
0,1010,target,"[(1166, 791)]",[],[1],[0.55],horizontal,"(390.0, 762.0)",1.316666667,0.512,1,15371.655,3,0.02,0.25
0,1011,target,"[(1159, 783)]",[],[1],[0.85],horizontal,"(890.0, 762.0)",1.2,nan,0,15377.672,0,0.02,0.25
0,1012,target,"[(1165, 778)]",[],[1],[0.5833333333333334],vertical,"(390.0, 262.0)",1.3,0.539,1,15382.897,1,0.02,0.25
0,1013,target,"[(1127, 824)]",[],[1],[0.5333333333333333],vertical,"(890.0, 762.0)",1.15,0.494,1,15388.584,1,0.02,0.25
0,1014,target,"[(1171, 787)]",[],[1],[0.5333333333333333],horizontal,"(890.0, 262.0)",1.466666667,0.493,1,15394.254,1,0.02,0.25
0,1015,target,"[(1158, 796)]",[],[1],[0.5166666666666666],vertical,"(890.0, 762.0)",0.783333333,0.477,1,15399.739,2,0.02,0.25
0,1016,catch,"[(1171, 791)]",[],[1],[],horizontal,"(390.0, 762.0)",1.65,nan,1,15405.339,2,0.02,0.25
0,1017,catch,"[(1171, 802)]",[],[1],[],horizontal,"(890.0, 262.0)",1.65,nan,1,15411.105,2,0.02,0.25
0,1018,target,"[(1176, 802)]",[],[1],[0.7166666666666667],vertical,"(390.0, 762.0)",1.083333333,0.669,1,15417.222,2,0.02,0.25
0,1019,target,"[(1160, 795)]",[],[1],[0.6],vertical,"(390.0, 762.0)",1.216666667,0.566,1,15423.247,3,0.02,0.25
0,1020,catch,"[(1165, 794)]",[],[1],[],horizontal,"(890.0, 762.0)",1.65,nan,1,15429.856,3,0.02,0.25
0,1021,target,"[(1136, 805)]",[],[1],[0.31666666666666665],vertical,"(390.0, 762.0)",1.516666667,0.28,1,15435.656,3,0.02,0.25
0,1022,catch,"[(1172, 787)]",[],[1],[],horizontal,"(390.0, 262.0)",1.65,nan,1,15441.823,3,0.02,0.25
0,1023,target,"[(1170, 780)]",[],[1],[0.6],vertical,"(390.0, 762.0)",0.7,0.556,1,15447.907,3,0.02,0.25
0,1024,target,"[(1159, 786)]",[],[1],[0.6666666666666666],horizontal,"(390.0, 762.0)",0.45,0.624,1,15453.106,3,0.02,0.25
0,1025,target,"[(1174, 794)]",[],[1],[0.5],vertical,"(390.0, 762.0)",0.833333333,0.465,1,15458.789,3,0.02,0.25
0,1026,target,"[(1154, 783)]",[],[1],[0.5833333333333334],vertical,"(390.0, 262.0)",1.266666667,0.541,1,15464.828,3,0.02,0.25
0,1027,target,"[(1174, 787)]",[],[1],[0.5166666666666666],vertical,"(890.0, 262.0)",1.133333333,0.475,1,15470.439,3,0.02,0.25
0,1028,catch,"[(1173, 800)]",[],[1],[],vertical,"(890.0, 262.0)",1.65,nan,1,15476.184,3,0.02,0.25
0,1029,target,"[(1160, 788)]",[],[1],[0.7833333333333333],horizontal,"(890.0, 762.0)",1.116666667,0.748,1,15481.988,3,0.02,0.25
0,1030,target,"[(1164, 792)]",[],[1],[0.5166666666666666],vertical,"(890.0, 762.0)",1.416666667,0.47,1,15488.084,3,0.02,0.25
0,1031,catch,"[(1175, 786)]",[],[1],[],vertical,"(890.0, 262.0)",1.65,nan,1,15494.385,3,0.02,0.25
0,1032,target,"[(1174, 796)]",[],[1],[0.5333333333333333],vertical,"(390.0, 262.0)",0.85,0.486,1,15499.835,3,0.02,0.25
0,1033,catch,"[(1174, 796)]",[],[1],[],horizontal,"(390.0, 262.0)",1.65,nan,1,15505.707,3,0.02,0.25
0,1034,target,"[(1163, 778)]",[],[1],[0.55],vertical,"(890.0, 762.0)",1.433333333,0.506,1,15511.623,3,0.02,0.25
0,1035,target,"[(1172, 806)]",[],[1],[0.6],horizontal,"(390.0, 762.0)",1.316666667,0.564,1,15517.573,3,0,0.25
0,1036,catch,"[(1175, 796)]",[],[1],[],horizontal,"(890.0, 762.0)",1.65,nan,1,15524.124,3,0,0.25
0,1037,catch,"[(1180, 792)]",[],[1],[],horizontal,"(390.0, 262.0)",1.65,nan,1,15530.353,3,0,0.25
0,1038,target,"[(1160, 804)]",[],[1],[0.7],horizontal,"(890.0, 762.0)",1.116666667,0.652,1,15536.415,3,0,0.25
0,1039,target,"[(1166, 802)]",[],[1],[0.5666666666666667],vertical,"(390.0, 262.0)",1.35,0.543,1,15542.207,3,0,0.25
0,1040,target,"[(1166, 793)]",[],[1],[0.85],horizontal,"(390.0, 262.0)",0.766666667,nan,0,15548.058,0,0,0.25
0,1041,target,"[(1137, 796)]",[],[1],[0.55],vertical,"(890.0, 262.0)",0.35,0.508,1,15552.374,1,0,0.25
0,1042,target,"[(1159, 790)]",[],[1],[0.55],vertical,"(390.0, 762.0)",1.1,0.513,1,15557.134,1,0,0.25
0,1043,target,"[(1162, 768)]",[],[1],[0.26666666666666666],horizontal,"(890.0, 762.0)",1.45,0.233,1,15562.457,1,0,0.25
0,1044,target,"[(1172, 801)]",[],[1],[0.7666666666666666],vertical,"(390.0, 762.0)",1.15,0.724,1,15567.973,2,0,0.25
0,1045,target,"[(1163, 793)]",[],[1],[0.7],vertical,"(890.0, 262.0)",0.35,0.662,1,15573.891,2,0,0.25
0,1046,target,"[(1132, 778)]",[],[1],[0.6666666666666666],horizontal,"(890.0, 262.0)",0.95,0.625,1,15578.674,2,0,0.25
0,1047,catch,"[(1164, 789)]",[],[1],[],vertical,"(390.0, 762.0)",1.65,nan,1,15584.058,2,0,0.25
0,1048,catch,"[(1162, 811)]",[],[1],[],horizontal,"(390.0, 762.0)",1.65,nan,1,15589.908,3,0,0.25
0,1049,target,"[(1128, 820)]",[],[1],[0.5166666666666666],vertical,"(890.0, 762.0)",0.566666667,0.477,1,15596.087,3,0,0.25
0,1050,target,"[(1160, 800)]",[],[1],[0.45],vertical,"(890.0, 262.0)",1.383333333,0.417,1,15601.84,3,0,0.25
0,1051,target,"[(1165, 798)]",[],[1],[0.45],horizontal,"(890.0, 262.0)",1.483333333,0.409,1,15608.221,3,0,0.25
0,1052,target,"[(1175, 786)]",[],[1],[0.6666666666666666],vertical,"(890.0, 262.0)",0.483333333,0.625,1,15614.041,3,0,0.25
0,1053,catch,"[(1186, 776)]",[],[1],[],horizontal,"(890.0, 762.0)",1.65,nan,1,15619.374,3,0,0.25
0,1054,target,"[(1166, 790)]",[],[1],[0.5833333333333334],vertical,"(390.0, 762.0)",0.7,0.541,1,15625.474,3,0,0.25
0,1055,target,"[(1162, 784)]",[],[1],[0.5166666666666666],horizontal,"(390.0, 762.0)",0.983333333,0.481,1,15630.942,3,0,0.25
0,1056,target,"[(1160, 772)]",[],[1],[0.55],horizontal,"(890.0, 262.0)",0.466666667,0.505,1,15636.499,3,0,0.25
0,1057,catch,"[(1175, 781)]",[],[1],[],horizontal,"(890.0, 762.0)",1.65,nan,1,15642.091,3,0,0.25
0,1058,catch,"[(1170, 818)]",[],[1],[],horizontal,"(890.0, 262.0)",1.65,nan,1,15648.326,3,0,0.25
0,1059,target,"[(1167, 797)]",[],[1],[0.5666666666666667],vertical,"(890.0, 262.0)",0.716666667,0.521,1,15654.074,3,0,0.25
0,1060,catch,"[(1160, 787)]",[],[1],[],horizontal,"(390.0, 262.0)",1.65,nan,1,15660.056,3,0,0.25
0,1061,target,"[(1160, 786)]",[],[1],[0.6833333333333333],horizontal,"(390.0, 762.0)",1.2,0.642,1,15666.233,3,0,0.25
0,1062,target,"[(1147, 797)]",[],[1],[0.85],horizontal,"(890.0, 262.0)",0.616666667,nan,0,15672.773,0,0,0.25
0,1063,catch,"[(1131, 799)]",[],[1],[],vertical,"(390.0, 262.0)",1.65,nan,1,15677.023,1,0,0.25
0,1064,target,"[(1132, 794)]",[],[1],[0.5166666666666666],vertical,"(390.0, 262.0)",1.516666667,0.48,1,15682.463,1,0,0.25
0,1065,catch,"[(1165, 783)]",[],[1],[],vertical,"(890.0, 762.0)",1.65,nan,1,15688.383,1,0,0.25
0,1066,catch,"[(1160, 774)]",[],[1],[],vertical,"(890.0, 262.0)",1.65,nan,1,15693.922,2,0,0.25
0,1067,target,"[(1138, 773)]",[],[1],[0.75],horizontal,"(890.0, 762.0)",1.266666667,0.707,1,15699.34,2,0,0.25
0,1068,target,"[(1135, 803)]",[],[1],[0.5166666666666666],vertical,"(890.0, 262.0)",1.366666667,0.473,1,15704.955,2,0,0.25
0,1069,target,"[(1160, 802)]",[],[1],[0.65],vertical,"(890.0, 762.0)",0.7,0.612,1,15710.441,2,0,0.25
0,1070,target,"[(1169, 805)]",[],[1],[0.85],horizontal,"(390.0, 262.0)",0.65,nan,0,15715.645,0,0,0.25
0,1071,target,"[(1116, 787)]",[],[1],[0.65],vertical,"(890.0, 762.0)",0.4,0.61,1,15720.557,1,0,0.25
0,1072,target,"[(1138, 803)]",[],[1],[0.7],horizontal,"(390.0, 762.0)",0.916666667,0.653,1,15725.121,1,0,0.25
0,1073,target,"[(1134, 778)]",[],[1],[0.6666666666666666],horizontal,"(390.0, 762.0)",0.716666667,0.621,1,15730.441,1,0,0.25
0,1074,target,"[(1162, 785)]",[],[1],[0.55],vertical,"(390.0, 762.0)",0.9,0.508,1,15735.424,2,0,0.25
0,1075,catch,"[(1166, 799)]",[],[1],[],vertical,"(390.0, 262.0)",1.65,nan,1,15741.025,2,0,0.25
0,1076,catch,"[(1160, 781)]",[],[1],[],horizontal,"(390.0, 762.0)",1.65,nan,1,15746.861,2,0,0.25
0,1077,target,"[(1163, 782)]",[],[1],[0.6333333333333333],vertical,"(890.0, 262.0)",1.15,0.588,1,15752.941,2,0,0.25
0,1078,target,"[(1142, 803)]",[],[1],[0.5833333333333334],vertical,"(890.0, 262.0)",0.883333333,0.542,1,15758.723,3,0,0.25
0,1079,target,"[(1163, 794)]",[],[1],[0.5166666666666666],horizontal,"(890.0, 762.0)",1.433333333,0.474,1,15764.497,3,0,0.25
0,1080,catch,"[(1170, 784)]",[],[1],[],horizontal,"(390.0, 762.0)",1.65,nan,1,15770.674,3,0,0.25
0,1081,target,"[(1159, 794)]",[],[1],[0.6333333333333333],vertical,"(890.0, 262.0)",0.833333333,0.592,1,15776.674,3,0,0.25
0,1082,catch,"[(1149, 797)]",[],[1],[],vertical,"(890.0, 262.0)",1.65,nan,1,15782.24,3,0,0.25
0,1083,target,"[(1162, 789)]",[],[1],[0.65],horizontal,"(390.0, 262.0)",1.466666667,0.605,1,15788.214,3,0,0.25
0,1084,target,"[(1162, 808)]",[],[1],[0.5833333333333334],vertical,"(390.0, 762.0)",1.166666667,0.542,1,15794.524,3,0,0.25
0,1085,target,"[(1160, 799)]",[],[1],[0.85],vertical,"(390.0, 762.0)",1.083333333,nan,0,15800.542,0,0,0.25
0,1086,target,"[(1133, 840)]",[],[1],[0.85],horizontal,"(890.0, 762.0)",0.783333333,nan,0,15805.558,0,0,0.25
0,1087,target,"[(1117, 825)]",[],[1],[0.6],horizontal,"(890.0, 262.0)",0.583333333,0.567,1,17006.358,1,0,0.25
0,1088,catch,"[(1153, 776)]",[],[1],[],vertical,"(390.0, 762.0)",1.65,nan,1,17011.546,1,0,0.25
0,1089,catch,"[(1171, 791)]",[],[1],[],vertical,"(890.0, 762.0)",1.65,nan,1,17017.03,1,0,0.25
0,1090,target,"[(1158, 787)]",[],[1],[0.3833333333333333],horizontal,"(890.0, 262.0)",1.533333333,0.345,1,17022.372,2,0,0.25
0,1091,target,"[(1198, 786)]",[],[1],[0.45],vertical,"(890.0, 262.0)",1.416666667,0.414,1,17028.245,2,0,0.25
0,1092,target,"[(1202, 778)]",[],[1],[0.6166666666666667],vertical,"(390.0, 262.0)",1.25,0.584,1,17033.951,2,0,0.25
0,1093,target,"[(1166, 795)]",[],[1],[0.5333333333333333],horizontal,"(890.0, 762.0)",1.366666667,0.494,1,17040.007,2,0,0.25
0,1094,target,"[(1157, 797)]",[],[1],[0.55],horizontal,"(890.0, 762.0)",1.066666667,0.514,1,17045.997,3,0,0.25
0,1095,target,"[(1165, 778)]",[],[1],[0.85],horizontal,"(890.0, 762.0)",0.433333333,nan,0,17051.681,0,0,0.25
0,1096,target,"[(1146, 761)]",[],[1],[0.6833333333333333],horizontal,"(390.0, 262.0)",1.483333333,0.634,1,17055.679,1,0,0.25
0,1097,catch,"[(1136, 792)]",[],[1],[],vertical,"(390.0, 762.0)",1.65,nan,1,17061.312,1,0,0.25
0,1098,target,"[(1166, 795)]",[],[1],[0.6333333333333333],vertical,"(390.0, 762.0)",0.833333333,0.588,1,17071.747,1,0,0.25
0,1099,target,"[(1116, 826)]",[],[1],[0.5333333333333333],vertical,"(890.0, 762.0)",0.766666667,0.492,1,17077.116,2,0,0.25
0,1100,catch,"[(1159, 810)]",[],[1],[],vertical,"(390.0, 762.0)",1.65,nan,1,17082.962,2,0,0.25
0,1101,target,"[(1132, 774)]",[],[1],[0.5666666666666667],vertical,"(390.0, 262.0)",0.533333333,0.523,1,17088.921,2,0,0.25
0,1102,catch,"[(1175, 813)]",[],[1],[],vertical,"(390.0, 762.0)",1.65,nan,1,17094.097,2,0,0.25
0,1103,catch,"[(1160, 802)]",[],[1],[],horizontal,"(890.0, 762.0)",1.65,nan,1,17100.171,3,0,0.25
0,1104,catch,"[(1160, 798)]",[],[1],[],horizontal,"(390.0, 762.0)",1.65,nan,1,17106.397,3,0,0.25
0,1105,target,"[(1160, 778)]",[],[1],[0.85],vertical,"(390.0, 762.0)",0.883333333,nan,0,17112.174,0,0,0.25
0,1106,target,"[(1137, 802)]",[],[1],[0.6],horizontal,"(890.0, 762.0)",0.566666667,0.557,1,17116.489,1,0,0.25
0,1107,target,"[(1174, 805)]",[],[1],[0.5666666666666667],vertical,"(890.0, 762.0)",0.65,0.528,1,17121.403,1,0,0.25
0,1108,target,"[(1137, 828)]",[],[1],[0.5166666666666666],vertical,"(390.0, 762.0)",0.9,0.473,1,17126.403,1,0,0.25
0,1109,target,"[(1156, 799)]",[],[1],[0.6],horizontal,"(390.0, 762.0)",0.683333333,0.556,1,17131.421,2,0,0.25
0,1110,target,"[(1161, 801)]",[],[1],[0.4],horizontal,"(390.0, 262.0)",1.183333333,0.364,1,17136.299,2,0,0.25
0,1111,target,"[(1175, 805)]",[],[1],[0.7333333333333333],vertical,"(390.0, 262.0)",0.65,0.694,1,17142.213,2,0,0.25
0,1112,target,"[(1162, 802)]",[],[1],[0.6166666666666667],horizontal,"(890.0, 262.0)",1.3,0.572,1,17147.462,2,0,0.25
0,1113,target,"[(1160, 812)]",[],[1],[0.6166666666666667],vertical,"(390.0, 262.0)",0.516666667,0.572,1,17153.414,3,0,0.25
0,1114,target,"[(1153, 804)]",[],[1],[0.7],horizontal,"(890.0, 762.0)",0.533333333,0.654,1,17159.244,3,0,0.25
0,1115,target,"[(1175, 772)]",[],[1],[0.75],vertical,"(390.0, 762.0)",0.6,0.701,1,17164.446,3,0,0.25
0,1116,catch,"[(1175, 821)]",[],[1],[],horizontal,"(390.0, 262.0)",1.65,nan,1,17169.947,3,0,0.25
0,1117,target,"[(1169, 775)]",[],[1],[0.7333333333333333],vertical,"(390.0, 762.0)",1.1,0.687,1,17175.912,3,0,0.25
0,1118,target,"[(1177, 786)]",[],[1],[0.36666666666666664],horizontal,"(890.0, 262.0)",1.4,0.333,1,17181.739,3,0,0.25
0,1119,target,"[(1169, 783)]",[],[1],[0.6],vertical,"(890.0, 762.0)",1.416666667,0.559,1,17187.846,3,0,0.25
0,1120,target,"[(1175, 792)]",[],[1],[0.5166666666666666],horizontal,"(890.0, 762.0)",1.016666667,0.48,1,17193.994,3,0,0.25
0,1121,target,"[(1160, 805)]",[],[1],[0.6],vertical,"(890.0, 262.0)",1.1,0.561,1,17199.962,3,0,0.25
0,1122,target,"[(1162, 788)]",[],[1],[0.6333333333333333],horizontal,"(890.0, 762.0)",1.333333333,0.591,1,17205.951,3,0,0.25
0,1123,catch,"[(1156, 795)]",[],[1],[],vertical,"(390.0, 262.0)",1.65,nan,1,17211.967,3,0,0.25
0,1124,target,"[(1160, 782)]",[],[1],[0.7833333333333333],horizontal,"(890.0, 762.0)",1.283333333,0.736,1,17217.622,3,0,0.25
0,1125,target,"[(1174, 783)]",[],[1],[0.6166666666666667],vertical,"(390.0, 762.0)",0.833333333,0.573,1,17224.272,3,0,0.25
0,1126,target,"[(1159, 790)]",[],[1],[0.7166666666666667],horizontal,"(390.0, 762.0)",1.033333333,0.677,1,17229.843,3,0,0.25
0,1127,target,"[(1163, 793)]",[],[1],[0.5],vertical,"(890.0, 262.0)",1.066666667,0.464,1,17235.847,3,0,0.25
0,1128,target,"[(1159, 789)]",[],[1],[0.85],vertical,"(390.0, 762.0)",0.466666667,nan,0,17241.78,0,0,0.25
0,1129,target,"[(1163, 787)]",[],[1],[0.6],horizontal,"(390.0, 262.0)",0.466666667,0.557,1,17245.83,1,0,0.25
0,1130,target,"[(1158, 789)]",[],[1],[0.4166666666666667],horizontal,"(890.0, 762.0)",1.366666667,0.378,1,17250.663,1,0,0.25
0,1131,target,"[(1175, 791)]",[],[1],[0.6166666666666667],vertical,"(390.0, 262.0)",0.666666667,0.579,1,17255.797,1,0,0.25
0,1132,catch,"[(1155, 774)]",[],[1],[],horizontal,"(390.0, 762.0)",1.65,nan,1,17260.33,2,0,0.25
0,1133,target,"[(1165, 793)]",[],[1],[0.5333333333333333],horizontal,"(390.0, 262.0)",0.716666667,0.49,1,17266.346,2,0,0.25
0,1134,target,"[(1137, 804)]",[],[1],[0.45],horizontal,"(390.0, 762.0)",1.3,0.412,1,17272.198,2,0,0.25
0,1135,target,"[(1161, 794)]",[],[1],[0.5333333333333333],vertical,"(890.0, 762.0)",0.433333333,0.489,1,17278.114,2,0,0.25
0,1136,catch,"[(1160, 793)]",[],[1],[],horizontal,"(890.0, 262.0)",1.65,nan,1,17283.298,3,0,0.25
0,1137,target,"[(1179, 792)]",[],[1],[0.45],horizontal,"(890.0, 762.0)",1.283333333,0.415,1,17289.792,3,0,0.25
0,1138,catch,"[(1148, 794)]",[],[1],[],horizontal,"(890.0, 762.0)",1.65,nan,1,17296.047,3,0,0.25
0,1139,target,"[(1170, 787)]",[],[1],[0.6166666666666667],horizontal,"(390.0, 762.0)",0.833333333,0.575,1,17302.464,3,0,0.25
0,1140,target,"[(1140, 795)]",[],[1],[0.5666666666666667],horizontal,"(390.0, 262.0)",0.616666667,0.53,1,17308.001,3,0,0.25
0,1141,target,"[(1170, 786)]",[],[1],[0.5333333333333333],vertical,"(390.0, 762.0)",1.466666667,0.5,1,17313.031,3,0,0.25
0,1142,catch,"[(1175, 779)]",[],[1],[],vertical,"(890.0, 262.0)",1.65,nan,1,17318.964,3,0,0.25
0,1143,catch,"[(1160, 796)]",[],[1],[],vertical,"(390.0, 762.0)",1.65,nan,1,17324.938,3,0,0.25
0,1144,target,"[(1154, 778)]",[],[1],[0.7],horizontal,"(890.0, 262.0)",0.533333333,0.663,1,17330.716,3,0,0.25
0,1145,target,"[(1167, 798)]",[],[1],[0.5],vertical,"(890.0, 762.0)",0.766666667,0.468,1,17336.163,3,0,0.25
0,1146,target,"[(1133, 792)]",[],[1],[0.5166666666666666],vertical,"(890.0, 262.0)",0.983333333,0.476,1,17341.347,3,0,0.25
0,1147,target,"[(1160, 790)]",[],[1],[0.5333333333333333],vertical,"(390.0, 762.0)",0.566666667,0.489,1,17346.641,3,0,0.25
0,1148,target,"[(1158, 789)]",[],[1],[0.5333333333333333],vertical,"(890.0, 762.0)",1.116666667,0.496,1,17351.921,3,0,0.25
0,1149,target,"[(1175, 807)]",[],[1],[0.65],horizontal,"(890.0, 762.0)",0.85,0.602,1,17357.663,3,0,0.25
0,1150,catch,"[(1183, 785)]",[],[1],[],vertical,"(890.0, 762.0)",1.65,nan,1,17363.525,3,0,0.25
0,1151,target,"[(1175, 799)]",[],[1],[0.4166666666666667],vertical,"(390.0, 762.0)",1.45,0.381,1,17369.697,3,0,0.25
0,1152,catch,"[(1172, 799)]",[],[1],[],vertical,"(890.0, 262.0)",1.65,nan,1,17375.899,3,0,0.25
0,1153,target,"[(1147, 799)]",[],[1],[0.55],horizontal,"(390.0, 262.0)",0.5,0.51,1,17382.02,3,0,0.25
0,1154,target,"[(1175, 787)]",[],[1],[0.4166666666666667],horizontal,"(390.0, 762.0)",1.3,0.374,1,17387.26,3,0,0.25
0,1155,target,"[(1162, 795)]",[],[1],[0.7],horizontal,"(890.0, 762.0)",1.283333333,0.656,1,17393.235,3,0,0.25
0,1156,target,"[(1150, 802)]",[],[1],[0.75],horizontal,"(890.0, 262.0)",1.233333333,0.704,1,17399.202,3,0,0.25
0,1157,target,"[(1175, 776)]",[],[1],[0.55],horizontal,"(890.0, 762.0)",0.6,0.513,1,17405.015,3,0,0.25
0,1158,target,"[(1184, 801)]",[],[1],[0.23333333333333334],horizontal,"(890.0, 762.0)",1.05,0.194,0,17410.131,0,0,0.25
0,1159,target,"[(1134, 795)]",[],[1],[0.5166666666666666],vertical,"(390.0, 262.0)",0.616666667,0.474,1,17414.681,1,0,0.25
0,1160,target,"[(1135, 792)]",[],[1],[0.5666666666666667],vertical,"(890.0, 262.0)",0.566666667,0.52,1,17419.597,1,0,0.25
0,1161,target,"[(1170, 789)]",[],[1],[0.5833333333333334],vertical,"(390.0, 262.0)",0.783333333,0.536,1,17424.447,1,0,0.25
0,1162,catch,"[(1166, 778)]",[],[1],[],vertical,"(890.0, 262.0)",1.65,nan,1,17429.426,2,0,0.25
0,1163,catch,"[(1147, 802)]",[],[1],[],horizontal,"(390.0, 262.0)",1.65,nan,1,17435.031,2,0,0.25
0,1164,target,"[(1165, 795)]",[],[1],[0.85],vertical,"(890.0, 262.0)",0.716666667,nan,0,17440.624,0,0,0.25
0,1165,target,"[(1130, 780)]",[],[1],[0.5],vertical,"(890.0, 262.0)",1.516666667,0.46,1,17445.097,1,0,0.25
0,1166,target,"[(1160, 812)]",[],[1],[0.4666666666666667],horizontal,"(390.0, 762.0)",0.816666667,0.427,1,17450.475,1,0,0.25
0,1167,target,"[(1162, 796)]",[],[1],[0.15],vertical,"(390.0, 262.0)",1.533333333,0.116,0,17455.467,0,0,0.25
0,1168,target,"[(1162, 802)]",[],[1],[0.45],vertical,"(890.0, 762.0)",1.083333333,0.412,1,17460.209,1,0,0.25
0,1169,catch,"[(1162, 801)]",[],[1],[],horizontal,"(890.0, 262.0)",,"('cti', 1.623),nan",0,17465.2,0,0.02,0.25
0,1170,target,"[(1165, 801)]",[],[1],[0.6166666666666667],horizontal,"(390.0, 762.0)",1.333333333,0.572,1,17470.03,1,0.02,0.25
0,1171,target,"[(1136, 798)]",[],[1],[0.6],vertical,"(390.0, 762.0)",0.85,0.557,1,17475.784,1,0.02,0.25
0,1172,target,"[(1161, 802)]",[],[1],[0.6333333333333333],vertical,"(890.0, 762.0)",0.9,0.586,1,17483.113,1,0.02,0.25
0,1173,target,"[(1164, 793)]",[],[1],[0.85],horizontal,"(890.0, 262.0)",0.533333333,nan,0,17488.848,0,0.02,0.25
0,1174,target,"[(1131, 782)]",[],[1],[0.6166666666666667],vertical,"(890.0, 262.0)",0.95,0.571,1,17493.364,1,0.02,0.25
0,1175,target,"[(1157, 775)]",[],[1],[0.65],vertical,"(890.0, 262.0)",0.433333333,0.608,1,17498.514,1,0.02,0.25
0,1176,target,"[(1141, 816)]",[],[1],[0.55],vertical,"(890.0, 262.0)",1,0.509,1,17503.057,1,0.02,0.25
0,1177,target,"[(1169, 816)]",[],[1],[0.5333333333333333],horizontal,"(890.0, 762.0)",1.483333333,0.491,1,17508.242,2,0.02,0.25
0,1178,catch,"[(1165, 791)]",[],[1],[],horizontal,"(890.0, 262.0)",1.65,nan,1,17513.989,2,0.02,0.25
0,1179,target,"[(1175, 808)]",[],[1],[],horizontal,"(390.0, 262.0)",,"('cti', 1.343)",0,17519.632,0,0.04,0.25
0,1180,target,"[(1147, 773)]",[],[1],[0.85],horizontal,"(890.0, 262.0)",1.066666667,nan,0,17524.536,0,0.04,0.25
0,1181,target,"[(1163, 778)]",[],[1],[0.6],horizontal,"(390.0, 762.0)",0.65,0.559,1,17529.181,1,0.04,0.25
0,1182,target,"[(1171, 799)]",[],[1],[0.6],horizontal,"(890.0, 262.0)",1.016666667,0.561,1,17533.865,1,0.04,0.25
0,1183,target,"[(1164, 790)]",[],[1],[0.5166666666666666],horizontal,"(390.0, 262.0)",0.533333333,0.48,1,17538.846,1,0.04,0.25
0,1184,target,"[(1143, 776)]",[],[1],[0.55],horizontal,"(390.0, 762.0)",1,0.51,1,17543.315,2,0.04,0.25
0,1185,target,"[(1138, 790)]",[],[1],[0.5166666666666666],vertical,"(890.0, 262.0)",1.283333333,0.478,1,17549.397,2,0.04,0.25
0,1186,target,"[(1166, 783)]",[],[1],[0.5166666666666666],horizontal,"(890.0, 762.0)",1.05,0.476,1,17555.018,2,0.04,0.25
0,1187,catch,"[(1175, 786)]",[],[1],[],vertical,"(890.0, 262.0)",1.65,nan,1,17560.896,2,0.04,0.25
0,1188,target,"[(1130, 766)]",[],[1],[0.5333333333333333],horizontal,"(890.0, 762.0)",1.483333333,0.487,1,17566.448,3,0.04,0.25
0,1189,target,"[(1171, 808)]",[],[1],[0.6333333333333333],vertical,"(390.0, 262.0)",0.766666667,0.587,1,17573.364,3,0.04,0.25
0,1190,catch,"[(1166, 796)]",[],[1],[],vertical,"(390.0, 762.0)",1.65,nan,1,17579.086,3,0.04,0.25
0,1191,catch,"[(1177, 803)]",[],[1],[0.03333333333333333],vertical,"(390.0, 262.0)",1.65,"0.02,nan",0,17584.699,0,0.06,0.25
0,1192,catch,"[(1112, 787)]",[],[1],[],vertical,"(390.0, 262.0)",1.65,nan,1,17589.587,1,0.06,0.25
0,1193,target,"[(1160, 795)]",[],[1],[0.6166666666666667],horizontal,"(390.0, 762.0)",1.433333333,0.576,1,17596.299,1,0.06,0.25
0,1194,target,"[(1160, 803)]",[],[1],[0.7],horizontal,"(890.0, 262.0)",0.366666667,0.654,1,17601.609,1,0.06,0.25
0,1195,target,"[(1175, 824)]",[],[1],[0.31666666666666665],horizontal,"(390.0, 762.0)",1.533333333,0.281,1,17606.231,2,0.06,0.25
0,1196,catch,"[(1174, 803)]",[],[1],[],vertical,"(390.0, 762.0)",1.65,nan,1,17612.064,2,0.06,0.25
0,1197,target,"[(1165, 797)]",[],[1],[0.5666666666666667],vertical,"(890.0, 762.0)",0.916666667,0.528,1,17617.429,2,0.06,0.25
0,1198,target,"[(1169, 786)]",[],[1],[0.5166666666666666],horizontal,"(390.0, 262.0)",0.983333333,0.479,1,17622.731,2,0.06,0.25
0,1199,target,"[(1160, 801)]",[],[1],[0.65],horizontal,"(390.0, 762.0)",0.816666667,0.609,1,17628.298,3,0.06,0.25
0,1200,target,"[(1165, 792)]",[],[1],[0.6],horizontal,"(390.0, 762.0)",1.166666667,0.561,1,17634.481,3,0.06,0.25
0,1201,target,"[(1120, 825)]",[],[1],[0.5333333333333333],horizontal,"(890.0, 762.0)",1.333333333,0.502,1,17640.282,3,0.06,0.25
0,1202,catch,"[(1154, 789)]",[],[1],[],horizontal,"(890.0, 262.0)",1.65,nan,1,17646.682,3,0.06,0.25
0,1203,target,"[(1158, 806)]",[],[1],[0.6833333333333333],vertical,"(890.0, 762.0)",1.05,0.642,1,17652.532,3,0.06,0.25
0,1204,target,"[(1167, 805)]",[],[1],[0.5166666666666666],vertical,"(390.0, 762.0)",0.733333333,0.478,1,17658.303,3,0.06,0.25
0,1205,target,"[(1157, 783)]",[],[1],[0.15],horizontal,"(890.0, 262.0)",1.433333333,0.12,0,17663.598,0,0.06,0.25
0,1206,target,"[(1110, 834)]",[],[1],[0.7666666666666666],horizontal,"(390.0, 262.0)",0.366666667,0.717,1,17668.981,1,0.06,0.25
0,1207,catch,"[(1130, 820)]",[],[1],[],vertical,"(390.0, 762.0)",1.65,nan,1,22988.882,1,0.06,0.25
0,1208,target,"[(1128, 824)]",[],[1],[0.7166666666666667],vertical,"(390.0, 762.0)",0.516666667,0.67,1,22994.377,1,0.06,0.25
0,1209,target,"[(1152, 803)]",[],[1],[0.65],horizontal,"(890.0, 762.0)",1.35,0.607,1,23000.438,2,0.06,0.25
0,1210,catch,"[(1162, 810)]",[],[1],[],horizontal,"(390.0, 262.0)",1.65,nan,1,23006.986,2,0.06,0.25
0,1211,target,"[(1143, 795)]",[],[1],[0.85],vertical,"(890.0, 262.0)",0.816666667,nan,0,23013.124,0,0.06,0.25
0,1212,catch,"[(1145, 821)]",[],[1],[],horizontal,"(390.0, 762.0)",1.65,nan,1,23018.291,1,0.06,0.25
0,1213,target,"[(1135, 780)]",[],[1],[0.85],horizontal,"(390.0, 762.0)",0.366666667,nan,0,23023.698,0,0.06,0.25
0,1214,target,"[(1158, 797)]",[],[1],[0.85],vertical,"(890.0, 762.0)",1.4,nan,0,23028.619,0,0.06,0.25
0,1215,target,"[(1155, 806)]",[],[1],[],horizontal,"(890.0, 262.0)",,"('cti', 1.387)",0,23033.602,0,0.08,0.25
0,1216,catch,"[(1132, 813)]",[],[1],[],horizontal,"(390.0, 262.0)",1.65,nan,1,23038.436,1,0.08,0.25
0,1217,target,"[(1169, 789)]",[],[1],[0.7333333333333333],horizontal,"(890.0, 762.0)",1.2,0.687,1,23044.019,1,0.08,0.25
0,1218,target,"[(1173, 807)]",[],[1],[0.6],horizontal,"(890.0, 262.0)",0.716666667,0.556,1,23050.026,1,0.08,0.25
0,1219,catch,"[(1164, 791)]",[],[1],[],horizontal,"(890.0, 262.0)",1.65,nan,1,23055.207,2,0.06,0.25
0,1220,target,"[(1160, 800)]",[],[1],[0.6166666666666667],vertical,"(390.0, 262.0)",0.716666667,0.578,1,23061.453,2,0.06,0.25
0,1221,target,"[(1145, 798)]",[],[1],[0.36666666666666664],horizontal,"(890.0, 262.0)",1.45,0.336,1,23067.019,2,0.06,0.25
0,1222,catch,"[(1143, 794)]",[],[1],[],vertical,"(390.0, 262.0)",1.65,nan,1,23073.219,2,0.06,0.25
0,1223,target,"[(1165, 800)]",[],[1],[0.6666666666666666],horizontal,"(890.0, 262.0)",0.566666667,0.624,1,23079.336,3,0.06,0.25
0,1224,target,"[(1163, 806)]",[],[1],[0.6833333333333333],horizontal,"(890.0, 262.0)",0.466666667,0.643,1,23085.302,3,0.06,0.25
0,1225,target,"[(1162, 809)]",[],[1],[0.5833333333333334],horizontal,"(390.0, 262.0)",0.733333333,0.545,1,23091.436,3,0.06,0.25
0,1226,catch,"[(1147, 786)]",[],[1],[],horizontal,"(390.0, 762.0)",1.65,nan,1,23097.754,3,0.06,0.25
0,1227,target,"[(1165, 794)]",[],[1],[0.7333333333333333],horizontal,"(390.0, 762.0)",0.433333333,0.685,1,23104.32,3,0.06,0.25
0,1228,target,"[(1165, 790)]",[],[1],[0.55],horizontal,"(890.0, 262.0)",1.066666667,0.511,1,23110.135,3,0.06,0.25
0,1229,catch,"[(1162, 793)]",[],[1],[],vertical,"(390.0, 762.0)",1.65,nan,1,23116.136,3,0.04,0.25
0,1230,target,"[(1163, 788)]",[],[1],[0.6166666666666667],horizontal,"(890.0, 762.0)",0.666666667,0.575,1,23122.122,3,0.04,0.25
0,1231,target,"[(1160, 796)]",[],[1],[0.5833333333333334],vertical,"(390.0, 262.0)",1.283333333,0.541,1,23127.853,3,0.04,0.25
0,1232,target,"[(1158, 792)]",[],[1],[0.5333333333333333],horizontal,"(890.0, 262.0)",1.116666667,0.489,1,23134.036,3,0.04,0.25
0,1233,target,"[(1172, 794)]",[],[1],[0.6],vertical,"(390.0, 762.0)",0.666666667,0.558,1,23140.208,3,0.04,0.25
0,1234,target,"[(1134, 788)]",[],[1],[0.4666666666666667],horizontal,"(890.0, 762.0)",1.5,0.426,1,23145.574,3,0.04,0.25
0,1235,target,"[(1160, 792)]",[],[1],[0.48333333333333334],vertical,"(890.0, 762.0)",1.516666667,0.445,1,23152.186,3,0.04,0.25
0,1236,target,"[(1172, 803)]",[],[1],[0.6166666666666667],horizontal,"(890.0, 262.0)",1.116666667,0.573,1,23158.353,3,0.04,0.25
0,1237,target,"[(1169, 798)]",[],[1],[0.55],horizontal,"(890.0, 762.0)",1.416666667,0.509,1,23164.505,3,0.04,0.25
0,1238,target,"[(1155, 799)]",[],[1],[0.55],vertical,"(890.0, 762.0)",1.05,0.507,1,23170.994,3,0.04,0.25
0,1239,target,"[(1173, 786)]",[],[1],[0.5666666666666667],vertical,"(890.0, 762.0)",1.016666667,0.525,1,23177.272,3,0.04,0.25
0,1240,target,"[(1180, 808)]",[],[1],[0.48333333333333334],horizontal,"(390.0, 262.0)",1.5,0.443,1,23183.242,3,0.04,0.25
0,1241,target,"[(1161, 802)]",[],[1],[0.5666666666666667],horizontal,"(890.0, 262.0)",1.266666667,0.525,1,23189.819,3,0.02,0.25
0,1242,catch,"[(1158, 778)]",[],[1],[],vertical,"(390.0, 262.0)",1.65,nan,1,23195.787,3,0.02,0.25
0,1243,target,"[(1156, 804)]",[],[1],[0.6166666666666667],vertical,"(390.0, 262.0)",1.133333333,0.573,1,23201.719,3,0.02,0.25
0,1244,target,"[(1171, 816)]",[],[1],[0.55],vertical,"(390.0, 262.0)",0.8,0.511,1,23208.176,3,0.02,0.25
0,1245,target,"[(1154, 788)]",[],[1],[0.6166666666666667],vertical,"(890.0, 262.0)",0.566666667,0.572,1,23213.832,3,0.02,0.25
0,1246,target,"[(1160, 783)]",[],[1],[0.5666666666666667],vertical,"(390.0, 762.0)",1.35,0.524,1,23219.554,3,0.02,0.25
0,1247,target,"[(1160, 792)]",[],[1],[0.5666666666666667],vertical,"(390.0, 262.0)",0.616666667,0.527,1,23225.94,3,0.02,0.25
0,1248,target,"[(1171, 783)]",[],[1],[0.6],horizontal,"(890.0, 262.0)",1.15,0.557,1,23231.521,3,0.02,0.25
0,1249,catch,"[(1179, 818)]",[],[1],[],vertical,"(890.0, 262.0)",1.65,nan,1,23237.953,3,0.02,0.25
0,1250,target,"[(1157, 781)]",[],[1],[0.7166666666666667],horizontal,"(390.0, 262.0)",0.45,0.667,1,23243.886,3,0.02,0.25
0,1251,catch,"[(1150, 778)]",[],[1],[],horizontal,"(390.0, 762.0)",1.65,nan,1,23249.02,3,0.02,0.25
0,1252,target,"[(1122, 785)]",[],[1],[0.55],vertical,"(890.0, 262.0)",0.783333333,0.508,1,23254.981,3,0.02,0.25
0,1253,catch,"[(1163, 782)]",[],[1],[],vertical,"(890.0, 262.0)",1.65,nan,1,23260.919,3,0.02,0.25
0,1254,target,"[(1140, 781)]",[],[1],[0.6333333333333333],vertical,"(890.0, 262.0)",0.633333333,0.595,1,23266.563,3,0.02,0.25
0,1255,target,"[(1160, 792)]",[],[1],[0.5833333333333334],horizontal,"(390.0, 762.0)",0.65,0.538,1,23272.536,3,0.02,0.25
0,1256,catch,"[(1159, 778)]",[],[1],[],horizontal,"(390.0, 762.0)",1.65,nan,1,23278.387,3,0.02,0.25
0,1257,catch,"[(1160, 789)]",[],[1],[],horizontal,"(390.0, 762.0)",1.65,nan,1,23284.706,3,0.02,0.25
0,1258,target,"[(1162, 791)]",[],[1],[0.6333333333333333],horizontal,"(390.0, 762.0)",0.35,0.588,1,23291.003,3,0.02,0.25
0,1259,catch,"[(1174, 804)]",[],[1],[],vertical,"(890.0, 262.0)",1.65,nan,1,23295.868,3,0.02,0.25
0,1260,target,"[(1155, 803)]",[],[1],[0.7166666666666667],vertical,"(890.0, 262.0)",0.616666667,0.665,1,23301.962,3,0.02,0.25
0,1261,target,"[(1171, 796)]",[],[1],[0.7166666666666667],vertical,"(390.0, 262.0)",0.95,0.667,1,23307.719,3,0.02,0.25
0,1262,catch,"[(1160, 793)]",[],[1],[],horizontal,"(890.0, 262.0)",1.65,nan,1,23313.87,3,0.02,0.25
0,1263,target,"[(1160, 792)]",[],[1],[0.5666666666666667],vertical,"(890.0, 762.0)",0.366666667,0.526,1,23320.005,3,0.02,0.25
0,1264,target,"[(1160, 792)]",[],[1],[0.65],vertical,"(890.0, 762.0)",0.4,0.605,1,23325.661,3,0.02,0.25
0,1265,target,"[(1153, 782)]",[],[1],[0.6166666666666667],vertical,"(890.0, 762.0)",1.266666667,0.571,1,23330.788,3,0,0.25
0,1266,target,"[(1170, 800)]",[],[1],[0.65],horizontal,"(390.0, 762.0)",1.116666667,0.606,1,23336.671,3,0,0.25
0,1267,target,"[(1161, 803)]",[],[1],[0.6166666666666667],vertical,"(390.0, 262.0)",1.25,0.579,1,23342.837,3,0,0.25
0,1268,target,"[(1175, 794)]",[],[1],[0.65],vertical,"(890.0, 762.0)",0.816666667,0.604,1,23349.305,3,0,0.25
0,1269,target,"[(1170, 793)]",[],[1],[0.55],horizontal,"(890.0, 262.0)",1.2,0.512,1,23355.571,3,0,0.25
0,1270,target,"[(1126, 779)]",[],[1],[0.7166666666666667],vertical,"(390.0, 762.0)",1.466666667,0.671,1,23361.896,3,0,0.25
0,1271,target,"[(1160, 792)]",[],[1],[0.6],vertical,"(890.0, 762.0)",0.616666667,0.555,1,23368.638,3,0,0.25
0,1272,target,"[(1140, 795)]",[],[1],[0.6],vertical,"(390.0, 262.0)",1.116666667,0.558,1,23374.571,3,0,0.25
0,1273,target,"[(1154, 799)]",[],[1],[0.65],vertical,"(390.0, 762.0)",0.666666667,0.607,1,23380.203,3,0,0.25
0,1274,target,"[(1160, 789)]",[],[1],[0.55],horizontal,"(390.0, 262.0)",0.616666667,0.527,1,23386.193,3,0,0.25
0,1275,target,"[(1116, 793)]",[],[1],[0.5166666666666666],vertical,"(890.0, 262.0)",0.933333333,0.478,1,23391.857,3,0,0.25
0,1276,target,"[(1160, 786)]",[],[1],[0.6],vertical,"(890.0, 762.0)",0.7,0.576,1,23398.155,3,0,0.25
0,1277,catch,"[(1176, 795)]",[],[1],[],horizontal,"(390.0, 762.0)",1.65,nan,1,23403.79,3,0,0.25
0,1278,target,"[(1170, 799)]",[],[1],[0.5333333333333333],vertical,"(390.0, 762.0)",1.15,0.49,1,23409.561,3,0,0.25
0,1279,target,"[(1136, 797)]",[],[1],[0.5833333333333334],vertical,"(890.0, 762.0)",1.333333333,0.541,1,23415.52,3,0,0.25
0,1280,target,"[(1175, 787)]",[],[1],[0.85],horizontal,"(890.0, 262.0)",1,nan,0,23421.67,0,0,0.25
0,1281,target,"[(1166, 815)]",[],[1],[0.5666666666666667],vertical,"(390.0, 262.0)",1.15,0.526,1,23426.27,1,0,0.25
0,1282,target,"[(1136, 789)]",[],[1],[0.85],horizontal,"(890.0, 762.0)",0.45,nan,0,23431.546,0,0,0.25
0,1283,target,"[(1112, 795)]",[],[1],[0.55],horizontal,"(890.0, 762.0)",1.516666667,0.507,1,23436.394,1,0,0.25
0,1284,target,"[(1174, 808)]",[],[1],[0.5166666666666666],horizontal,"(890.0, 762.0)",1.5,0.475,1,23442.217,1,0,0.25
0,1285,target,"[(1160, 791)]",[],[1],[0.55],vertical,"(890.0, 762.0)",0.633333333,0.511,1,23447.854,1,0,0.25
0,1286,target,"[(1173, 794)]",[],[1],[0.6833333333333333],vertical,"(390.0, 262.0)",0.766666667,0.635,1,23452.604,2,0,0.25
0,1287,target,"[(1160, 787)]",[],[1],[0.5833333333333334],horizontal,"(390.0, 262.0)",1,0.542,1,23458.687,2,0,0.25
0,1288,catch,"[(1171, 808)]",[],[1],[],horizontal,"(390.0, 762.0)",1.65,nan,1,23464.221,2,0,0.25
0,1289,target,"[(1175, 803)]",[],[1],[0.6],horizontal,"(890.0, 762.0)",1.433333333,0.56,1,23470.221,2,0,0.25
0,1290,target,"[(1156, 811)]",[],[1],[0.7],horizontal,"(890.0, 262.0)",0.816666667,0.653,1,23476.309,3,0,0.25
0,1291,catch,"[(1155, 808)]",[],[1],[],vertical,"(890.0, 762.0)",1.65,nan,1,23482.704,3,0,0.25
0,1292,target,"[(1174, 792)]",[],[1],[0.55],horizontal,"(390.0, 262.0)",0.716666667,0.508,1,23488.888,3,0,0.25
0,1293,catch,"[(1203, 791)]",[],[1],[],vertical,"(390.0, 262.0)",1.65,nan,1,23494.603,3,0,0.25
0,1294,target,"[(1151, 788)]",[],[1],[0.5333333333333333],vertical,"(390.0, 262.0)",0.6,0.495,1,23500.886,3,0,0.25
0,1295,catch,"[(1166, 787)]",[],[1],[],horizontal,"(890.0, 762.0)",1.65,nan,1,23506.789,3,0,0.25
0,1296,target,"[(1170, 817)]",[],[1],[0.5333333333333333],horizontal,"(890.0, 262.0)",1,0.496,1,23512.963,3,0,0.25
0,1297,target,"[(1141, 798)]",[],[1],[0.7],horizontal,"(890.0, 262.0)",0.616666667,0.652,1,23518.654,3,0,0.25
0,1298,target,"[(1171, 794)]",[],[1],[0.55],vertical,"(890.0, 762.0)",0.716666667,0.51,1,23524.639,3,0,0.25
0,1299,target,"[(1158, 817)]",[],[1],[0.6666666666666666],horizontal,"(890.0, 262.0)",1.283333333,0.622,1,23530.703,3,0,0.25
0,1300,target,"[(1172, 810)]",[],[1],[0.5833333333333334],vertical,"(390.0, 762.0)",0.35,0.543,1,23537.472,3,0,0.25
0,1301,target,"[(1157, 827)]",[],[1],[0.6],vertical,"(890.0, 262.0)",1.166666667,0.553,1,23543.232,3,0,0.25
0,1302,catch,"[(1165, 792)]",[],[1],[],vertical,"(890.0, 262.0)",1.65,nan,1,23549.838,3,0,0.25
0,1303,catch,"[(1160, 808)]",[],[1],[],horizontal,"(390.0, 762.0)",1.65,nan,1,23556.17,3,0,0.25
0,1304,target,"[(1156, 797)]",[],[1],[0.5833333333333334],vertical,"(890.0, 262.0)",1.233333333,0.546,1,23562.817,3,0,0.25
0,1305,target,"[(1175, 793)]",[],[1],[0.55],horizontal,"(890.0, 262.0)",1.133333333,0.505,1,23569.488,3,0,0.25
0,1306,target,"[(1155, 783)]",[],[1],[0.5166666666666666],vertical,"(390.0, 762.0)",0.916666667,0.475,1,23575.917,3,0,0.25
0,1307,target,"[(1156, 795)]",[],[1],[0.55],vertical,"(890.0, 762.0)",1.216666667,0.514,1,23581.571,3,0,0.25
0,1308,target,"[(1165, 795)]",[],[1],[0.5333333333333333],horizontal,"(390.0, 262.0)",0.65,0.489,1,23587.62,3,0,0.25
0,1309,target,"[(1162, 797)]",[],[1],[0.2833333333333333],vertical,"(390.0, 762.0)",1.416666667,0.245,1,23593.57,3,0,0.25
0,1310,target,"[(1161, 806)]",[],[1],[0.6666666666666666],vertical,"(890.0, 762.0)",0.75,0.627,1,23600.155,3,0,0.25
0,1311,catch,"[(1180, 807)]",[],[1],[],horizontal,"(890.0, 262.0)",1.65,nan,1,23606.595,3,0,0.25
0,1312,target,"[(1136, 792)]",[],[1],[0.6666666666666666],vertical,"(390.0, 762.0)",0.85,0.624,1,23612.99,3,0,0.25
