block,trial,trial_type,taps_start_loc_during_fix,taps_end_loc_during_fix,taps_on_lever_during_fix,taps_on_lever_s_during_fix,bar_orientation,target_xy,cti,rt,acc,time,pulses,fa_rate_recent100,p_catch
0,1,target,"[(1025, 823)]",[],[1],[0.7333333333333333],vertical,"(890.0, 262.0)",1.4,0.688,1,0.366,1,0.0,0.1
0,2,target,"[(1018, 838)]",[],[1],[0.85],horizontal,"(890.0, 762.0)",1.45,nan,0,103.127,0,0.0,0.1
0,3,target,"[(1056, 838)]",[],[1],[0.7],vertical,"(890.0, 762.0)",1.1666666666666667,0.65,1,108.244,1,0.0,0.1
0,4,target,"[(1029, 795)]",[],[1],[0.85],vertical,"(890.0, 762.0)",0.9333333333333333,nan,0,115.967,0,0.0,0.1
0,5,target,"[(517, 505), (1029, 872)]",[],"[0, 1]",[0.85],vertical,"(390.0, 262.0)",0.6166666666666667,nan,0,120.676,0,0.0,0.1
0,6,target,"[(1020, 816)]",[],[1],[0.85],vertical,"(390.0, 262.0)",0.45,nan,0,127.194,0,0.0,0.1
0,7,target,"[(1002, 806), (1041, 861)]",[],"[0, 1]",[0.85],horizontal,"(890.0, 262.0)",1.3333333333333333,nan,0,131.629,0,0.0,0.1
0,8,target,"[(1017, 930)]",[],[1],[],vertical,"(390.0, 762.0)",,"('fix', 0.285)",0,148.027,0,0.0,0.1
0,9,target,"[(1006, 823)]",[],[1],[0.35],vertical,"(890.0, 262.0)",1.3666666666666667,0.317,1,152.345,1,0.0,0.1
0,10,target,"[(1033, 806)]",[],[1],[0.5833333333333334],vertical,"(890.0, 762.0)",0.75,0.542,1,160.051,1,0.0,0.1
0,11,target,"[(1052, 813)]",[],[1],[0.6666666666666666],horizontal,"(390.0, 262.0)",0.9833333333333333,0.618,1,164.752,1,0.0,0.1
0,12,target,"[(1040, 811)]",[],[1],[0.6333333333333333],horizontal,"(390.0, 262.0)",1.1666666666666667,0.589,1,169.503,2,0.0,0.1
0,13,target,"[(1055, 787)]",[],[1],[0.7],vertical,"(890.0, 762.0)",0.5,0.666,1,174.81,2,0.0,0.1
0,14,target,"[(1032, 811)]",[],[1],[0.5833333333333334],horizontal,"(890.0, 762.0)",1.15,0.542,1,179.25,2,0.0,0.1
0,15,target,"[(1035, 776)]",[],[1],[0.6333333333333333],horizontal,"(390.0, 262.0)",0.3833333333333333,0.592,1,184.753,2,0.0,0.1
0,16,target,"[(1060, 802)]",[],[1],[0.5333333333333333],vertical,"(890.0, 262.0)",1.1666666666666667,0.493,1,189.195,3,0.0,0.1
0,17,target,"[(1033, 790)]",[],[1],[0.48333333333333334],horizontal,"(390.0, 762.0)",1.15,0.441,1,194.642,3,0.0,0.1
0,18,target,"[(1066, 773)]",[],[1],[0.5666666666666667],horizontal,"(390.0, 262.0)",0.5833333333333334,0.524,1,200.177,3,0.0,0.1
0,19,target,"[(1049, 776)]",[],[1],[0.5333333333333333],vertical,"(390.0, 762.0)",0.9833333333333333,0.497,1,205.177,3,0.0,0.1
0,20,target,"[(1041, 769)]",[],[1],[0.5333333333333333],vertical,"(890.0, 262.0)",0.8333333333333334,0.488,1,210.512,3,0.0,0.1
0,21,target,"[(1025, 782)]",[],[1],[0.6],horizontal,"(890.0, 262.0)",0.7333333333333333,0.553,1,216.272,3,0.0,0.1
0,22,target,"[(1055, 776)]",[],[1],[0.65],vertical,"(890.0, 762.0)",0.8833333333333333,0.607,1,221.329,3,0.0,0.1
0,23,catch,"[(1034, 779)]",[],[1],[],horizontal,"(890.0, 762.0)",1.6,"('cti', 1.583),nan",0,226.594,0,0.043478260869565216,0.1
0,24,target,"[(1034, 787)]",[],[1],[0.5666666666666667],vertical,"(890.0, 262.0)",0.5833333333333334,0.528,1,230.974,1,0.041666666666666664,0.1
0,25,target,"[(1057, 766)]",[],[1],[0.5166666666666666],vertical,"(890.0, 262.0)",1.1,0.477,1,235.794,1,0.04,0.1
0,26,target,"[(1048, 778)]",[],[1],[0.55],vertical,"(390.0, 262.0)",1.05,0.511,1,240.927,1,0.038461538461538464,0.1
0,27,target,"[(1053, 787)]",[],[1],[0.5166666666666666],horizontal,"(890.0, 262.0)",1.1833333333333333,0.471,1,245.926,2,0.037037037037037035,0.1
0,28,target,"[(1037, 765)]",[],[1],[0.31666666666666665],vertical,"(390.0, 262.0)",1.05,0.279,1,251.527,2,0.03571428571428571,0.1
0,29,target,"[(1057, 806)]",[],[1],[0.5333333333333333],horizontal,"(390.0, 762.0)",1.0333333333333332,0.495,1,256.658,2,0.034482758620689655,0.1
0,30,target,"[(1056, 801)]",[],[1],[0.5666666666666667],vertical,"(890.0, 762.0)",0.6833333333333333,0.526,1,261.736,2,0.03333333333333333,0.1
0,31,target,"[(1046, 795)]",[],[1],[0.5],vertical,"(390.0, 262.0)",0.8,0.462,1,266.694,3,0.03225806451612903,0.1
0,32,target,"[(1069, 768)]",[],[1],[0.48333333333333334],horizontal,"(390.0, 262.0)",0.7166666666666667,0.442,1,272.394,3,0.03125,0.1
0,33,target,"[(1037, 792)]",[],[1],[0.55],horizontal,"(390.0, 262.0)",1.0666666666666667,0.505,1,277.661,3,0.030303030303030304,0.1
0,34,target,"[(1049, 772)]",[],[1],[0.13333333333333333],horizontal,"(390.0, 262.0)",1.5333333333333332,0.101,0,283.094,0,0.029411764705882353,0.1
0,35,target,"[(1033, 778)]",[],[1],[0.85],vertical,"(390.0, 262.0)",0.6,nan,0,287.716,0,0.02857142857142857,0.1
0,36,target,"[(1040, 802)]",[],[1],[0.8],vertical,"(390.0, 762.0)",0.8333333333333334,0.756,1,292.103,1,0.027777777777777776,0.1
0,37,target,"[(1055, 764)]",[],[1],[0.5],vertical,"(390.0, 262.0)",1.3166666666666667,0.459,1,297.406,1,0.02702702702702703,0.1
0,38,target,"[(1042, 770)]",[],[1],[0.7333333333333333],vertical,"(390.0, 262.0)",0.8166666666666667,0.685,1,302.578,1,0.02631578947368421,0.1
0,39,target,"[(1050, 757)]",[],[1],[0.5],vertical,"(890.0, 262.0)",0.9,0.456,1,307.474,2,0.02564102564102564,0.1
0,40,target,"[(1057, 776)]",[],[1],[0.5166666666666666],vertical,"(390.0, 262.0)",0.8333333333333334,0.475,1,312.145,2,0.025,0.1
0,41,target,"[(1043, 787)]",[],[1],[0.7],vertical,"(390.0, 262.0)",0.5166666666666666,0.657,1,317.154,2,0.024390243902439025,0.1
0,42,target,"[(1040, 795)]",[],[1],[0.48333333333333334],horizontal,"(390.0, 262.0)",0.75,0.443,1,321.629,2,0.023809523809523808,0.1
0,43,target,"[(1045, 782)]",[],[1],[0.85],horizontal,"(890.0, 262.0)",0.95,nan,0,326.694,0,0.023255813953488372,0.1
0,44,target,"[(1047, 812)]",[],[1],[0.85],horizontal,"(390.0, 262.0)",0.95,nan,0,331.795,0,0.022727272727272728,0.1
0,45,target,"[(1031, 886)]",[],[1],[0.85],horizontal,"(390.0, 262.0)",0.6,nan,0,336.496,0,0.022222222222222223,0.1
0,46,target,"[(1055, 838)]",[],[1],[0.11666666666666667],vertical,"(390.0, 262.0)",1.1166666666666667,0.084,0,362.946,0,0.021739130434782608,0.1
0,47,target,"[(1048, 809)]",[],[1],[0.5666666666666667],vertical,"(390.0, 762.0)",0.5833333333333334,0.528,1,369.078,1,0.02127659574468085,0.1
0,48,target,"[(1056, 799)]",[],[1],[0.5333333333333333],vertical,"(890.0, 262.0)",0.5166666666666666,0.491,1,373.711,1,0.020833333333333332,0.1
0,49,target,"[(1033, 791)]",[],[1],[0.3333333333333333],horizontal,"(890.0, 262.0)",1.4666666666666666,0.298,1,377.611,1,0.02040816326530612,0.1
0,50,catch,"[(1045, 776)]",[],[1],[],horizontal,"(390.0, 262.0)",1.6,nan,1,382.49,2,0.02,0.15
0,51,target,"[(1055, 785)]",[],[1],[0.5833333333333334],vertical,"(390.0, 262.0)",0.4166666666666667,0.539,1,387.816,2,0.02,0.15
0,52,target,"[(1032, 789)]",[],[1],[],horizontal,"(390.0, 762.0)",,"('cti', 0.955)",0,392.448,0,0.04,0.15
0,53,target,"[(1033, 783)]",[],[1],[0.7],horizontal,"(890.0, 762.0)",1.05,0.655,1,397.262,1,0.04,0.15
0,54,target,"[(1051, 767)]",[],[1],[0.08333333333333333],vertical,"(890.0, 762.0)",1.4666666666666666,0.053,0,402.062,0,0.04,0.15
0,55,target,"[(1025, 806)]",[],[1],[0.5166666666666666],horizontal,"(890.0, 262.0)",0.5333333333333333,0.481,1,406.546,1,0.04,0.15
0,56,target,"[(1037, 778)]",[],[1],[0.85],vertical,"(390.0, 262.0)",0.7,nan,0,411.146,0,0.04,0.15
0,57,target,"[(1033, 781)]",[],[1],[0.55],horizontal,"(390.0, 262.0)",1.1,0.508,1,415.345,1,0.04,0.15
0,58,target,"[(1052, 785)]",[],[1],[0.16666666666666666],vertical,"(890.0, 762.0)",1.4,0.135,0,419.912,0,0.04,0.15
0,59,catch,"[(1038, 788)]",[],[1],[],vertical,"(890.0, 762.0)",1.6,nan,1,424.378,1,0.04,0.15
0,60,target,"[(1079, 772)]",[],[1],[0.3333333333333333],horizontal,"(390.0, 762.0)",1.5333333333333332,0.3,1,429.527,1,0.04,0.15
0,61,target,"[(1057, 775)]",[],[1],[0.5],vertical,"(390.0, 762.0)",1.1333333333333333,0.46,1,434.829,1,0.04,0.15
0,62,target,"[(1077, 782)]",[],[1],[0.48333333333333334],horizontal,"(890.0, 262.0)",1.2166666666666666,0.445,1,439.256,2,0.04,0.15
0,63,catch,"[(1036, 755)]",[],[1],[],vertical,"(890.0, 262.0)",1.6,nan,1,444.716,2,0.04,0.15
0,64,target,"[(1059, 794)]",[],[1],[0.48333333333333334],vertical,"(890.0, 762.0)",1.0666666666666667,0.442,1,450.07,2,0.04,0.15
0,65,target,"[(1057, 775)]",[],[1],[0.23333333333333334],horizontal,"(390.0, 762.0)",1.4,0.197,0,455.349,0,0.04,0.15
0,66,target,"[(1049, 787)]",[],[1],[0.5666666666666667],horizontal,"(390.0, 762.0)",1.1333333333333333,0.525,1,459.983,1,0.04,0.15
0,67,catch,"[(1057, 789)]",[],[1],[],vertical,"(890.0, 262.0)",,"('cti', 1.586),nan",0,464.76,0,0.06,0.15
0,68,target,"[(1057, 792)]",[],[1],[0.6166666666666667],horizontal,"(890.0, 262.0)",0.5333333333333333,0.579,1,469.197,1,0.06,0.15
0,69,target,"[(1052, 779)]",[],[1],[0.5],horizontal,"(890.0, 262.0)",1.0666666666666667,0.461,1,473.369,1,0.06,0.15
0,70,target,"[(1031, 770)]",[],[1],[0.6333333333333333],horizontal,"(390.0, 762.0)",0.55,0.588,1,478.027,1,0.06,0.15
0,71,target,"[(1070, 788)]",[],[1],[0.6333333333333333],horizontal,"(390.0, 762.0)",0.6666666666666666,0.589,1,482.589,2,0.06,0.15
0,72,target,"[(1038, 760)]",[],[1],[0.5666666666666667],vertical,"(390.0, 262.0)",0.48333333333333334,0.523,1,487.952,2,0.06,0.15
0,73,target,"[(997, 757), (1029, 791)]",[],"[0, 1]",[0.3],horizontal,"(890.0, 262.0)",1.1,0.264,1,492.65,2,0.04,0.15
0,74,target,"[(1050, 790)]",[],[1],[0.6],horizontal,"(890.0, 762.0)",0.6,0.561,1,499.095,2,0.04,0.15
0,75,target,"[(1061, 790)]",[],[1],[0.5166666666666666],vertical,"(890.0, 762.0)",0.9,0.475,1,503.799,3,0.04,0.15
0,76,target,"[(1065, 772)]",[],[1],[0.85],vertical,"(390.0, 762.0)",0.6666666666666666,nan,0,508.861,0,0.04,0.15
0,77,target,"[(1033, 787)]",[],[1],[0.5333333333333333],vertical,"(890.0, 762.0)",0.43333333333333335,0.492,1,513.437,1,0.04,0.15
0,78,target,"[(1042, 789)]",[],[1],[0.5666666666666667],vertical,"(890.0, 762.0)",0.8333333333333334,0.526,1,517.762,1,0.04,0.15
0,79,target,"[(1033, 770)]",[],[1],[0.5166666666666666],vertical,"(890.0, 762.0)",0.7333333333333333,0.481,1,522.2,1,0.04,0.15
0,80,target,"[(1054, 794)]",[],[1],[0.4666666666666667],horizontal,"(390.0, 262.0)",0.6,0.428,1,526.679,2,0.04,0.15
0,81,target,"[(1039, 769)]",[],[1],[0.5333333333333333],vertical,"(890.0, 262.0)",0.6166666666666667,0.498,1,531.349,2,0.04,0.15
0,82,target,"[(1057, 785)]",[],[1],[0.5666666666666667],vertical,"(390.0, 262.0)",0.36666666666666664,0.522,1,535.845,2,0.04,0.15
0,83,target,"[(1039, 776)]",[],[1],[0.43333333333333335],vertical,"(390.0, 762.0)",1.3666666666666667,0.39,1,540.823,2,0.04,0.15
0,84,target,"[(1054, 775)]",[],[1],[0.26666666666666666],horizontal,"(390.0, 762.0)",0.8166666666666667,0.231,1,546.071,3,0.04,0.15
0,85,target,"[(1033, 753), (1032, 796)]",[],"[0, 1]",[0.6166666666666667],horizontal,"(390.0, 262.0)",0.8666666666666667,0.578,1,551.233,3,0.04,0.15
0,86,target,"[(1050, 744), (1029, 806)]",[],"[0, 1]",[0.18333333333333332],vertical,"(890.0, 262.0)",1.0,0.149,0,557.649,0,0.04,0.15
0,87,catch,"[(1039, 792)]",[],[1],[],vertical,"(390.0, 262.0)",,"('cti', 1.344),nan",0,563.158,0,0.06,0.15
0,88,target,"[(1033, 797)]",[],[1],[0.65],vertical,"(890.0, 762.0)",0.55,0.607,1,567.808,1,0.06,0.15
0,89,target,"[(1031, 796)]",[],[1],[0.5666666666666667],horizontal,"(890.0, 762.0)",0.6666666666666666,0.523,1,571.924,1,0.06,0.15
0,90,target,"[(1025, 762)]",[],[1],[0.6333333333333333],vertical,"(890.0, 762.0)",0.4166666666666667,0.589,1,576.796,1,0.06,0.15
0,91,target,"[(1037, 791)]",[],[1],[0.25],horizontal,"(390.0, 262.0)",1.4,0.217,1,581.189,2,0.06,0.15
0,92,target,"[(1033, 787)]",[],[1],[0.5333333333333333],horizontal,"(390.0, 762.0)",1.1666666666666667,0.496,1,586.689,2,0.06,0.15
0,93,target,"[(1025, 772)]",[],[1],[0.5666666666666667],horizontal,"(390.0, 762.0)",0.7,0.527,1,591.847,2,0.06,0.15
0,94,target,"[(1055, 772)]",[],[1],[0.6],vertical,"(390.0, 262.0)",0.7333333333333333,0.558,1,596.606,2,0.06,0.15
0,95,target,"[(1055, 770)]",[],[1],[0.08333333333333333],horizontal,"(390.0, 262.0)",1.4666666666666666,0.051,0,601.806,0,0.06,0.15
0,96,target,"[(1030, 790)]",[],[1],[0.43333333333333335],vertical,"(390.0, 762.0)",1.0833333333333333,0.397,1,606.322,1,0.06,0.15
0,97,target,"[(1060, 774)]",[],[1],[0.5333333333333333],horizontal,"(890.0, 762.0)",0.8833333333333333,0.496,1,611.377,1,0.06,0.15
0,98,target,"[(1052, 765)]",[],[1],[0.5666666666666667],vertical,"(390.0, 262.0)",0.65,0.529,1,616.108,1,0.06,0.15
0,99,catch,"[(1032, 790)]",[],[1],[],vertical,"(890.0, 762.0)",1.6,nan,1,620.645,2,0.06,0.15
0,100,target,"[(1033, 781)]",[],[1],[0.5666666666666667],horizontal,"(390.0, 762.0)",0.85,0.525,1,626.196,2,0.06,0.15
0,101,target,"[(1052, 766)]",[],[1],[0.6],horizontal,"(390.0, 762.0)",0.9833333333333333,0.558,1,631.045,2,0.06,0.15
0,102,target,"[(1030, 773)]",[],[1],[0.65],horizontal,"(890.0, 262.0)",0.43333333333333335,0.604,1,636.195,2,0.04,0.15
0,103,target,"[(1050, 757)]",[],[1],[0.08333333333333333],horizontal,"(890.0, 262.0)",1.4,0.053,0,641.145,0,0.04,0.15
0,104,catch,"[(1061, 792)]",[],[1],[],vertical,"(390.0, 762.0)",1.6,nan,1,645.506,1,0.04,0.15
0,105,target,"[(1032, 768)]",[],[1],[],horizontal,"(890.0, 762.0)",,"('cti', 1.41)",0,650.095,0,0.06,0.15
0,106,catch,"[(1029, 775)]",[],[1],[],vertical,"(890.0, 262.0)",,"('cti', 1.547),nan",0,654.704,0,0.08,0.25
0,107,target,"[(1041, 792)]",[],[1],[0.6333333333333333],horizontal,"(390.0, 762.0)",0.8666666666666667,0.587,1,659.261,1,0.08,0.25
0,108,target,"[(1029, 766)]",[],[1],[0.5166666666666666],vertical,"(890.0, 762.0)",0.7166666666666667,0.48,1,663.821,1,0.08,0.25
0,109,target,"[(1029, 769)]",[],[1],[0.7],vertical,"(890.0, 762.0)",0.4166666666666667,0.654,1,668.562,1,0.08,0.25
0,110,target,"[(1058, 781)]",[],[1],[0.6333333333333333],horizontal,"(390.0, 762.0)",0.45,0.601,1,673.163,2,0.08,0.25
0,111,target,"[(1061, 786)]",[],[1],[0.55],vertical,"(390.0, 762.0)",0.8333333333333334,0.51,1,678.377,2,0.08,0.25
0,112,target,"[(1055, 757)]",[],[1],[0.5666666666666667],vertical,"(390.0, 762.0)",0.45,0.524,1,683.163,2,0.08,0.25
0,113,target,"[(1057, 774)]",[],[1],[0.18333333333333332],horizontal,"(390.0, 262.0)",1.2666666666666666,0.151,0,688.162,0,0.08,0.25
0,114,catch,"[(1033, 773)]",[],[1],[],vertical,"(890.0, 762.0)",,"('cti', 1.539),nan",0,692.819,0,0.1,0.25
0,115,target,"[(1034, 790)]",[],[1],[],horizontal,"(890.0, 762.0)",,"('cti', 1.141)",0,697.445,0,0.12,0.25
0,116,target,"[(1053, 793)]",[],[1],[0.25],vertical,"(890.0, 762.0)",1.2833333333333332,0.211,1,701.825,1,0.12,0.25
0,117,target,"[(1055, 770)]",[],[1],[0.16666666666666666],horizontal,"(390.0, 762.0)",1.45,0.136,0,706.905,0,0.1,0.25
0,118,target,"[(1034, 814)]",[],[1],[0.35],vertical,"(890.0, 262.0)",1.3,0.32,1,711.429,1,0.1,0.25
0,119,target,"[(1033, 761)]",[],[1],[0.05],vertical,"(390.0, 262.0)",1.4666666666666666,0.02,0,719.563,0,0.1,0.25
0,120,target,"[(1052, 783)]",[],[1],[0.5],vertical,"(890.0, 762.0)",0.4,0.465,1,724.13,1,0.1,0.25
0,121,target,"[(1041, 771)]",[],[1],[0.5333333333333333],vertical,"(890.0, 262.0)",0.7,0.494,1,728.198,1,0.1,0.25
0,122,target,"[(1057, 781)]",[],[1],[0.3833333333333333],horizontal,"(890.0, 262.0)",1.1833333333333333,0.343,1,732.579,1,0.1,0.25
0,123,target,"[(1071, 781)]",[],[1],[0.08333333333333333],vertical,"(890.0, 262.0)",1.4833333333333334,0.052,0,737.129,0,0.1,0.25
0,124,target,"[(1033, 791)]",[],[1],[0.3333333333333333],horizontal,"(390.0, 262.0)",1.2333333333333334,0.296,1,742.18,1,0.1,0.25
0,125,target,"[(1035, 776)]",[],[1],[0.5333333333333333],vertical,"(390.0, 262.0)",0.3833333333333333,0.502,1,747.157,1,0.1,0.25
0,126,target,"[(1059, 787)]",[],[1],[0.5666666666666667],vertical,"(390.0, 762.0)",1.5166666666666666,0.529,1,751.563,1,0.1,0.25
0,127,catch,"[(1055, 777)]",[],[1],[],horizontal,"(890.0, 762.0)",,"('cti', 1.438),nan",0,756.599,0,0.12,0.25
0,128,target,"[(1032, 768)]",[],[1],[0.5166666666666666],vertical,"(390.0, 262.0)",0.85,0.479,1,761.363,1,0.12,0.25
0,129,target,"[(1057, 778)]",[],[1],[0.5],horizontal,"(890.0, 762.0)",1.1333333333333333,0.463,1,765.559,1,0.12,0.25
0,130,target,"[(1031, 769)]",[],[1],[0.65],vertical,"(890.0, 762.0)",0.8833333333333333,0.611,1,770.789,1,0.12,0.25
0,131,target,"[(1034, 781)]",[],[1],[0.55],horizontal,"(890.0, 262.0)",0.7666666666666666,0.51,1,775.602,2,0.12,0.25
0,132,target,"[(1033, 778)]",[],[1],[0.5],vertical,"(890.0, 262.0)",0.6166666666666667,0.461,1,780.791,2,0.12,0.25
0,133,target,"[(1052, 783)]",[],[1],[0.5],horizontal,"(390.0, 262.0)",0.4166666666666667,0.462,1,785.507,2,0.12,0.25
0,134,target,"[(1054, 790)]",[],[1],[0.5],vertical,"(890.0, 262.0)",0.45,0.464,1,790.27,2,0.12,0.25
0,135,target,"[(1057, 781)]",[],[1],[0.5833333333333334],horizontal,"(390.0, 762.0)",0.5,0.544,1,795.185,3,0.12,0.25
0,136,target,"[(1052, 764)]",[],[1],[0.48333333333333334],vertical,"(390.0, 762.0)",1.0666666666666667,0.443,1,800.417,3,0.12,0.25
0,137,target,"[(1032, 770)]",[],[1],[0.31666666666666665],horizontal,"(390.0, 262.0)",1.1833333333333333,0.277,1,805.996,3,0.1,0.25
0,138,target,"[(1055, 763)]",[],[1],[0.6],vertical,"(390.0, 262.0)",1.0,0.557,1,811.817,3,0.1,0.25
0,139,target,"[(1025, 775)]",[],[1],[0.6666666666666666],horizontal,"(890.0, 762.0)",0.5,0.633,1,817.405,3,0.1,0.25
0,140,target,"[(1057, 774)]",[],[1],[],horizontal,"(390.0, 262.0)",,"('cti', 1.283)",0,822.393,0,0.12,0.25
0,141,catch,"[(1038, 768)]",[],[1],[],vertical,"(890.0, 762.0)",1.6,nan,1,826.796,1,0.12,0.25
0,142,target,"[(1033, 786)]",[],[1],[0.5333333333333333],horizontal,"(890.0, 262.0)",0.5666666666666667,0.49,1,831.473,1,0.12,0.25
0,143,catch,"[(1069, 759)]",[],[1],[],horizontal,"(390.0, 262.0)",1.6,nan,1,835.951,1,0.12,0.25
0,144,target,"[(1057, 769)]",[],[1],[0.5166666666666666],horizontal,"(390.0, 262.0)",1.0333333333333332,0.476,1,840.601,2,0.12,0.25
0,145,target,"[(1059, 764)]",[],[1],[],vertical,"(890.0, 262.0)",,"('cti', 1.349)",0,845.823,0,0.14,0.25
0,146,target,"[(1047, 795)]",[],[1],[0.5333333333333333],vertical,"(890.0, 762.0)",0.5166666666666666,0.492,1,850.482,1,0.14,0.25
0,147,catch,"[(1033, 777)]",[],[1],[],horizontal,"(890.0, 762.0)",,"('cti', 1.56),nan",0,854.905,0,0.16,0.25
0,148,target,"[(1033, 761)]",[],[1],[0.5166666666666666],horizontal,"(390.0, 262.0)",0.95,0.479,1,859.622,1,0.16,0.25
0,149,catch,"[(1057, 793)]",[],[1],[],vertical,"(390.0, 262.0)",,"('cti', 1.502),nan",0,864.346,0,0.18,0.25
0,150,target,"[(1056, 796)]",[],[1],[0.31666666666666665],horizontal,"(390.0, 262.0)",1.2833333333333332,0.282,1,868.93,1,0.18,0.25
0,151,catch,"[(1033, 776)]",[],[1],[],vertical,"(390.0, 762.0)",,"('cti', 1.072),nan",0,873.875,0,0.2,0.25
0,152,target,"[(1033, 786)]",[],[1],[0.43333333333333335],vertical,"(890.0, 262.0)",1.2166666666666666,0.399,1,878.081,1,0.2,0.25
0,153,target,"[(1057, 779)]",[],[1],[0.85],horizontal,"(890.0, 762.0)",0.43333333333333335,nan,0,882.851,0,0.2,0.25
0,154,target,"[(1037, 796)]",[],[1],[0.48333333333333334],horizontal,"(390.0, 762.0)",1.45,0.445,1,887.179,1,0.2,0.25
0,155,catch,"[(1035, 783)]",[],[1],[],horizontal,"(390.0, 262.0)",1.6,nan,1,892.83,1,0.18,0.25
0,156,target,"[(1057, 781)]",[],[1],[0.55],vertical,"(890.0, 262.0)",0.5833333333333334,0.507,1,897.595,1,0.16,0.25
0,157,target,"[(1057, 786)]",[],[1],[0.5166666666666666],vertical,"(890.0, 262.0)",0.5,0.477,1,901.937,2,0.16,0.25
0,158,target,"[(1063, 786)]",[],[1],[0.11666666666666667],horizontal,"(390.0, 262.0)",1.4833333333333334,0.085,0,907.179,0,0.16,0.25
0,159,catch,"[(1032, 782)]",[],[1],[],horizontal,"(890.0, 262.0)",,"('cti', 1.238),nan",0,911.879,0,0.18,0.25
0,160,target,"[(1034, 791)]",[],[1],[0.43333333333333335],horizontal,"(890.0, 262.0)",1.1,0.396,1,916.44,1,0.18,0.25
0,161,target,"[(1028, 775)]",[],[1],[0.5166666666666666],horizontal,"(890.0, 762.0)",0.8166666666666667,0.476,1,921.064,1,0.18,0.25
0,162,catch,"[(1048, 786)]",[],[1],[],horizontal,"(390.0, 762.0)",1.6,nan,1,925.556,1,0.18,0.25
0,163,catch,"[(1034, 786)]",[],[1],[],vertical,"(390.0, 262.0)",1.6,nan,1,930.398,2,0.18,0.25
0,164,target,"[(1033, 795)]",[],[1],[],vertical,"(390.0, 762.0)",,"('cti', 1.224)",0,935.546,0,0.18,0.25
0,165,target,"[(1033, 837)]",[],[1],[0.85],vertical,"(390.0, 762.0)",1.1333333333333333,nan,0,940.19,0,0.16,0.25
0,166,target,"[(1033, 792)]",[],[1],[0.5833333333333334],vertical,"(390.0, 262.0)",1.1666666666666667,0.541,1,975.565,1,0.16,0.25
0,167,target,"[(1030, 790)]",[],[1],[0.5],horizontal,"(890.0, 762.0)",0.75,0.458,1,980.564,1,0.16,0.25
0,168,target,"[(1055, 799)]",[],[1],[0.55],vertical,"(890.0, 762.0)",1.1833333333333333,0.512,1,984.831,1,0.16,0.25
0,169,target,"[(1069, 801)]",[],[1],[0.7],horizontal,"(890.0, 262.0)",0.36666666666666664,0.648,1,989.964,2,0.16,0.25
0,170,target,"[(1032, 795)]",[],[1],[0.5],vertical,"(390.0, 762.0)",0.48333333333333334,0.457,1,995.033,2,0.16,0.25
0,171,target,"[(1057, 798)]",[],[1],[0.25],vertical,"(390.0, 262.0)",0.8,0.214,1,999.913,2,0.16,0.25
0,172,target,"[(1030, 791)]",[],[1],[0.4666666666666667],vertical,"(390.0, 262.0)",0.6833333333333333,0.432,1,1004.895,2,0.16,0.25
0,173,catch,"[(1033, 768)]",[],[1],[],vertical,"(890.0, 762.0)",,"('cti', 1.488),nan",0,1010.06,0,0.18,0.25
0,174,target,"[(1029, 820)]",[],[1],[0.65],horizontal,"(390.0, 262.0)",0.7833333333333333,0.607,1,1015.163,1,0.18,0.25
0,175,target,"[(1054, 795)]",[],[1],[0.5166666666666666],horizontal,"(890.0, 262.0)",0.45,0.484,1,1020.032,1,0.18,0.25
0,176,target,"[(1052, 775)]",[],[1],[0.2],horizontal,"(390.0, 762.0)",1.3833333333333333,0.169,0,1024.313,0,0.18,0.25
0,177,catch,"[(1041, 793)]",[],[1],[],vertical,"(390.0, 762.0)",,"('cti', 1.517),nan",0,1029.161,0,0.18,0.25
0,178,catch,"[(1029, 772)]",[],[1],[],vertical,"(390.0, 762.0)",1.6,nan,1,1033.732,1,0.18,0.25
0,179,catch,"[(1042, 776)]",[],[1],[],horizontal,"(890.0, 762.0)",1.6,nan,1,1038.455,1,0.18,0.25
0,180,target,"[(1033, 766)]",[],[1],[0.5666666666666667],horizontal,"(890.0, 762.0)",0.5166666666666666,0.531,1,1043.302,1,0.18,0.25
0,181,catch,"[(1057, 786)]",[],[1],[],horizontal,"(390.0, 262.0)",,"('cti', 1.554),nan",0,1047.547,0,0.2,0.25
0,182,catch,"[(1037, 797)]",[],[1],[],horizontal,"(390.0, 762.0)",1.6,nan,1,1052.392,1,0.2,0.25
0,183,target,"[(1029, 749), (1019, 796)]",[],"[0, 1]",[0.6333333333333333],vertical,"(890.0, 762.0)",0.45,0.596,1,1057.273,1,0.2,0.25
0,184,target,"[(1033, 761)]",[],[1],[0.8],vertical,"(390.0, 762.0)",0.7333333333333333,0.752,1,1062.902,1,0.2,0.25
0,185,target,"[(1057, 776)]",[],[1],[0.5666666666666667],vertical,"(390.0, 762.0)",1.2,0.526,1,1067.653,2,0.2,0.25
0,186,target,"[(1031, 765)]",[],[1],[0.5166666666666666],vertical,"(890.0, 762.0)",0.5333333333333333,0.472,1,1073.481,2,0.2,0.25
0,187,target,"[(1031, 770)]",[],[1],[0.4166666666666667],horizontal,"(390.0, 762.0)",1.25,0.383,1,1078.345,2,0.2,0.25
0,188,target,"[(1032, 766)]",[],[1],[0.65],vertical,"(390.0, 762.0)",0.36666666666666664,0.612,1,1083.455,2,0.2,0.25
0,189,target,"[(1052, 788)]",[],[1],[0.55],vertical,"(890.0, 262.0)",0.6666666666666666,0.507,1,1087.973,3,0.2,0.25
0,190,catch,"[(1029, 787)]",[],[1],[],horizontal,"(890.0, 262.0)",,"('cti', 1.456),nan",0,1093.465,0,0.2,0.25
0,191,catch,"[(1032, 791)]",[],[1],[],vertical,"(390.0, 262.0)",1.6,nan,1,1098.365,1,0.2,0.25
0,192,target,"[(1033, 802)]",[],[1],[0.5],vertical,"(390.0, 262.0)",1.1333333333333333,0.457,1,1103.572,1,0.2,0.25
0,193,target,"[(1037, 767)]",[],[1],[0.5],vertical,"(890.0, 762.0)",0.8666666666666667,0.461,1,1108.663,1,0.2,0.25
0,194,target,"[(1033, 786)]",[],[1],[],vertical,"(890.0, 762.0)",,"('cti', 1.438)",0,1113.165,0,0.22,0.25
0,195,catch,"[(1004, 833), (1034, 813)]",[],"[0, 1]",[],vertical,"(390.0, 262.0)",,"('cti', 1.239),nan",0,1117.899,0,0.22,0.25
0,196,target,"[(1025, 868)]",[],[1],[0.85],vertical,"(390.0, 262.0)",0.43333333333333335,nan,0,1124.657,0,0.22,0.25
0,197,target,"[(1057, 831)]",[],[1],[0.6833333333333333],horizontal,"(890.0, 762.0)",0.9666666666666667,0.645,1,1634.132,1,0.2,0.25
0,198,catch,"[(1034, 812)]",[],[1],[],horizontal,"(390.0, 262.0)",1.6,nan,1,1639.948,1,0.2,0.25
0,199,catch,"[(1048, 800)]",[],[1],[],horizontal,"(390.0, 262.0)",1.6,nan,1,1644.683,1,0.18,0.25
0,200,catch,"[(1033, 814)]",[],[1],[],vertical,"(890.0, 762.0)",1.6,nan,1,1649.699,2,0.18,0.25
0,201,catch,"[(1052, 812)]",[],[1],[],horizontal,"(890.0, 262.0)",1.6,nan,1,1654.775,2,0.16,0.25
0,202,catch,"[(1030, 782)]",[],[1],[],horizontal,"(390.0, 762.0)",1.6,"('cti', 1.584),nan",0,1659.79,0,0.18,0.25
0,203,catch,"[(1032, 799)]",[],[1],[],vertical,"(390.0, 762.0)",1.6,nan,1,1664.544,1,0.18,0.25
0,204,target,"[(1037, 799)]",[],[1],[0.6333333333333333],horizontal,"(390.0, 262.0)",1.2833333333333332,0.593,1,1669.748,1,0.18,0.25
0,205,target,"[(1033, 799)]",[],[1],[0.43333333333333335],vertical,"(390.0, 762.0)",1.25,0.396,1,1675.076,1,0.18,0.25
0,206,catch,"[(1042, 800)]",[],[1],[0.03333333333333333],horizontal,"(390.0, 762.0)",1.6,"0.019,nan",0,1680.262,0,0.2,0.25
0,207,target,"[(1043, 760)]",[],[1],[0.7833333333333333],vertical,"(390.0, 762.0)",0.7333333333333333,0.736,1,1684.748,1,0.2,0.25
0,208,target,"[(1049, 790)]",[],[1],[0.5333333333333333],horizontal,"(890.0, 762.0)",1.0,0.493,1,1689.673,1,0.2,0.25
0,209,target,"[(1053, 799)]",[],[1],[0.5333333333333333],vertical,"(390.0, 762.0)",0.9333333333333333,0.49,1,1694.704,1,0.18,0.25
0,210,target,"[(1040, 794)]",[],[1],[0.7333333333333333],vertical,"(390.0, 762.0)",0.7333333333333333,0.686,1,1699.423,2,0.18,0.25
0,211,target,"[(1066, 796)]",[],[1],[0.5666666666666667],horizontal,"(890.0, 762.0)",0.5,0.521,1,1704.67,2,0.18,0.25
0,212,target,"[(1033, 790)]",[],[1],[0.5166666666666666],vertical,"(890.0, 262.0)",1.0666666666666667,0.476,1,1709.259,2,0.18,0.25
0,213,target,"[(1034, 794)]",[],[1],[0.26666666666666666],vertical,"(390.0, 262.0)",1.5333333333333332,0.23,1,1714.573,2,0.18,0.25
0,214,target,"[(1047, 785)]",[],[1],[0.6166666666666667],horizontal,"(890.0, 762.0)",0.95,0.573,1,1719.917,3,0.16,0.25
0,215,target,"[(1020, 796)]",[],[1],[0.65],vertical,"(390.0, 262.0)",1.1,0.611,1,1725.57,3,0.16,0.25
0,216,target,"[(1037, 774)]",[],[1],[0.5333333333333333],horizontal,"(890.0, 262.0)",1.35,0.498,1,1731.45,3,0.16,0.25
0,217,catch,"[(1034, 767)]",[],[1],[],horizontal,"(390.0, 762.0)",1.6,nan,1,1737.267,3,0.16,0.25
0,218,target,"[(1052, 762)]",[],[1],[0.5166666666666666],vertical,"(390.0, 762.0)",1.2833333333333332,0.475,1,1742.703,3,0.16,0.25
0,219,target,"[(1051, 796)]",[],[1],[0.5666666666666667],horizontal,"(890.0, 262.0)",1.05,0.526,1,1748.27,3,0.16,0.25
0,220,target,"[(1067, 797)]",[],[1],[0.45],vertical,"(390.0, 262.0)",0.6333333333333333,0.405,1,1754.211,3,0.16,0.25
0,221,target,"[(1052, 769)]",[],[1],[0.48333333333333334],vertical,"(890.0, 762.0)",1.1833333333333333,0.439,1,1759.251,3,0.16,0.25
0,222,target,"[(1046, 758)]",[],[1],[0.6333333333333333],vertical,"(890.0, 262.0)",1.0,0.594,1,1764.881,3,0.16,0.25
0,223,catch,"[(1056, 764)]",[],[1],[0.03333333333333333],horizontal,"(890.0, 262.0)",1.6,"0.02,nan",0,1770.376,0,0.16,0.25
0,224,catch,"[(1041, 801)]",[],[1],[],horizontal,"(890.0, 262.0)",,"('cti', 1.568),nan",0,1774.765,0,0.18,0.25
0,225,target,"[(1056, 791)]",[],[1],[0.5333333333333333],vertical,"(890.0, 262.0)",0.5666666666666667,0.493,1,1779.4,1,0.18,0.25
0,226,target,"[(1060, 782)]",[],[1],[0.36666666666666664],horizontal,"(890.0, 262.0)",1.3166666666666667,0.33,1,1783.982,1,0.18,0.25
0,227,target,"[(1057, 780)]",[],[1],[0.65],horizontal,"(390.0, 762.0)",0.3833333333333333,0.611,1,1789.01,1,0.16,0.25
0,228,target,"[(1081, 802)]",[],[1],[],vertical,"(390.0, 262.0)",,"('cti', 1.085)",0,1793.304,0,0.18,0.25
0,229,target,"[(1036, 797)]",[],[1],[0.7166666666666667],vertical,"(890.0, 762.0)",0.4166666666666667,0.669,1,1797.521,1,0.18,0.25
0,230,target,"[(1077, 779)]",[],[1],[0.7166666666666667],vertical,"(890.0, 762.0)",0.95,0.673,1,1801.776,1,0.18,0.25
0,231,target,"[(1076, 795)]",[],[1],[0.55],horizontal,"(390.0, 762.0)",1.1,0.505,1,1806.474,1,0.16,0.25
0,232,target,"[(1062, 776)]",[],[1],[0.7166666666666667],vertical,"(390.0, 762.0)",1.0166666666666666,0.675,1,1811.5,2,0.16,0.25
0,233,target,"[(1037, 795)]",[],[1],[0.3333333333333333],horizontal,"(390.0, 262.0)",1.35,0.297,1,1816.681,2,0.16,0.25
0,234,target,"[(1037, 769)]",[],[1],[0.7],horizontal,"(890.0, 262.0)",0.7833333333333333,0.657,1,1822.132,2,0.16,0.25
0,235,target,"[(1044, 776)]",[],[1],[0.1],horizontal,"(890.0, 262.0)",1.4666666666666666,0.07,0,1827.608,0,0.16,0.25
0,236,target,"[(1052, 799)]",[],[1],[0.85],horizontal,"(390.0, 262.0)",1.4833333333333334,nan,0,1832.568,0,0.16,0.25
0,237,target,"[(1055, 796)]",[],[1],[0.85],vertical,"(390.0, 762.0)",1.5,nan,0,1837.717,0,0.16,0.25
0,238,target,"[(1030, 809)]",[],[1],[0.7166666666666667],vertical,"(390.0, 262.0)",0.8166666666666667,0.673,1,1842.816,1,0.16,0.25
0,239,target,"[(1065, 786)]",[],[1],[0.5833333333333334],horizontal,"(890.0, 262.0)",0.36666666666666664,0.543,1,1849.449,1,0.16,0.25
0,240,catch,"[(1037, 768)]",[],[1],[],horizontal,"(890.0, 262.0)",1.6,nan,1,1853.75,1,0.14,0.25
0,241,catch,"[(1050, 752), (1046, 780)]",[],"[0, 1]",[],vertical,"(890.0, 762.0)",1.6,nan,1,1858.633,2,0.14,0.25
0,242,target,"[(1041, 781)]",[],[1],[0.85],horizontal,"(390.0, 762.0)",1.2,nan,0,1865.266,0,0.14,0.25
0,243,target,"[(1036, 800)]",[],[1],[0.85],horizontal,"(390.0, 762.0)",0.35,nan,0,1870.2,0,0.14,0.25
0,244,catch,"[(1035, 790)]",[],[1],[],horizontal,"(890.0, 262.0)",1.6,nan,1,1874.255,1,0.12,0.25
0,245,target,"[(1042, 809)]",[],[1],[0.6],horizontal,"(390.0, 762.0)",0.7333333333333333,0.558,1,1879.366,1,0.1,0.25
0,246,catch,"[(1032, 778)]",[],[1],[],vertical,"(890.0, 262.0)",1.6,nan,1,1884.581,1,0.1,0.25
0,247,catch,"[(1039, 786)]",[],[1],[],horizontal,"(390.0, 262.0)",1.6,nan,1,1889.628,2,0.1,0.25
0,248,target,"[(1052, 762)]",[],[1],[0.11666666666666667],horizontal,"(390.0, 262.0)",1.0,0.086,0,1894.774,0,0.1,0.25
0,249,target,"[(1019, 839)]",[],[1],[0.85],vertical,"(890.0, 262.0)",0.5166666666666666,nan,0,1899.065,0,0.1,0.25
0,250,target,"[(1025, 802)]",[],[1],[0.3333333333333333],horizontal,"(890.0, 762.0)",1.2166666666666666,0.298,1,1905.827,1,0.1,0.25
0,251,target,"[(1033, 765)]",[],[1],[0.5666666666666667],horizontal,"(390.0, 262.0)",0.9333333333333333,0.533,1,1911.078,1,0.1,0.25
0,252,target,"[(1070, 800)]",[],[1],[0.5],horizontal,"(890.0, 262.0)",0.95,0.464,1,1915.587,1,0.08,0.25
0,253,target,"[(1056, 798)]",[],[1],[0.13333333333333333],horizontal,"(390.0, 762.0)",1.4,0.103,0,1920.316,0,0.08,0.25
0,254,target,"[(1033, 800)]",[],[1],[],horizontal,"(890.0, 262.0)",,"('cti', 1.053)",0,1925.26,0,0.1,0.25
0,255,target,"[(1042, 786)]",[],[1],[0.5333333333333333],horizontal,"(390.0, 262.0)",0.8666666666666667,0.5,1,1929.581,1,0.1,0.25
0,256,target,"[(1072, 769)]",[],[1],[0.23333333333333334],horizontal,"(890.0, 262.0)",0.8833333333333333,0.198,0,1934.449,0,0.08,0.25
0,257,catch,"[(1031, 805)]",[],[1],[],horizontal,"(890.0, 762.0)",1.6,nan,1,1938.517,1,0.08,0.25
0,258,target,"[(1032, 803)]",[],[1],[0.5166666666666666],horizontal,"(890.0, 262.0)",0.3833333333333333,0.476,1,1943.366,1,0.08,0.25
0,259,target,"[(1032, 774)]",[],[1],[0.4],vertical,"(890.0, 262.0)",1.2833333333333332,0.367,1,1947.533,1,0.08,0.25
0,260,catch,"[(1055, 752), (1033, 830)]",[],"[0, 1]",[],horizontal,"(390.0, 762.0)",1.6,nan,1,1952.833,2,0.08,0.25
0,261,target,"[(1051, 789)]",[],[1],[],vertical,"(390.0, 762.0)",,"('cti', 1.065)",0,1958.95,0,0.1,0.25
0,262,target,"[(1030, 782)]",[],[1],[0.55],vertical,"(890.0, 762.0)",1.1166666666666667,0.51,1,1963.434,1,0.1,0.25
0,263,target,"[(1056, 789)]",[],[1],[0.1],vertical,"(890.0, 762.0)",1.4833333333333334,0.068,0,1968.283,0,0.1,0.25
0,264,target,"[(1037, 786)]",[],[1],[0.6166666666666667],vertical,"(390.0, 262.0)",1.2,0.574,1,1973.34,1,0.1,0.25
0,265,target,"[(1029, 760)]",[],[1],[0.2],vertical,"(390.0, 762.0)",1.3833333333333333,0.167,0,1978.338,0,0.1,0.25
0,266,catch,"[(1044, 798)]",[],[1],[],vertical,"(890.0, 262.0)",1.6,nan,1,1982.892,1,0.1,0.25
0,267,catch,"[(1063, 762)]",[],[1],[],vertical,"(390.0, 762.0)",,"('cti', 1.531),nan",0,1988.071,0,0.12,0.25
0,268,target,"[(1034, 773)]",[],[1],[0.7666666666666666],vertical,"(390.0, 762.0)",0.4,0.728,1,1992.916,1,0.12,0.25
0,269,target,"[(1022, 820)]",[],[1],[0.5166666666666666],horizontal,"(390.0, 262.0)",1.5,0.474,1,1997.165,1,0.12,0.25
0,270,target,"[(1056, 805)]",[],[1],[0.5166666666666666],vertical,"(890.0, 262.0)",0.9666666666666667,0.48,1,2003.216,1,0.12,0.25
0,271,target,"[(1038, 783)]",[],[1],[0.6],vertical,"(390.0, 762.0)",1.0666666666666667,0.56,1,2008.027,2,0.12,0.25
0,272,catch,"[(1054, 834)]",[],[1],[],horizontal,"(390.0, 262.0)",,"('cti', 1.141),nan",0,2013.484,0,0.14,0.25
0,273,target,"[(1037, 806)]",[],[1],[0.55],horizontal,"(390.0, 762.0)",1.35,0.509,1,2018.458,1,0.12,0.25
0,274,target,"[(1066, 771)]",[],[1],[0.36666666666666664],vertical,"(890.0, 762.0)",1.15,0.334,1,2023.65,1,0.1,0.25
0,275,target,"[(1060, 760)]",[],[1],[0.5],horizontal,"(390.0, 262.0)",0.8,0.457,1,2028.995,1,0.1,0.25
0,276,catch,"[(1041, 782)]",[],[1],[],horizontal,"(390.0, 262.0)",1.6,nan,1,2033.516,2,0.1,0.25
0,277,target,"[(1062, 778)]",[],[1],[0.5333333333333333],horizontal,"(390.0, 762.0)",0.3833333333333333,0.492,1,2039.308,2,0.1,0.25
0,278,target,"[(1057, 788)]",[],[1],[0.65],horizontal,"(890.0, 262.0)",0.6166666666666667,0.607,1,2043.568,2,0.08,0.25
0,279,target,"[(1054, 798)]",[],[1],[0.3],vertical,"(390.0, 762.0)",1.3666666666666667,0.261,1,2048.599,2,0.08,0.25
0,280,target,"[(1033, 795)]",[],[1],[0.4666666666666667],horizontal,"(890.0, 762.0)",1.35,0.427,1,2054.048,3,0.08,0.25
0,281,target,"[(1033, 771)]",[],[1],[0.36666666666666664],horizontal,"(390.0, 262.0)",1.0333333333333332,0.328,1,2059.943,3,0.08,0.25
0,282,target,"[(1051, 763)]",[],[1],[0.16666666666666666],vertical,"(890.0, 262.0)",1.45,0.135,0,2065.744,0,0.08,0.25
0,283,target,"[(1021, 778)]",[],[1],[0.5166666666666666],horizontal,"(890.0, 262.0)",0.8666666666666667,0.479,1,2070.451,1,0.08,0.25
0,284,target,"[(1030, 776)]",[],[1],[0.5333333333333333],horizontal,"(890.0, 262.0)",0.5833333333333334,0.496,1,2075.301,1,0.08,0.25
0,285,target,"[(1055, 778)]",[],[1],[0.5333333333333333],vertical,"(390.0, 262.0)",0.5166666666666666,0.494,1,2079.583,1,0.08,0.25
0,286,catch,"[(1052, 762)]",[],[1],[],horizontal,"(890.0, 262.0)",1.6,nan,1,2083.804,2,0.08,0.25
0,287,target,"[(1045, 770)]",[],[1],[0.45],vertical,"(890.0, 262.0)",1.25,0.415,1,2089.133,2,0.08,0.25
0,288,target,"[(1053, 783)]",[],[1],[0.5],horizontal,"(890.0, 262.0)",0.5666666666666667,0.465,1,2094.718,2,0.08,0.25
0,289,target,"[(1052, 758)]",[],[1],[0.85],horizontal,"(890.0, 762.0)",0.45,nan,0,2099.49,0,0.08,0.25
0,290,catch,"[(1024, 800)]",[],[1],[],vertical,"(890.0, 762.0)",1.6,nan,1,2103.951,1,0.08,0.25
0,291,target,"[(1041, 769)]",[],[1],[0.55],vertical,"(390.0, 262.0)",0.6833333333333333,0.51,1,2108.739,1,0.08,0.25
0,292,catch,"[(1058, 789)]",[],[1],[],horizontal,"(390.0, 762.0)",1.6,nan,1,2113.189,1,0.08,0.25
0,293,catch,"[(1054, 788)]",[],[1],[],horizontal,"(390.0, 262.0)",1.6,nan,1,2117.851,2,0.08,0.25
0,294,catch,"[(1054, 794)]",[],[1],[],horizontal,"(390.0, 762.0)",1.6,nan,1,2123.485,2,0.08,0.25
0,295,target,"[(1055, 802)]",[],[1],[0.5333333333333333],vertical,"(890.0, 762.0)",1.0666666666666667,0.496,1,2129.063,2,0.08,0.25
0,296,catch,"[(1054, 793)]",[],[1],[],vertical,"(390.0, 262.0)",,"('cti', 1.497),nan",0,2134.184,0,0.1,0.25
0,297,target,"[(1029, 833)]",[],[1],[0.16666666666666666],vertical,"(890.0, 262.0)",1.1,0.132,0,2139.117,0,0.1,0.25
0,298,target,"[(1029, 799)]",[],[1],[0.6166666666666667],vertical,"(890.0, 262.0)",0.3833333333333333,0.571,1,2147.168,1,0.1,0.25
0,299,target,"[(1045, 801)]",[],[1],[0.5333333333333333],vertical,"(890.0, 262.0)",0.85,0.487,1,2151.299,1,0.1,0.25
0,300,target,"[(1067, 828)]",[],[1],[0.5333333333333333],horizontal,"(890.0, 762.0)",1.0333333333333332,0.493,1,2156.022,1,0.1,0.25
0,301,catch,"[(1069, 799)]",[],[1],[],horizontal,"(890.0, 262.0)",1.6,nan,1,2160.601,2,0.1,0.25
0,302,target,"[(1046, 791)]",[],[1],[0.3833333333333333],vertical,"(390.0, 262.0)",1.1333333333333333,0.347,1,2165.968,2,0.1,0.25
0,303,target,"[(1056, 792)]",[],[1],[0.7],vertical,"(890.0, 762.0)",1.1166666666666667,0.657,1,2171.668,2,0.1,0.25
0,304,target,"[(1053, 792)]",[],[1],[0.48333333333333334],vertical,"(890.0, 762.0)",1.1166666666666667,0.446,1,2177.153,2,0.08,0.25
0,305,target,"[(1042, 783)]",[],[1],[0.5166666666666666],vertical,"(390.0, 762.0)",0.5666666666666667,0.475,1,2182.359,3,0.08,0.25
0,306,target,"[(1032, 782)]",[],[1],[0.43333333333333335],vertical,"(890.0, 262.0)",1.1333333333333333,0.396,1,2187.7,3,0.08,0.25
0,307,target,"[(1037, 782)]",[],[1],[0.5333333333333333],vertical,"(890.0, 262.0)",1.2166666666666666,0.499,1,2193.548,3,0.08,0.25
0,308,target,"[(1021, 798)]",[],[1],[0.5166666666666666],horizontal,"(890.0, 262.0)",1.25,0.474,1,2199.375,3,0.08,0.25
0,309,target,"[(1039, 772)]",[],[1],[0.85],horizontal,"(390.0, 762.0)",0.4166666666666667,nan,0,2205.333,0,0.08,0.25
0,310,target,"[(1021, 798)]",[],[1],[],vertical,"(890.0, 762.0)",,"('cti', 1.097)",0,2209.472,0,0.1,0.25
0,311,target,"[(1030, 791)]",[],[1],[0.5333333333333333],horizontal,"(390.0, 262.0)",0.7666666666666666,0.497,1,2213.951,1,0.08,0.25
0,312,target,"[(1054, 776)]",[],[1],[0.4166666666666667],horizontal,"(890.0, 262.0)",0.85,0.381,1,2218.475,1,0.08,0.25
0,313,target,"[(1054, 775)]",[],[1],[0.45],vertical,"(390.0, 762.0)",1.3,0.415,1,2223.167,1,0.08,0.25
0,314,target,"[(1034, 786)]",[],[1],[0.18333333333333332],vertical,"(390.0, 762.0)",1.0333333333333332,0.149,0,2228.124,0,0.08,0.25
0,315,target,"[(1029, 789)]",[],[1],[0.55],vertical,"(890.0, 762.0)",0.5166666666666666,0.511,1,2232.608,1,0.08,0.25
0,316,target,"[(1053, 792)]",[],[1],[0.5666666666666667],vertical,"(890.0, 262.0)",0.7,0.53,1,2236.552,1,0.08,0.25
0,317,target,"[(1029, 777)]",[],[1],[0.6],horizontal,"(890.0, 762.0)",0.48333333333333334,0.559,1,2241.219,1,0.06,0.15
0,318,target,"[(1042, 782)]",[],[1],[0.48333333333333334],horizontal,"(390.0, 262.0)",0.9666666666666667,0.439,1,2245.381,2,0.06,0.15
0,319,target,"[(1030, 772)]",[],[1],[0.5666666666666667],horizontal,"(390.0, 762.0)",0.9833333333333333,0.523,1,2250.859,2,0.06,0.15
0,320,catch,"[(1064, 785)]",[],[1],[],vertical,"(390.0, 762.0)",,"('cti', 1.458),nan",0,2255.822,0,0.08,0.25
0,321,target,"[(1025, 778)]",[],[1],[0.5333333333333333],vertical,"(390.0, 762.0)",0.8833333333333333,0.496,1,2260.507,1,0.08,0.25
0,322,target,"[(1053, 766)]",[],[1],[0.2],horizontal,"(890.0, 762.0)",1.45,0.169,0,2265.445,0,0.06,0.15
0,323,catch,"[(1045, 806)]",[],[1],[],horizontal,"(890.0, 762.0)",1.6,nan,1,2270.1,1,0.06,0.15
0,324,target,"[(1052, 773)]",[],[1],[0.48333333333333334],vertical,"(890.0, 762.0)",1.2833333333333332,0.451,1,2275.056,1,0.06,0.15
0,325,target,"[(1046, 786)]",[],[1],[0.65],vertical,"(390.0, 762.0)",0.9833333333333333,0.611,1,2280.118,1,0.06,0.15
0,326,target,"[(1033, 761)]",[],[1],[0.65],vertical,"(890.0, 262.0)",0.36666666666666664,0.615,1,2285.572,2,0.06,0.15
0,327,target,"[(1027, 773)]",[],[1],[0.6],vertical,"(890.0, 762.0)",0.36666666666666664,0.563,1,2290.513,2,0.06,0.15
0,328,target,"[(1055, 769)]",[],[1],[0.5333333333333333],horizontal,"(390.0, 262.0)",1.1833333333333333,0.497,1,2294.717,2,0.06,0.15
0,329,target,"[(1052, 783)]",[],[1],[0.3333333333333333],vertical,"(890.0, 762.0)",1.3833333333333333,0.296,1,2299.885,2,0.06,0.15
0,330,target,"[(1054, 791)]",[],[1],[0.35],horizontal,"(390.0, 762.0)",1.3,0.314,1,2305.823,3,0.06,0.15
0,331,target,"[(1045, 761)]",[],[1],[0.5833333333333334],vertical,"(390.0, 762.0)",0.65,0.54,1,2311.566,3,0.06,0.15
0,332,target,"[(1037, 759)]",[],[1],[0.5],horizontal,"(890.0, 262.0)",0.9666666666666667,0.467,1,2316.935,3,0.06,0.15
0,333,target,"[(1043, 770)]",[],[1],[0.25],vertical,"(390.0, 762.0)",1.4666666666666666,0.209,1,2322.299,3,0.06,0.15
0,334,target,"[(1054, 769)]",[],[1],[0.31666666666666665],horizontal,"(890.0, 762.0)",1.4666666666666666,0.278,1,2328.002,3,0.06,0.15
0,335,target,"[(1027, 772)]",[],[1],[0.5833333333333334],horizontal,"(890.0, 762.0)",0.6,0.537,1,2333.56,3,0.06,0.15
0,336,catch,"[(1047, 773)]",[],[1],[],vertical,"(390.0, 262.0)",1.6,nan,1,2339.245,3,0.06,0.15
0,337,target,"[(1056, 775)]",[],[1],[0.6833333333333333],vertical,"(890.0, 262.0)",1.1166666666666667,0.638,1,2344.764,3,0.06,0.15
0,338,catch,"[(1052, 779)]",[],[1],[],vertical,"(890.0, 762.0)",1.6,nan,1,2350.551,3,0.06,0.15
0,339,catch,"[(1030, 768)]",[],[1],[],horizontal,"(890.0, 262.0)",1.6,nan,1,2356.184,3,0.06,0.15
0,340,target,"[(1029, 799)]",[],[1],[0.6666666666666666],vertical,"(390.0, 262.0)",0.4666666666666667,0.619,1,2361.934,3,0.06,0.15
0,341,target,"[(1055, 772)]",[],[1],[0.5],vertical,"(890.0, 762.0)",0.7666666666666666,0.468,1,2366.816,3,0.06,0.15
0,342,catch,"[(1029, 779)]",[],[1],[],horizontal,"(390.0, 262.0)",1.6,nan,1,2372.46,3,0.06,0.15
0,343,target,"[(1056, 776)]",[],[1],[0.48333333333333334],vertical,"(390.0, 262.0)",0.4,0.443,1,2377.884,3,0.06,0.15
0,344,target,"[(1043, 769)]",[],[1],[0.16666666666666666],horizontal,"(390.0, 762.0)",0.85,0.132,0,2382.652,0,0.06,0.15
0,345,target,"[(1027, 806)]",[],[1],[0.5666666666666667],horizontal,"(390.0, 762.0)",0.36666666666666664,0.525,1,2386.668,1,0.06,0.15
0,346,catch,"[(1049, 766)]",[],[1],[],vertical,"(390.0, 762.0)",,"('cti', 0.539),nan",0,2391.396,0,0.06,0.15
0,347,target,"[(1032, 769)]",[],[1],[0.3833333333333333],horizontal,"(390.0, 762.0)",1.4,0.344,1,2395.461,1,0.06,0.15
0,348,catch,"[(1042, 795)]",[],[1],[],horizontal,"(890.0, 762.0)",1.6,nan,1,2400.417,1,0.06,0.15
0,349,target,"[(1029, 786)]",[],[1],[0.55],vertical,"(390.0, 262.0)",1.2333333333333334,0.514,1,2405.413,1,0.06,0.15
0,350,target,"[(1030, 777)]",[],[1],[0.5333333333333333],vertical,"(890.0, 762.0)",1.2833333333333332,0.486,1,2410.621,2,0.06,0.15
0,351,target,"[(1031, 767)]",[],[1],[0.5666666666666667],horizontal,"(890.0, 262.0)",1.1833333333333333,0.526,1,2415.951,2,0.06,0.15
0,352,target,"[(1049, 786)]",[],[1],[0.3333333333333333],vertical,"(890.0, 762.0)",1.1666666666666667,0.293,1,2421.455,2,0.06,0.15
0,353,target,"[(1029, 799)]",[],[1],[0.05],vertical,"(890.0, 762.0)",1.1333333333333333,0.02,0,2427.051,0,0.06,0.15
0,354,target,"[(1033, 775)]",[],[1],[0.4666666666666667],vertical,"(390.0, 262.0)",1.3,0.422,1,2431.635,1,0.06,0.15
0,355,target,"[(1052, 772)]",[],[1],[0.65],horizontal,"(890.0, 262.0)",0.4,0.604,1,2436.695,1,0.06,0.15
0,356,catch,"[(1052, 776)]",[],[1],[],horizontal,"(390.0, 262.0)",1.6,nan,1,2441.4,1,0.06,0.15
0,357,target,"[(1029, 799)]",[],[1],[0.6166666666666667],horizontal,"(390.0, 762.0)",0.8333333333333334,0.577,1,2446.651,2,0.06,0.15
0,358,target,"[(1077, 790)]",[],[1],[0.48333333333333334],horizontal,"(890.0, 262.0)",1.0333333333333332,0.442,1,2452.017,2,0.06,0.15
0,359,target,"[(1053, 786)]",[],[1],[0.5166666666666666],horizontal,"(390.0, 762.0)",0.8166666666666667,0.478,1,2457.232,2,0.06,0.15
0,360,catch,"[(1052, 767)]",[],[1],[],vertical,"(390.0, 262.0)",1.6,nan,1,2462.4,2,0.04,0.15
0,361,target,"[(1050, 786)]",[],[1],[0.55],horizontal,"(890.0, 762.0)",1.15,0.507,1,2467.701,3,0.04,0.15
0,362,target,"[(1046, 760)]",[],[1],[0.4166666666666667],vertical,"(390.0, 762.0)",1.2,0.378,1,2473.351,3,0.04,0.15
0,363,target,"[(1033, 767)]",[],[1],[0.1],vertical,"(390.0, 762.0)",1.3666666666666667,0.067,0,2479.117,0,0.04,0.15
0,364,target,"[(1052, 791)]",[],[1],[0.5],horizontal,"(890.0, 262.0)",1.2,0.459,1,2483.835,1,0.04,0.15
0,365,target,"[(1055, 782)]",[],[1],[0.5],horizontal,"(390.0, 262.0)",0.6333333333333333,0.458,1,2488.769,1,0.04,0.15
0,366,target,"[(1051, 772)]",[],[1],[0.4666666666666667],horizontal,"(890.0, 262.0)",1.1666666666666667,0.427,1,2493.182,1,0.04,0.15
0,367,target,"[(1053, 796)]",[],[1],[0.06666666666666667],vertical,"(390.0, 762.0)",1.45,0.034,0,2498.195,0,0.04,0.15
0,368,target,"[(1041, 792)]",[],[1],[0.16666666666666666],horizontal,"(890.0, 262.0)",1.5166666666666666,0.134,0,2502.784,0,0.04,0.15
0,369,target,"[(1029, 782)]",[],[1],[0.48333333333333334],vertical,"(890.0, 262.0)",1.2333333333333334,0.445,1,2507.37,1,0.04,0.15
0,370,target,"[(1033, 758)]",[],[1],[0.55],vertical,"(390.0, 262.0)",0.6833333333333333,0.509,1,2512.051,1,0.02,0.15
0,371,target,"[(1037, 776)]",[],[1],[0.5],vertical,"(890.0, 762.0)",0.7166666666666667,0.466,1,2516.514,1,0.02,0.15
0,372,target,"[(1058, 773)]",[],[1],[0.6],vertical,"(890.0, 762.0)",1.2,0.554,1,2521.07,2,0.02,0.15
0,373,target,"[(1033, 794)]",[],[1],[0.5833333333333334],vertical,"(890.0, 762.0)",0.6666666666666666,0.541,1,2526.318,2,0.02,0.15
0,374,target,"[(1054, 766)]",[],[1],[0.6166666666666667],horizontal,"(890.0, 762.0)",0.6333333333333333,0.575,1,2530.984,2,0.02,0.15
0,375,target,"[(1051, 795)]",[],[1],[0.55],vertical,"(390.0, 262.0)",0.6833333333333333,0.506,1,2536.117,2,0.02,0.15
0,376,target,"[(1040, 790)]",[],[1],[],vertical,"(390.0, 262.0)",,"('cti', 1.139)",0,2540.961,0,0.04,0.15
0,377,target,"[(1033, 777)]",[],[1],[0.3],horizontal,"(890.0, 762.0)",1.4666666666666666,0.265,1,2545.176,1,0.04,0.15
0,378,target,"[(1029, 778)]",[],[1],[0.6333333333333333],horizontal,"(390.0, 262.0)",0.8,0.589,1,2550.103,1,0.04,0.15
0,379,catch,"[(1033, 772)]",[],[1],[],vertical,"(390.0, 262.0)",,"('cti', 1.554),nan",0,2554.586,0,0.06,0.15
0,380,target,"[(1036, 777)]",[],[1],[0.5],vertical,"(890.0, 262.0)",1.3833333333333333,0.463,1,2559.427,1,0.06,0.15
0,381,target,"[(1033, 759)]",[],[1],[0.7],vertical,"(390.0, 262.0)",0.9166666666666666,0.651,1,2564.452,1,0.06,0.15
0,382,target,"[(1033, 774)]",[],[1],[0.55],vertical,"(390.0, 762.0)",0.36666666666666664,0.506,1,2569.717,1,0.06,0.15
0,383,target,"[(1038, 790)]",[],[1],[0.43333333333333335],horizontal,"(390.0, 262.0)",1.3833333333333333,0.394,1,2573.746,2,0.06,0.15
0,384,target,"[(1055, 774)]",[],[1],[0.21666666666666667],vertical,"(390.0, 762.0)",1.3,0.181,0,2579.48,0,0.06,0.15
0,385,catch,"[(1018, 802)]",[],[1],[],vertical,"(390.0, 762.0)",1.6,"('cti', 1.577),nan",0,2583.867,0,0.08,0.25
0,386,target,"[(1029, 820)]",[],[1],[0.6833333333333333],horizontal,"(890.0, 262.0)",0.7833333333333333,0.636,1,2588.88,1,0.08,0.25
0,387,target,"[(1054, 815)]",[],[1],[0.43333333333333335],vertical,"(890.0, 762.0)",0.7333333333333333,0.391,1,2636.786,1,0.08,0.25
0,388,target,"[(1036, 811)]",[],[1],[0.5666666666666667],vertical,"(890.0, 762.0)",0.36666666666666664,0.523,1,2641.752,1,0.08,0.25
0,389,target,"[(1020, 795)]",[],[1],[0.6666666666666666],horizontal,"(890.0, 262.0)",0.35,0.621,1,2646.235,2,0.08,0.25
0,390,target,"[(1041, 791)]",[],[1],[0.5666666666666667],horizontal,"(390.0, 262.0)",0.55,0.528,1,2651.501,2,0.08,0.25
0,391,catch,"[(1055, 781)]",[],[1],[],horizontal,"(390.0, 762.0)",1.6,nan,1,2656.579,2,0.08,0.25
0,392,target,"[(1051, 787)]",[],[1],[0.7],vertical,"(390.0, 762.0)",0.6333333333333333,0.651,1,2661.851,2,0.08,0.25
0,393,target,"[(1037, 796)]",[],[1],[0.48333333333333334],vertical,"(890.0, 262.0)",1.15,0.442,1,2667.036,3,0.08,0.25
0,394,catch,"[(1035, 800)]",[],[1],[],horizontal,"(890.0, 762.0)",,"('cti', 1.51),nan",0,2672.971,0,0.1,0.25
0,395,target,"[(1034, 795)]",[],[1],[0.6333333333333333],vertical,"(890.0, 262.0)",0.6166666666666667,0.591,1,2677.618,1,0.1,0.25
0,396,target,"[(1029, 785)]",[],[1],[0.43333333333333335],horizontal,"(390.0, 262.0)",1.2333333333333334,0.394,1,2681.968,1,0.08,0.25
0,397,catch,"[(1053, 795)]",[],[1],[],vertical,"(390.0, 262.0)",1.6,nan,1,2687.221,1,0.08,0.25
0,398,target,"[(1052, 768)]",[],[1],[0.45],vertical,"(390.0, 762.0)",1.4166666666666667,0.408,1,2692.229,2,0.08,0.25
0,399,target,"[(1069, 796)]",[],[1],[0.6166666666666667],horizontal,"(890.0, 262.0)",1.1166666666666667,0.579,1,2697.498,2,0.08,0.25
0,400,catch,"[(1037, 766)]",[],[1],[],vertical,"(390.0, 762.0)",1.6,nan,1,2702.935,2,0.08,0.25
0,401,target,"[(1052, 795)]",[],[1],[0.5333333333333333],horizontal,"(890.0, 762.0)",0.9166666666666666,0.486,1,2708.368,2,0.08,0.25
0,402,catch,"[(1037, 781)]",[],[1],[],vertical,"(890.0, 762.0)",1.6,nan,1,2713.685,3,0.08,0.25
0,403,target,"[(1049, 788)]",[],[1],[0.5],horizontal,"(390.0, 262.0)",0.7,0.462,1,2719.152,3,0.08,0.25
0,404,target,"[(1057, 786)]",[],[1],[0.5166666666666666],horizontal,"(890.0, 762.0)",0.8666666666666667,0.486,1,2724.64,3,0.08,0.25
0,405,target,"[(1033, 768)]",[],[1],[0.25],horizontal,"(390.0, 762.0)",1.3,0.213,1,2730.085,3,0.08,0.25
0,406,target,"[(1053, 789)]",[],[1],[0.45],vertical,"(390.0, 262.0)",1.15,0.415,1,2735.653,3,0.08,0.25
0,407,target,"[(1038, 796)]",[],[1],[0.5],vertical,"(890.0, 262.0)",0.8333333333333334,0.453,1,2741.402,3,0.08,0.25
0,408,target,"[(1052, 775)]",[],[1],[0.55],vertical,"(890.0, 762.0)",1.4166666666666667,0.505,1,2746.863,3,0.08,0.25
0,409,catch,"[(1037, 781)]",[],[1],[],horizontal,"(390.0, 762.0)",,"('cti', 1.53),nan",0,2752.469,0,0.1,0.25
0,410,target,"[(1041, 804)]",[],[1],[0.5333333333333333],horizontal,"(390.0, 262.0)",1.0166666666666666,0.491,1,2756.885,1,0.1,0.25
0,411,target,"[(1023, 792)]",[],[1],[0.6],horizontal,"(890.0, 262.0)",1.0333333333333332,0.557,1,2761.569,1,0.1,0.25
0,412,target,"[(1033, 750), (1056, 799)]",[],"[0, 1]",[0.36666666666666664],horizontal,"(890.0, 262.0)",1.3,0.329,1,2766.57,1,0.1,0.25
0,413,target,"[(1059, 786)]",[],[1],[0.2],horizontal,"(390.0, 262.0)",1.4833333333333334,0.169,0,2772.657,0,0.1,0.25
0,414,target,"[(1033, 785)]",[],[1],[0.36666666666666664],vertical,"(390.0, 262.0)",0.5666666666666667,0.333,1,2777.505,1,0.1,0.25
0,415,catch,"[(1039, 764)]",[],[1],[],horizontal,"(890.0, 262.0)",1.6,nan,1,2782.138,1,0.1,0.25
0,416,catch,"[(1029, 777)]",[],[1],[],vertical,"(390.0, 762.0)",1.6,nan,1,2787.226,1,0.1,0.25
0,417,catch,"[(1052, 790)]",[],[1],[0.03333333333333333],vertical,"(890.0, 262.0)",1.6,"0.018,nan",0,2791.926,0,0.12,0.25
0,418,catch,"[(1021, 770)]",[],[1],[],vertical,"(390.0, 262.0)",,"('cti', 1.211),nan",0,2796.835,0,0.14,0.25
0,419,target,"[(1033, 801)]",[],[1],[0.75],horizontal,"(890.0, 762.0)",0.6333333333333333,0.701,1,2801.394,1,0.14,0.25
0,420,target,"[(1037, 789)]",[],[1],[0.2833333333333333],vertical,"(890.0, 262.0)",1.4,0.25,1,2805.842,1,0.14,0.25
0,421,catch,"[(1021, 766)]",[],[1],[],vertical,"(890.0, 762.0)",1.6,nan,1,2810.649,1,0.14,0.25
0,422,target,"[(1029, 799)]",[],[1],[0.5833333333333334],horizontal,"(390.0, 262.0)",0.5666666666666667,0.551,1,2815.56,2,0.14,0.25
0,423,target,"[(1029, 771)]",[],[1],[0.5833333333333334],horizontal,"(890.0, 762.0)",1.0,0.54,1,2820.019,2,0.14,0.25
0,424,target,"[(1033, 772)]",[],[1],[0.4],horizontal,"(890.0, 262.0)",1.2166666666666666,0.358,1,2825.549,2,0.14,0.25
0,425,target,"[(1029, 778)]",[],[1],[0.4666666666666667],vertical,"(890.0, 262.0)",0.8666666666666667,0.429,1,2831.017,2,0.14,0.25
0,426,target,"[(1055, 781)]",[],[1],[0.4666666666666667],vertical,"(890.0, 262.0)",0.7666666666666666,0.429,1,2835.735,3,0.12,0.25
0,427,target,"[(1055, 785)]",[],[1],[0.3],horizontal,"(390.0, 762.0)",0.7,0.263,1,2841.404,3,0.12,0.25
0,428,target,"[(1056, 773)]",[],[1],[],horizontal,"(390.0, 762.0)",,"('cti', 1.18)",0,2846.769,0,0.14,0.25
0,429,catch,"[(1021, 821)]",[],[1],[],horizontal,"(390.0, 762.0)",1.6,nan,1,2850.973,1,0.12,0.25
0,430,target,"[(1038, 773)]",[],[1],[0.6333333333333333],vertical,"(890.0, 262.0)",0.36666666666666664,0.591,1,2856.137,1,0.12,0.25
0,431,target,"[(1051, 764)]",[],[1],[0.2],vertical,"(390.0, 762.0)",1.4,0.17,0,2860.352,0,0.12,0.25
0,432,catch,"[(1021, 797)]",[],[1],[],horizontal,"(390.0, 762.0)",,"('cti', 1.014),nan",0,2864.857,0,0.14,0.25
0,433,target,"[(1021, 796)]",[],[1],[0.5666666666666667],horizontal,"(890.0, 262.0)",1.0166666666666666,0.523,1,2869.058,1,0.14,0.25
0,434,catch,"[(1037, 796)]",[],[1],[],vertical,"(890.0, 262.0)",1.6,nan,1,2874.848,1,0.14,0.25
0,435,target,"[(1055, 773)]",[],[1],[0.48333333333333334],vertical,"(890.0, 262.0)",0.6,0.445,1,2879.566,1,0.12,0.25
0,436,catch,"[(1045, 764)]",[],[1],[],vertical,"(890.0, 262.0)",1.6,nan,1,2884.087,2,0.12,0.25
0,437,target,"[(1033, 776)]",[],[1],[0.15],horizontal,"(390.0, 762.0)",1.4833333333333334,0.115,0,2889.734,0,0.12,0.25
0,438,target,"[(1021, 799)]",[],[1],[0.5666666666666667],vertical,"(890.0, 762.0)",1.05,0.524,1,2894.353,1,0.12,0.25
0,439,target,"[(1027, 795)]",[],[1],[0.5333333333333333],horizontal,"(890.0, 262.0)",0.48333333333333334,0.49,1,2899.408,1,0.12,0.25
0,440,target,"[(1045, 804)]",[],[1],[0.5],vertical,"(890.0, 762.0)",1.1333333333333333,0.46,1,2903.968,1,0.12,0.25
0,441,target,"[(1031, 766)]",[],[1],[0.6833333333333333],horizontal,"(890.0, 762.0)",0.48333333333333334,0.64,1,2908.936,2,0.12,0.25
0,442,target,"[(1054, 788)]",[],[1],[0.5166666666666666],horizontal,"(390.0, 262.0)",0.6833333333333333,0.477,1,2914.087,2,0.12,0.25
0,443,target,"[(1053, 787)]",[],[1],[0.6666666666666666],vertical,"(390.0, 262.0)",0.8166666666666667,0.623,1,2919.046,2,0.12,0.25
0,444,catch,"[(1037, 801)]",[],[1],[],horizontal,"(390.0, 762.0)",,"('cti', 1.05),nan",0,2924.571,0,0.12,0.25
0,445,target,"[(1037, 797)]",[],[1],[0.4666666666666667],horizontal,"(390.0, 262.0)",1.45,0.432,1,2928.753,1,0.12,0.25
0,446,target,"[(1028, 795)]",[],[1],[0.21666666666666667],vertical,"(390.0, 762.0)",1.5333333333333332,0.186,0,2933.853,0,0.12,0.25
0,447,catch,"[(1017, 795)]",[],[1],[],horizontal,"(890.0, 262.0)",1.6,nan,1,2938.769,1,0.12,0.25
0,448,target,"[(1038, 774)]",[],[1],[0.6166666666666667],vertical,"(890.0, 262.0)",0.65,0.578,1,2943.804,1,0.12,0.25
0,449,catch,"[(1052, 776)]",[],[1],[],horizontal,"(390.0, 262.0)",,"('cti', 1.457),nan",0,2948.186,0,0.14,0.25
0,450,catch,"[(1030, 803)]",[],[1],[],horizontal,"(890.0, 262.0)",,"('cti', 1.568),nan",0,2953.029,0,0.16,0.25
0,451,target,"[(1027, 789)]",[],[1],[0.6333333333333333],horizontal,"(390.0, 762.0)",0.9833333333333333,0.587,1,2988.52,1,0.16,0.25
0,452,catch,"[(1026, 785)]",[],[1],[],horizontal,"(890.0, 262.0)",1.6,nan,1,2993.502,1,0.16,0.25
0,453,target,"[(1038, 762)]",[],[1],[0.55],horizontal,"(390.0, 262.0)",0.4166666666666667,0.508,1,2998.557,1,0.16,0.25
0,454,catch,"[(1033, 789)]",[],[1],[],horizontal,"(890.0, 262.0)",1.6,nan,1,3002.876,2,0.16,0.25
0,455,target,"[(1033, 800)]",[],[1],[0.6166666666666667],vertical,"(890.0, 762.0)",0.4666666666666667,0.581,1,3008.453,2,0.16,0.25
0,456,catch,"[(1029, 796)]",[],[1],[],vertical,"(390.0, 262.0)",,"('cti', 1.53),nan",0,3013.078,0,0.18,0.25
0,457,target,"[(1033, 796)]",[],[1],[0.11666666666666667],horizontal,"(890.0, 262.0)",1.45,0.082,0,3017.854,0,0.18,0.25
0,458,target,"[(1021, 796)]",[],[1],[0.5833333333333334],horizontal,"(890.0, 762.0)",0.8333333333333334,0.546,1,3022.701,1,0.18,0.25
0,459,catch,"[(1030, 766)]",[],[1],[],horizontal,"(890.0, 762.0)",1.6,nan,1,3027.203,1,0.16,0.25
0,460,target,"[(1030, 785)]",[],[1],[0.6166666666666667],vertical,"(390.0, 762.0)",0.4166666666666667,0.579,1,3032.369,1,0.16,0.25
0,461,catch,"[(1057, 802)]",[],[1],[],horizontal,"(390.0, 762.0)",1.6,nan,1,3036.472,2,0.16,0.25
0,462,catch,"[(1033, 772)]",[],[1],[],vertical,"(890.0, 762.0)",1.6,nan,1,3041.77,2,0.16,0.25
0,463,catch,"[(1032, 776)]",[],[1],[],vertical,"(390.0, 262.0)",1.6,"('cti', 1.599),nan",0,3047.306,0,0.18,0.25
0,464,catch,"[(1058, 818)]",[],[1],[],vertical,"(390.0, 762.0)",,"('cti', 1.533),nan",0,3052.27,0,0.2,0.25
0,465,target,"[(1031, 795)]",[],[1],[0.6333333333333333],horizontal,"(390.0, 762.0)",0.85,0.587,1,3056.903,1,0.2,0.25
0,466,target,"[(1030, 778)]",[],[1],[0.25],horizontal,"(390.0, 262.0)",1.45,0.217,1,3061.861,1,0.2,0.25
0,467,target,"[(1033, 781)]",[],[1],[0.5666666666666667],vertical,"(890.0, 762.0)",0.5333333333333333,0.534,1,3067.036,1,0.18,0.25
0,468,catch,"[(1053, 802)]",[],[1],[],horizontal,"(390.0, 262.0)",1.6,nan,1,3071.33,2,0.16,0.25
0,469,target,"[(1057, 766)]",[],[1],[0.06666666666666667],vertical,"(390.0, 762.0)",1.5166666666666666,0.035,0,3076.903,0,0.16,0.25
0,470,target,"[(1034, 809)]",[],[1],[0.5333333333333333],horizontal,"(890.0, 762.0)",0.7,0.501,1,3081.664,1,0.16,0.25
0,471,target,"[(1046, 767)]",[],[1],[0.85],horizontal,"(390.0, 262.0)",1.3833333333333333,"('cti', 1.384),nan",0,3086.557,0,0.18,0.25
0,472,target,"[(1022, 784)]",[],[1],[0.55],vertical,"(890.0, 762.0)",0.6166666666666667,0.511,1,3092.118,1,0.18,0.25
0,473,catch,"[(1033, 794)]",[],[1],[],vertical,"(390.0, 262.0)",1.6,nan,1,3096.32,1,0.18,0.25
0,474,target,"[(1060, 773)]",[],[1],[0.6166666666666667],horizontal,"(890.0, 762.0)",0.4666666666666667,0.583,1,3101.403,1,0.18,0.25
0,475,target,"[(1038, 787)]",[],[1],[0.5666666666666667],horizontal,"(890.0, 762.0)",0.65,0.521,1,3105.374,2,0.18,0.25
0,476,target,"[(1029, 790)]",[],[1],[0.5166666666666666],vertical,"(390.0, 262.0)",0.6,0.482,1,3110.654,2,0.18,0.25
0,477,target,"[(1032, 796)]",[],[1],[0.85],horizontal,"(390.0, 262.0)",0.5166666666666666,nan,0,3115.509,0,0.18,0.25
0,478,target,"[(1033, 794)]",[],[1],[0.5166666666666666],vertical,"(390.0, 262.0)",1.1333333333333333,0.473,1,3120.129,1,0.16,0.25
0,479,target,"[(1030, 773)]",[],[1],[0.5166666666666666],vertical,"(390.0, 762.0)",0.9666666666666667,0.483,1,3125.153,1,0.16,0.25
0,480,target,"[(1030, 783)]",[],[1],[0.48333333333333334],horizontal,"(890.0, 262.0)",1.2333333333333334,0.443,1,3130.02,1,0.16,0.25
0,481,target,"[(1060, 806)]",[],[1],[0.45],vertical,"(890.0, 262.0)",0.7666666666666666,0.415,1,3135.07,2,0.16,0.25
0,482,target,"[(1058, 779)]",[],[1],[0.85],vertical,"(390.0, 762.0)",0.6666666666666666,nan,0,3140.278,0,0.14,0.25
0,483,catch,"[(1030, 796)]",[],[1],[],vertical,"(890.0, 262.0)",,"('cti', 1.57),nan",0,3144.459,0,0.16,0.25
0,484,target,"[(1053, 802)]",[],[1],[0.5666666666666667],horizontal,"(390.0, 262.0)",1.0333333333333332,0.522,1,3149.491,1,0.16,0.25
0,485,target,"[(1060, 779)]",[],[1],[0.48333333333333334],vertical,"(390.0, 262.0)",0.8,0.444,1,3154.153,1,0.16,0.25
0,486,target,"[(1060, 786)]",[],[1],[0.85],horizontal,"(890.0, 762.0)",0.5166666666666666,nan,0,3158.789,0,0.16,0.25
0,487,target,"[(1029, 781)]",[],[1],[0.6333333333333333],horizontal,"(890.0, 262.0)",0.5833333333333334,0.596,1,3163.121,1,0.16,0.25
0,488,catch,"[(1070, 793)]",[],[1],[],horizontal,"(890.0, 262.0)",1.6,nan,1,3167.57,1,0.16,0.25
0,489,target,"[(1051, 766)]",[],[1],[0.65],vertical,"(890.0, 762.0)",0.95,0.61,1,3172.199,1,0.16,0.25
0,490,target,"[(1030, 776)]",[],[1],[0.5833333333333334],horizontal,"(890.0, 762.0)",0.6166666666666667,0.538,1,3176.57,2,0.16,0.25
0,491,target,"[(1073, 797)]",[],[1],[0.5],horizontal,"(890.0, 762.0)",0.8666666666666667,0.457,1,3181.348,2,0.16,0.25
0,492,catch,"[(1030, 789)]",[],[1],[],horizontal,"(890.0, 262.0)",1.6,nan,1,3186.022,2,0.16,0.25
0,493,target,"[(1022, 762)]",[],[1],[0.18333333333333332],vertical,"(890.0, 762.0)",1.45,0.15,0,3191.518,0,0.16,0.25
0,494,target,"[(1028, 797)]",[],[1],[0.6666666666666666],horizontal,"(390.0, 262.0)",0.4166666666666667,0.624,1,3195.837,1,0.14,0.25
0,495,target,"[(1041, 777)]",[],[1],[0.55],vertical,"(890.0, 762.0)",0.9833333333333333,0.511,1,3200.304,1,0.14,0.25
0,496,target,"[(1056, 777)]",[],[1],[0.55],horizontal,"(890.0, 262.0)",1.2333333333333334,0.515,1,3205.353,1,0.14,0.25
0,497,catch,"[(1036, 753), (1033, 808)]",[],"[0, 1]",[],horizontal,"(890.0, 762.0)",,"('cti', 1.409),nan",0,3210.128,0,0.16,0.25
0,498,target,"[(1044, 800)]",[],[1],[],horizontal,"(890.0, 762.0)",,"('cti', 1.501)",0,3216.229,0,0.18,0.25
0,499,target,"[(1026, 791)]",[],[1],[0.5833333333333334],vertical,"(390.0, 762.0)",1.4666666666666666,0.537,1,3221.086,1,0.16,0.25
0,500,target,"[(1053, 791)]",[],[1],[0.43333333333333335],horizontal,"(890.0, 262.0)",1.25,0.392,1,3226.587,1,0.14,0.25
0,501,target,"[(1054, 786)]",[],[1],[0.5666666666666667],horizontal,"(390.0, 762.0)",0.5,0.53,1,3231.42,1,0.14,0.25
0,502,target,"[(1038, 795)]",[],[1],[0.5],horizontal,"(890.0, 762.0)",1.0166666666666666,0.464,1,3235.447,2,0.14,0.25
0,503,target,"[(1052, 767)]",[],[1],[0.48333333333333334],vertical,"(890.0, 262.0)",0.7,0.447,1,3240.787,2,0.14,0.25
0,504,target,"[(1019, 778)]",[],[1],[0.6],horizontal,"(390.0, 262.0)",0.48333333333333334,0.556,1,3245.891,2,0.14,0.25
0,505,target,"[(1054, 782)]",[],[1],[0.4666666666666667],vertical,"(890.0, 262.0)",1.0,0.432,1,3250.4,2,0.14,0.25
0,506,catch,"[(1033, 785)]",[],[1],[],vertical,"(890.0, 762.0)",1.6,nan,1,3255.72,3,0.12,0.25
0,507,target,"[(1037, 770)]",[],[1],[0.5],vertical,"(890.0, 262.0)",0.36666666666666664,0.463,1,3261.617,3,0.12,0.25
0,508,target,"[(1033, 780)]",[],[1],[0.25],horizontal,"(390.0, 762.0)",1.5166666666666666,0.218,1,3266.287,3,0.12,0.25
0,509,catch,"[(1020, 758)]",[],[1],[],horizontal,"(890.0, 762.0)",,"('cti', 1.521),nan",0,3272.037,0,0.14,0.25
0,510,target,"[(1030, 795)]",[],[1],[0.5833333333333334],vertical,"(390.0, 762.0)",0.7,0.544,1,3277.053,1,0.14,0.25
0,511,target,"[(1032, 776)]",[],[1],[0.6333333333333333],vertical,"(890.0, 762.0)",1.2166666666666666,0.593,1,3281.419,1,0.14,0.25
0,512,target,"[(1030, 773)]",[],[1],[0.4],vertical,"(890.0, 762.0)",1.3833333333333333,0.364,1,3286.462,1,0.14,0.25
0,513,target,"[(1037, 761)]",[],[1],[0.5],horizontal,"(390.0, 762.0)",0.5,0.461,1,3291.52,2,0.12,0.25
0,514,catch,"[(1036, 760)]",[],[1],[],horizontal,"(890.0, 262.0)",1.6,nan,1,3296.155,2,0.1,0.25
0,515,target,"[(1033, 756)]",[],[1],[0.5666666666666667],horizontal,"(890.0, 762.0)",0.9666666666666667,0.53,1,3301.221,2,0.1,0.25
0,516,target,"[(1040, 790)]",[],[1],[0.5833333333333334],horizontal,"(890.0, 262.0)",0.7,0.539,1,3306.22,2,0.1,0.25
0,517,catch,"[(1035, 791)]",[],[1],[],horizontal,"(390.0, 762.0)",1.6,nan,1,3311.187,3,0.1,0.25
0,518,target,"[(1055, 772)]",[],[1],[0.5333333333333333],vertical,"(390.0, 262.0)",1.1166666666666667,0.495,1,3317.253,3,0.1,0.25
0,519,catch,"[(1033, 761)]",[],[1],[],horizontal,"(890.0, 762.0)",1.6,"('cti', 1.592),nan",0,3323.338,0,0.12,0.25
0,520,target,"[(1031, 791)]",[],[1],[0.45],vertical,"(390.0, 262.0)",1.15,0.414,1,3327.737,1,0.12,0.25
0,521,target,"[(1029, 751), (1029, 797)]",[],"[0, 1]",[0.6666666666666666],horizontal,"(890.0, 762.0)",0.9666666666666667,0.635,1,3332.986,1,0.1,0.25
0,522,catch,"[(1033, 775)]",[],[1],[],vertical,"(390.0, 262.0)",1.6,nan,1,3338.722,1,0.1,0.25
0,523,target,"[(1033, 747), (1029, 797)]",[],"[0, 1]",[0.55],horizontal,"(890.0, 762.0)",1.0,0.515,1,3343.397,2,0.1,0.25
0,524,target,"[(1031, 766)]",[],[1],[0.7],vertical,"(390.0, 762.0)",1.0333333333333332,0.658,1,3349.42,2,0.1,0.25
0,525,target,"[(1036, 778)]",[],[1],[0.5666666666666667],horizontal,"(890.0, 262.0)",0.7,0.529,1,3354.855,2,0.1,0.25
0,526,catch,"[(1037, 766)]",[],[1],[0.03333333333333333],horizontal,"(890.0, 262.0)",1.6,"0.018,nan",0,3359.955,0,0.12,0.25
0,527,target,"[(1031, 770)]",[],[1],[0.6333333333333333],horizontal,"(890.0, 262.0)",0.55,0.59,1,3364.771,1,0.12,0.25
0,528,catch,"[(1033, 768)]",[],[1],[],vertical,"(390.0, 262.0)",1.6,nan,1,3369.255,1,0.12,0.25
0,529,catch,"[(1053, 756)]",[],[1],[],vertical,"(390.0, 762.0)",,"('cti', 1.577),nan",0,3374.42,0,0.14,0.25
0,530,target,"[(1032, 791)]",[],[1],[0.36666666666666664],horizontal,"(390.0, 762.0)",1.4333333333333333,0.329,1,3379.187,1,0.14,0.25
0,531,catch,"[(1032, 760)]",[],[1],[],horizontal,"(390.0, 262.0)",1.6,nan,1,3385.655,1,0.14,0.25
0,532,target,"[(1029, 778)]",[],[1],[0.6833333333333333],horizontal,"(890.0, 262.0)",1.0833333333333333,0.643,1,3390.787,1,0.14,0.25
0,533,catch,"[(1049, 751), (1029, 806)]",[],"[0, 1]",[],vertical,"(390.0, 762.0)",1.6,nan,1,3395.538,2,0.12,0.25
0,534,catch,"[(1026, 791)]",[],[1],[0.03333333333333333],vertical,"(890.0, 262.0)",1.6,"0.02,nan",0,3402.583,0,0.14,0.25
0,535,catch,"[(1045, 831)]",[],[1],[],vertical,"(890.0, 262.0)",1.6,nan,1,3407.681,1,0.14,0.25
0,536,target,"[(1033, 796)]",[],[1],[0.5833333333333334],horizontal,"(890.0, 762.0)",0.6,0.541,1,3925.388,1,0.14,0.25
0,537,catch,"[(1056, 813)]",[],[1],[],vertical,"(890.0, 262.0)",1.6,nan,1,3930.207,1,0.14,0.25
0,538,catch,"[(1057, 765)]",[],[1],[],horizontal,"(890.0, 762.0)",1.6,nan,1,3934.985,2,0.14,0.25
0,539,target,"[(1029, 786)]",[],[1],[0.5],vertical,"(390.0, 762.0)",0.9333333333333333,0.457,1,3940.247,2,0.14,0.25
0,540,target,"[(1057, 786)]",[],[1],[0.55],horizontal,"(390.0, 762.0)",0.8,0.506,1,3945.568,2,0.14,0.25
0,541,catch,"[(1042, 788)]",[],[1],[],vertical,"(390.0, 262.0)",1.6,nan,1,3950.418,2,0.14,0.25
0,542,target,"[(1037, 794)]",[],[1],[0.48333333333333334],vertical,"(890.0, 262.0)",1.3666666666666667,0.44,1,3956.243,3,0.14,0.25
0,543,catch,"[(1035, 790)]",[],[1],[],vertical,"(890.0, 762.0)",1.6,nan,1,3962.256,3,0.14,0.25
0,544,catch,"[(1032, 805)]",[],[1],[],vertical,"(390.0, 762.0)",1.6,nan,1,3967.632,3,0.14,0.25
0,545,target,"[(1057, 787)]",[],[1],[0.7333333333333333],horizontal,"(390.0, 762.0)",0.35,0.688,1,3973.519,3,0.14,0.25
0,546,target,"[(1045, 757)]",[],[1],[0.3833333333333333],horizontal,"(390.0, 762.0)",0.7166666666666667,0.341,1,3978.862,3,0.14,0.25
0,547,target,"[(1036, 749), (1033, 795)]",[],"[0, 1]",[0.5166666666666666],vertical,"(890.0, 262.0)",0.8833333333333333,0.478,1,3984.127,3,0.12,0.25
0,548,target,"[(1061, 773)]",[],[1],[0.5166666666666666],vertical,"(390.0, 762.0)",1.05,0.475,1,3990.962,3,0.1,0.25
0,549,target,"[(1057, 752), (1017, 792)]",[],"[0, 1]",[0.55],vertical,"(390.0, 762.0)",0.6833333333333333,0.506,1,3996.89,3,0.1,0.25
0,550,target,"[(1033, 786)]",[],[1],[0.5666666666666667],horizontal,"(890.0, 762.0)",0.5666666666666667,0.524,1,4004.039,3,0.1,0.25
0,551,catch,"[(1033, 778)]",[],[1],[],horizontal,"(390.0, 262.0)",1.6,nan,1,4009.073,3,0.1,0.25
0,552,target,"[(1051, 756)]",[],[1],[0.7166666666666667],horizontal,"(390.0, 762.0)",0.8166666666666667,0.678,1,4015.149,3,0.1,0.25
0,553,target,"[(1039, 765)]",[],[1],[],horizontal,"(390.0, 762.0)",,"('cti', 1.174)",0,4020.926,0,0.12,0.25
0,554,target,"[(1061, 789)]",[],[1],[0.5],horizontal,"(890.0, 762.0)",0.8,0.458,1,4024.722,1,0.12,0.25
0,555,catch,"[(1056, 792)]",[],[1],[],horizontal,"(890.0, 262.0)",1.6,nan,1,4029.488,1,0.12,0.25
0,556,target,"[(1033, 754)]",[],[1],[0.3333333333333333],vertical,"(390.0, 762.0)",1.3333333333333333,0.296,1,4034.413,1,0.12,0.25
0,557,target,"[(1057, 778)]",[],[1],[0.5333333333333333],vertical,"(890.0, 262.0)",0.5666666666666667,0.495,1,4039.259,2,0.12,0.25
0,558,target,"[(1033, 760)]",[],[1],[],vertical,"(890.0, 262.0)",,"('cti', 1.09)",0,4043.756,0,0.14,0.25
0,559,target,"[(1029, 803)]",[],[1],[0.5833333333333334],horizontal,"(390.0, 762.0)",0.95,0.551,1,4047.84,1,0.12,0.25
0,560,target,"[(1057, 773)]",[],[1],[],vertical,"(390.0, 262.0)",,"('cti', 1.161)",0,4052.977,0,0.14,0.25
0,561,target,"[(1057, 790)]",[],[1],[0.7333333333333333],horizontal,"(890.0, 762.0)",1.0666666666666667,0.698,1,4057.147,1,0.14,0.25
0,562,catch,"[(1045, 768)]",[],[1],[],horizontal,"(890.0, 262.0)",1.6,nan,1,4061.956,1,0.14,0.25
0,563,target,"[(1033, 788)]",[],[1],[0.4],vertical,"(390.0, 262.0)",1.3666666666666667,0.362,1,4066.722,1,0.14,0.25
0,564,target,"[(1054, 766)]",[],[1],[0.55],vertical,"(890.0, 262.0)",1.1333333333333333,0.514,1,4071.509,2,0.14,0.25
0,565,target,"[(1061, 786)]",[],[1],[0.16666666666666666],vertical,"(390.0, 762.0)",1.4666666666666666,0.135,0,4077.157,0,0.14,0.25
0,566,target,"[(1035, 771)]",[],[1],[0.5833333333333334],vertical,"(890.0, 762.0)",0.55,0.543,1,4082.18,1,0.14,0.25
0,567,target,"[(1057, 781)]",[],[1],[0.85],horizontal,"(390.0, 762.0)",0.7166666666666667,nan,0,4086.453,0,0.14,0.25
0,568,target,"[(1017, 790)]",[],[1],[0.4666666666666667],horizontal,"(390.0, 762.0)",0.5666666666666667,0.43,1,4090.771,1,0.14,0.25
0,569,target,"[(1061, 776)]",[],[1],[0.23333333333333334],horizontal,"(390.0, 762.0)",1.5166666666666666,0.202,1,4095.54,1,0.12,0.25
0,570,catch,"[(1061, 756)]",[],[1],[],vertical,"(390.0, 762.0)",1.6,nan,1,4100.897,1,0.12,0.25
0,571,target,"[(1029, 782)]",[],[1],[0.4166666666666667],horizontal,"(890.0, 262.0)",1.35,0.38,1,4105.657,2,0.12,0.25
0,572,catch,"[(1061, 769)]",[],[1],[],vertical,"(890.0, 262.0)",1.6,nan,1,4111.533,2,0.12,0.25
0,573,catch,"[(1048, 790)]",[],[1],[],horizontal,"(890.0, 262.0)",,"('cti', 1.063),nan",0,4116.717,0,0.14,0.25
0,574,catch,"[(1045, 786)]",[],[1],[],vertical,"(390.0, 262.0)",,"('cti', 1.096),nan",0,4120.725,0,0.16,0.25
0,575,target,"[(1033, 791)]",[],[1],[0.36666666666666664],vertical,"(390.0, 262.0)",0.75,0.328,1,4124.956,1,0.16,0.25
0,576,catch,"[(1055, 765)]",[],[1],[],horizontal,"(890.0, 262.0)",1.6,nan,1,4129.583,1,0.14,0.25
0,577,target,"[(1033, 757)]",[],[1],[0.55],horizontal,"(390.0, 262.0)",0.6333333333333333,0.524,1,4134.496,1,0.14,0.25
0,578,catch,"[(1061, 790)]",[],[1],[],vertical,"(890.0, 262.0)",1.6,"('cti', 1.594),nan",0,4139.025,0,0.16,0.25
0,579,target,"[(1057, 790)]",[],[1],[0.45],horizontal,"(390.0, 262.0)",1.4666666666666666,0.413,1,4144.229,1,0.14,0.25
0,580,target,"[(1056, 772)]",[],[1],[0.5],horizontal,"(390.0, 262.0)",0.5,0.46,1,4149.473,1,0.14,0.25
0,581,target,"[(1030, 768)]",[],[1],[0.6666666666666666],horizontal,"(390.0, 762.0)",0.7,0.624,1,4153.687,1,0.14,0.25
0,582,target,"[(1057, 786)]",[],[1],[0.5],horizontal,"(390.0, 262.0)",0.43333333333333335,0.461,1,4158.03,2,0.14,0.25
0,583,target,"[(1055, 759)]",[],[1],[0.4666666666666667],vertical,"(890.0, 262.0)",0.7166666666666667,0.427,1,4162.791,2,0.14,0.25
0,584,catch,"[(1041, 786)]",[],[1],[],horizontal,"(390.0, 762.0)",1.6,nan,1,4167.822,2,0.12,0.25
0,585,target,"[(1037, 770)]",[],[1],[0.6],horizontal,"(890.0, 262.0)",0.5333333333333333,0.562,1,4172.974,2,0.12,0.25
0,586,target,"[(1056, 767)]",[],[1],[0.6333333333333333],horizontal,"(890.0, 762.0)",0.5,0.593,1,4177.471,3,0.12,0.25
0,587,target,"[(1050, 773)]",[],[1],[0.6166666666666667],vertical,"(890.0, 762.0)",1.1166666666666667,0.575,1,4182.889,3,0.12,0.25
0,588,target,"[(1083, 772)]",[],[1],[0.5666666666666667],vertical,"(890.0, 262.0)",1.0166666666666666,0.522,1,4188.48,3,0.12,0.25
0,589,catch,"[(1049, 780)]",[],[1],[],vertical,"(390.0, 762.0)",1.6,nan,1,4194.189,3,0.12,0.25
0,590,target,"[(1057, 790)]",[],[1],[0.35],vertical,"(890.0, 762.0)",1.2,0.309,1,4199.488,3,0.12,0.25
0,591,target,"[(1055, 765)]",[],[1],[0.31666666666666665],vertical,"(390.0, 762.0)",1.3666666666666667,0.28,1,4205.323,3,0.12,0.25
0,592,target,"[(1033, 759)]",[],[1],[0.4666666666666667],horizontal,"(890.0, 262.0)",1.2333333333333334,0.432,1,4210.771,3,0.12,0.25
0,593,target,"[(1033, 764)]",[],[1],[0.85],vertical,"(890.0, 262.0)",0.4,nan,0,4216.625,0,0.12,0.25
0,594,target,"[(1032, 791)]",[],[1],[0.5],vertical,"(890.0, 262.0)",0.8333333333333334,0.458,1,4220.867,1,0.12,0.25
0,595,target,"[(1057, 751), (1033, 789)]",[],"[0, 1]",[0.6],vertical,"(390.0, 262.0)",0.75,0.557,1,4225.839,1,0.12,0.25
0,596,target,"[(1025, 767)]",[],[1],[0.5833333333333334],vertical,"(390.0, 762.0)",0.8,0.544,1,4231.54,1,0.12,0.25
0,597,target,"[(1032, 774)]",[],[1],[0.6],vertical,"(890.0, 762.0)",0.5833333333333334,0.558,1,4236.406,2,0.12,0.25
0,598,target,"[(1055, 786)]",[],[1],[0.5666666666666667],horizontal,"(390.0, 762.0)",0.5333333333333333,0.521,1,4241.491,2,0.12,0.25
0,599,target,"[(1033, 771)]",[],[1],[0.5],horizontal,"(390.0, 762.0)",1.1333333333333333,0.462,1,4245.924,2,0.12,0.25
0,600,target,"[(1055, 785)]",[],[1],[0.6666666666666666],horizontal,"(890.0, 762.0)",0.4666666666666667,0.634,1,4251.162,2,0.12,0.25
0,601,target,"[(1029, 813)]",[],[1],[0.11666666666666667],vertical,"(890.0, 762.0)",1.5333333333333332,0.086,0,4255.633,0,0.12,0.25
0,602,target,"[(1057, 794)]",[],[1],[0.6833333333333333],horizontal,"(390.0, 262.0)",0.55,0.645,1,4260.424,1,0.12,0.25
0,603,target,"[(1029, 786)]",[],[1],[0.5833333333333334],horizontal,"(390.0, 762.0)",0.7833333333333333,0.544,1,4264.908,1,0.1,0.25
0,604,catch,"[(1058, 795)]",[],[1],[],vertical,"(390.0, 262.0)",,"('cti', 1.399),nan",0,4269.656,0,0.12,0.25
0,605,target,"[(1032, 791)]",[],[1],[0.5833333333333334],vertical,"(890.0, 762.0)",1.2166666666666666,0.541,1,4274.265,1,0.12,0.25
0,606,target,"[(1055, 786)]",[],[1],[0.3333333333333333],horizontal,"(890.0, 262.0)",1.4333333333333333,0.298,1,4279.207,1,0.12,0.25
0,607,target,"[(1029, 778)]",[],[1],[0.5166666666666666],vertical,"(390.0, 262.0)",0.48333333333333334,0.482,1,4284.447,1,0.12,0.25
0,608,target,"[(1051, 770)]",[],[1],[0.35],vertical,"(890.0, 762.0)",1.3166666666666667,0.315,1,4288.628,2,0.1,0.25
0,609,target,"[(1029, 761)]",[],[1],[0.6833333333333333],vertical,"(890.0, 762.0)",0.6333333333333333,0.651,1,4294.017,2,0.1,0.25
0,610,target,"[(1029, 767)]",[],[1],[0.08333333333333333],vertical,"(390.0, 262.0)",1.1166666666666667,0.051,0,4298.69,0,0.08,0.25
0,611,target,"[(1032, 858)]",[],[1],[0.48333333333333334],vertical,"(390.0, 762.0)",1.1166666666666667,0.452,1,4302.606,1,0.08,0.25
0,612,target,"[(1064, 813)]",[],[1],[0.31666666666666665],horizontal,"(890.0, 262.0)",1.35,0.282,1,4378.806,1,0.08,0.25
0,613,target,"[(1047, 786)]",[],[1],[0.5],horizontal,"(390.0, 762.0)",0.9,0.465,1,4383.949,1,0.08,0.25
0,614,target,"[(1071, 787)]",[],[1],[0.55],vertical,"(890.0, 762.0)",0.8833333333333333,0.511,1,4388.325,2,0.08,0.25
0,615,target,"[(1054, 794)]",[],[1],[0.4666666666666667],horizontal,"(390.0, 762.0)",0.9,0.429,1,4393.473,2,0.08,0.25
0,616,target,"[(1044, 787)]",[],[1],[0.5833333333333334],horizontal,"(890.0, 262.0)",1.2,0.544,1,4398.602,2,0.08,0.25
