block,practice,trial,change_interval_s,change_interval_frames,taps_start_time_during_fix,taps_end_time_during_fix,taps_start_loc_during_fix,taps_end_loc_during_fix,taps_on_lever_during_fix,taps_on_lever_frame_during_fix,taps_on_lever_s_during_fix,fix_xy,bar_orientation,target_xy,cti,rt,acc,time
1,True,1,1.111,66,[],[],"[(1064, 833)]",[],[1],[25],[0.4166666666666667],"[640.0, 512.0]",horizontal,"(390.0, 762.0)",[1.3666666666666667],[0.38],1,0.363
1,True,2,1.192,71,[],[],"[(1059, 849)]",[],[1],[36],[0.6],"[640.0, 512.0]",vertical,"(390.0, 762.0)",[0.65],[0.556],1,150.363
1,True,3,0.57,34,[],[917452],"[(1184, 904)]","[(1176, 910)]",[1],[11],[0.18333333333333332],"[640.0, 512.0]",vertical,"(890.0, 762.0)",[],[0],0,156.378
1,True,4,0.556,33,[],[],"[(1137, 888)]",[],[1],[30],[0.5],"[640.0, 512.0]",vertical,"(890.0, 262.0)",[0.7666666666666666],[0.461],1,911.384
1,False,1,1.15,69,[],[],"[(1140, 875)]",[],[1],[32],[0.5333333333333333],"[640.0, 512.0]",horizontal,"(890.0, 262.0)",[0.8],[0.487],1,921.716
1,False,2,0.783,46,[],[],"[(1116, 885)]",[],[1],[34],[0.5666666666666667],"[640.0, 512.0]",horizontal,"(390.0, 262.0)",[1.6166666666666667],[0.53],1,926.236
1,False,3,0.998,59,[],[],"[(1056, 886)]",[],[1],[11],[0.18333333333333332],"[640.0, 512.0]",vertical,"(890.0, 262.0)",[1.2333333333333334],[0.148],1,931.112
1,False,4,1.089,65,[],[],"[(274, 902), (288, 889), (277, 905), (535, 387), (1133, 902)]",[],"[0, 0, 0, 0, 1]",[34],[0.5666666666666667],"[640.0, 512.0]",vertical,"(890.0, 762.0)",[0.9166666666666666],[0.524],1,935.675
1,False,5,0.912,54,[],[],"[(1099, 850)]",[],[1],[33],[0.55],"[640.0, 512.0]",vertical,"(890.0, 262.0)",[1.0333333333333332],[0.509],1,1130.693
1,False,6,0.84,50,[],[],"[(1081, 883)]",[],[1],[35],[0.5833333333333334],"[640.0, 512.0]",vertical,"(890.0, 262.0)",[1.45],[0.538],1,1135.117
1,False,7,0.876,52,[],[],"[(1108, 900)]",[],[1],[41],[0.6833333333333333],"[640.0, 512.0]",horizontal,"(390.0, 762.0)",[0.5333333333333333],[0.641],1,1140.069
1,False,8,0.662,39,[],[],"[(1117, 880)]",[],[1],[32],[0.5333333333333333],"[640.0, 512.0]",horizontal,"(890.0, 262.0)",[1.25],[0.493],1,1144.1
1,False,9,0.883,52,[],[],"[(1153, 867)]",[],[1],[37],[0.6166666666666667],"[640.0, 512.0]",horizontal,"(390.0, 762.0)",[1.0333333333333332],[0.575],1,1148.691
1,False,10,0.689,41,[],[],"[(1115, 855)]",[],[1],[36],[0.6],"[640.0, 512.0]",horizontal,"(890.0, 762.0)",[0.6666666666666666],[0.557],1,1319.542
1,False,11,0.759,45,[],[],"[(1123, 856)]",[],[1],[51],[0.85],"[640.0, 512.0]",vertical,"(390.0, 762.0)",[1.35],[0.804],0,1323.766
1,False,12,0.559,33,[],[],"[(1153, 858)]",[],[1],[36],[0.6],"[640.0, 512.0]",vertical,"(890.0, 762.0)",[1.05],[0.555],1,1328.748
1,False,13,0.655,39,[],[],"[(1046, 834)]",[],[1],[43],[0.7166666666666667],"[640.0, 512.0]",horizontal,"(890.0, 762.0)",[1.1833333333333333],[0.67],1,1333.151
1,False,14,0.653,39,[],[],"[(1091, 859)]",[],[1],[38],[0.6333333333333333],"[640.0, 512.0]",vertical,"(890.0, 262.0)",[1.5333333333333332],[0.594],1,1337.85
1,False,15,0.522,31,[],[],"[(1104, 858)]",[],[1],[51],[0.85],"[640.0, 512.0]",vertical,"(390.0, 762.0)",[1.3666666666666667],[0.797],0,1342.835
1,False,16,0.599,35,[],[],"[(1196, 918)]",[],[1],[],[],"[640.0, 512.0]",vertical,"(390.0, 762.0)",[],[0],0,1347.611
1,False,17,0.827,49,[],[],"[(1184, 861)]",[],[1],[],[],"[640.0, 512.0]",vertical,"(390.0, 262.0)",[],[0],0,1349.441
1,False,18,1.156,69,[],[],"[(1128, 966), (1095, 858)]",[],"[0, 1]",[],[],"[640.0, 512.0]",horizontal,"(390.0, 262.0)",[],[0],0,1351.185
1,False,19,0.587,35,[],[],"[(1185, 890)]",[],[1],[49],[0.8166666666666667],"[640.0, 512.0]",horizontal,"(390.0, 262.0)",[1.0666666666666667],[0.773],1,1385.348
1,False,20,1.004,60,[],[],"[(1051, 884)]",[],[1],[32],[0.5333333333333333],"[640.0, 512.0]",horizontal,"(390.0, 262.0)",[1.4],[0.492],1,1404.42
1,False,21,1.03,61,[],[],"[(1111, 880)]",[],[1],[35],[0.5833333333333334],"[640.0, 512.0]",vertical,"(890.0, 262.0)",[0.65],[0.542],1,1409.491
1,False,22,1.015,60,[],[],"[(1105, 878)]",[],[1],[35],[0.5833333333333334],"[640.0, 512.0]",horizontal,"(390.0, 762.0)",[0.9666666666666667],[0.537],1,1413.638
1,False,23,0.634,38,[],[],"[(1086, 878)]",[],[1],[33],[0.55],"[640.0, 512.0]",horizontal,"(390.0, 262.0)",[1.2666666666666666],[0.509],1,1418.18
1,False,24,1.094,65,[],[],"[(1076, 858)]",[],[1],[46],[0.7666666666666666],"[640.0, 512.0]",horizontal,"(890.0, 262.0)",[1.55],[0.727],1,1422.801
1,False,25,1.187,71,[],[],"[(1111, 874)]",[],[1],[39],[0.65],"[640.0, 512.0]",vertical,"(890.0, 262.0)",[1.4333333333333333],[0.61],1,1428.267
1,False,26,0.848,50,[],[],"[(1048, 877)]",[],[1],[36],[0.6],"[640.0, 512.0]",horizontal,"(890.0, 762.0)",[1.35],[0.557],1,1433.53
1,False,27,1.07,64,[],[],"[(1126, 856)]",[],[1],[51],[0.85],"[640.0, 512.0]",vertical,"(390.0, 262.0)",[0.6666666666666666],[0.802],0,1438.569
1,False,28,0.618,37,[],[],"[(1196, 866)]",[],[1],[51],[0.85],"[640.0, 512.0]",vertical,"(890.0, 262.0)",[0.9166666666666666],[0.802],0,1445.22
1,False,29,0.958,57,[],[],"[(1093, 880)]",[],[1],[51],[0.85],"[640.0, 512.0]",horizontal,"(390.0, 262.0)",[0.5166666666666666],[0.802],0,1449.609
1,False,30,0.925,55,[],[],"[(1047, 877)]",[],[1],[51],[0.85],"[640.0, 512.0]",horizontal,"(390.0, 262.0)",[1.1166666666666667],[0.808],0,1466.253
1,False,31,1.154,69,[],[],"[(1087, 889)]",[],[1],[51],[0.85],"[640.0, 512.0]",vertical,"(390.0, 262.0)",[1.45],[0.801],0,1472.744
1,False,32,0.827,49,[],[],"[(1066, 861)]",[],[1],[51],[0.85],"[640.0, 512.0]",horizontal,"(890.0, 262.0)",[1.2333333333333334],[0.803],0,1479.751
1,False,33,0.812,48,[],[],"[(1148, 863)]",[],[1],[51],[0.85],"[640.0, 512.0]",horizontal,"(890.0, 762.0)",[1.1833333333333333],[0.802],0,1486.07
1,False,34,1.175,70,[],[],"[(1196, 861)]",[],[1],[38],[0.6333333333333333],"[640.0, 512.0]",horizontal,"(390.0, 762.0)",[1.0666666666666667],[0.595],1,1508.418
1,False,35,0.63,37,[],[],"[(1101, 886)]",[],[1],[44],[0.7333333333333333],"[640.0, 512.0]",vertical,"(890.0, 262.0)",[0.6833333333333333],[0.686],1,1513.166
1,False,36,1.171,70,[],[],"[(1080, 888)]",[],[1],[35],[0.5833333333333334],"[640.0, 512.0]",horizontal,"(890.0, 262.0)",[1.5666666666666667],[0.539],1,1520.041
1,False,37,0.514,30,[],[],"[(1026, 864), (1116, 861)]",[],"[0, 1]",[31],[0.5166666666666666],"[640.0, 512.0]",horizontal,"(890.0, 262.0)",[1.2666666666666666],[0.474],1,1525.35
1,False,38,0.858,51,[],[],"[(1050, 864)]",[],[1],[32],[0.5333333333333333],"[640.0, 512.0]",vertical,"(890.0, 762.0)",[1.6833333333333333],[0.497],1,1532.486
1,False,39,1.066,63,[],[],"[(1096, 885)]",[],[1],[33],[0.55],"[640.0, 512.0]",vertical,"(390.0, 262.0)",[1.4333333333333333],[0.507],1,1537.601
1,False,40,0.608,36,[],[],"[(1099, 876)]",[],[1],[49],[0.8166666666666667],"[640.0, 512.0]",horizontal,"(390.0, 262.0)",[1.15],[0.773],1,1542.714
1,False,41,1.108,66,[],[],"[(1054, 881)]",[],[1],[36],[0.6],"[640.0, 512.0]",horizontal,"(890.0, 262.0)",[0.8],[0.554],1,1547.394
1,False,42,0.5,30,[],[],"[(1095, 881)]",[],[1],[35],[0.5833333333333334],"[640.0, 512.0]",vertical,"(890.0, 762.0)",[1.1333333333333333],[0.541],1,1551.77
1,False,43,0.565,33,[],[],"[(1078, 889)]",[],[1],[51],[0.85],"[640.0, 512.0]",horizontal,"(390.0, 262.0)",[0.6],[0.806],0,1556.038
1,False,44,0.737,44,[],[],"[(1105, 888)]",[],[1],[32],[0.5333333333333333],"[640.0, 512.0]",horizontal,"(890.0, 762.0)",[1.6],[0.491],1,1560.199
1,False,45,0.948,56,[],[],"[(1106, 892)]",[],[1],[32],[0.5333333333333333],"[640.0, 512.0]",horizontal,"(890.0, 762.0)",[0.5666666666666667],[0.493],1,1584.844
1,False,46,0.686,41,[],[],"[(1084, 893)]",[],[1],[51],[0.85],"[640.0, 512.0]",vertical,"(390.0, 262.0)",[0.5],[0.801],0,1588.847
1,False,47,0.787,47,[],[],"[(1130, 861)]",[],[1],[32],[0.5333333333333333],"[640.0, 512.0]",horizontal,"(890.0, 762.0)",[0.6333333333333333],[0.491],1,1593.001
1,False,48,0.978,58,[],[],"[(1096, 881)]",[],[1],[36],[0.6],"[640.0, 512.0]",horizontal,"(390.0, 262.0)",[0.9],[0.56],1,1597.061
1,False,49,0.65,39,[],[],"[(1099, 901)]",[],[1],[32],[0.5333333333333333],"[640.0, 512.0]",vertical,"(390.0, 762.0)",[1.6166666666666667],[0.489],1,1601.446
1,False,50,0.576,34,[],[],"[(1111, 889)]",[],[1],[33],[0.55],"[640.0, 512.0]",vertical,"(890.0, 762.0)",[1.5166666666666666],[0.513],1,1606.372
1,False,51,0.858,51,[],[],"[(1108, 898)]",[],[1],[33],[0.55],"[640.0, 512.0]",vertical,"(890.0, 262.0)",[1.2666666666666666],[0.511],1,1612.619
1,False,52,0.889,53,[],[],"[(1118, 895)]",[],[1],[48],[0.8],"[640.0, 512.0]",horizontal,"(890.0, 262.0)",[1.05],[0.751],1,1617.271
1,False,53,1.15,69,[],[],"[(1078, 860)]",[],[1],[48],[0.8],"[640.0, 512.0]",horizontal,"(890.0, 262.0)",[1.0666666666666667],[0.757],1,1622.149
1,False,54,0.913,54,[],[],"[(1066, 864)]",[],[1],[34],[0.5666666666666667],"[640.0, 512.0]",vertical,"(890.0, 262.0)",[1.1833333333333333],[0.525],1,1627.337
1,False,55,0.629,37,[],[],"[(1081, 861)]",[],[1],[36],[0.6],"[640.0, 512.0]",horizontal,"(390.0, 762.0)",[0.9833333333333333],[0.557],1,1635.214
1,False,56,1.075,64,[],[],"[(1080, 866)]",[],[1],[44],[0.7333333333333333],"[640.0, 512.0]",vertical,"(890.0, 762.0)",[0.6166666666666667],[0.69],1,1639.483
1,False,57,0.851,51,[],[],"[(1074, 902)]",[],[1],[32],[0.5333333333333333],"[640.0, 512.0]",vertical,"(890.0, 262.0)",[1.1333333333333333],[0.493],1,1643.965
1,False,58,0.546,32,[],[],"[(1110, 884)]",[],[1],[35],[0.5833333333333334],"[640.0, 512.0]",horizontal,"(890.0, 262.0)",[1.2166666666666666],[0.54],1,1648.66
1,False,59,0.966,57,[],[],"[(1123, 891)]",[],[1],[37],[0.6166666666666667],"[640.0, 512.0]",vertical,"(390.0, 262.0)",[0.8666666666666667],[0.577],1,1652.95
1,False,60,1.07,64,[],[],"[(1108, 906)]",[],[1],[36],[0.6],"[640.0, 512.0]",vertical,"(890.0, 762.0)",[1.2666666666666666],[0.556],1,1657.477
2,False,61,1.054,63,[],[],"[(1081, 894)]",[],[1],[37],[0.6166666666666667],"[640.0, 512.0]",vertical,"(890.0, 262.0)",[0.55],[0.577],1,1662.996
2,False,62,0.819,49,[],[],"[(1106, 892)]",[],[1],[34],[0.5666666666666667],"[640.0, 512.0]",vertical,"(390.0, 262.0)",[1.6333333333333333],[0.531],1,1667.288
2,False,63,1.132,67,[],[],"[(1093, 889)]",[],[1],[42],[0.7],"[640.0, 512.0]",horizontal,"(390.0, 762.0)",[1.3166666666666667],[0.652],1,1672.78
2,False,64,0.983,58,[],[],"[(1112, 882)]",[],[1],[49],[0.8166666666666667],"[640.0, 512.0]",horizontal,"(390.0, 262.0)",[0.7833333333333333],[0.775],1,1677.943
2,False,65,0.992,59,[],[],"[(1074, 879)]",[],[1],[36],[0.6],"[640.0, 512.0]",vertical,"(890.0, 762.0)",[0.65],[0.558],1,1682.529
2,False,66,0.551,33,[],[],"[(1097, 889)]",[],[1],[31],[0.5166666666666666],"[640.0, 512.0]",vertical,"(390.0, 762.0)",[1.2],[0.48],1,1686.921
2,False,67,1.106,66,[],[],"[(1073, 859)]",[],[1],[34],[0.5666666666666667],"[640.0, 512.0]",vertical,"(890.0, 262.0)",[1.0166666666666666],[0.525],1,1691.116
2,False,68,0.924,55,[],[],"[(1139, 889)]",[],[1],[34],[0.5666666666666667],"[640.0, 512.0]",horizontal,"(390.0, 262.0)",[0.65],[0.524],1,1695.836
2,False,69,0.94,56,[],[],"[(1087, 892)]",[],[1],[44],[0.7333333333333333],"[640.0, 512.0]",vertical,"(390.0, 762.0)",[0.8333333333333334],[0.691],1,1701.036
2,False,70,1.197,71,[],[],"[(1107, 882)]",[],[1],[38],[0.6333333333333333],"[640.0, 512.0]",horizontal,"(890.0, 762.0)",[0.6333333333333333],[0.588],1,1705.448
2,False,71,1.067,64,[],[],"[(1112, 884)]",[],[1],[33],[0.55],"[640.0, 512.0]",horizontal,"(890.0, 762.0)",[1.0833333333333333],[0.504],1,1709.833
2,False,72,0.692,41,[],[],"[(1166, 894)]",[],[1],[34],[0.5666666666666667],"[640.0, 512.0]",horizontal,"(890.0, 262.0)",[1.6166666666666667],[0.522],1,1714.552
2,False,73,0.785,47,[],[],"[(1099, 880)]",[],[1],[32],[0.5333333333333333],"[640.0, 512.0]",horizontal,"(390.0, 262.0)",[1.2333333333333334],[0.489],1,1957.963
2,False,74,0.566,33,[],[],"[(1115, 880)]",[],[1],[51],[0.85],"[640.0, 512.0]",vertical,"(390.0, 262.0)",[0.5666666666666667],[0.796],0,1962.522
2,False,75,1.107,66,[],[],"[(1121, 889)]",[],[1],[48],[0.8],"[640.0, 512.0]",horizontal,"(890.0, 262.0)",[1.4333333333333333],[0.753],1,1966.551
2,False,76,0.609,36,[],[],"[(1107, 891)]",[],[1],[33],[0.55],"[640.0, 512.0]",horizontal,"(390.0, 262.0)",[1.1833333333333333],[0.505],1,1971.982
2,False,77,0.672,40,[],[],"[(1112, 896)]",[],[1],[35],[0.5833333333333334],"[640.0, 512.0]",horizontal,"(890.0, 262.0)",[1.2666666666666666],[0.543],1,1976.644
2,False,78,0.72,43,[],[],"[(1106, 880)]",[],[1],[34],[0.5666666666666667],"[640.0, 512.0]",horizontal,"(890.0, 762.0)",[0.7166666666666667],[0.527],1,1981.194
2,False,79,1.156,69,[],[],"[(1118, 889)]",[],[1],[34],[0.5666666666666667],"[640.0, 512.0]",vertical,"(390.0, 762.0)",[0.9],[0.521],1,1985.114
2,False,80,0.864,51,[],[],"[(1106, 893)]",[],[1],[33],[0.55],"[640.0, 512.0]",vertical,"(890.0, 762.0)",[1.4833333333333334],[0.508],1,1989.77
2,False,81,1.116,66,[],[],"[(1114, 899)]",[],[1],[33],[0.55],"[640.0, 512.0]",vertical,"(390.0, 262.0)",[0.65],[0.508],1,1994.689
2,False,82,0.664,39,[],[],"[(1109, 884)]",[],[1],[51],[0.85],"[640.0, 512.0]",horizontal,"(890.0, 262.0)",[0.7],[0.794],0,1998.971
2,False,83,0.8,48,[],[],"[(1133, 876)]",[],[1],[31],[0.5166666666666666],"[640.0, 512.0]",horizontal,"(890.0, 262.0)",[1.0166666666666666],[0.477],1,2006.85
2,False,84,0.659,39,[],[],"[(1093, 886)]",[],[1],[32],[0.5333333333333333],"[640.0, 512.0]",vertical,"(390.0, 262.0)",[0.7666666666666666],[0.494],1,2247.665
2,False,85,0.591,35,[],[],"[(1104, 869)]",[],[1],[33],[0.55],"[640.0, 512.0]",horizontal,"(390.0, 762.0)",[0.7],[0.502],1,2251.531
2,False,86,1.089,65,[],[],"[(1086, 862)]",[],[1],[31],[0.5166666666666666],"[640.0, 512.0]",vertical,"(890.0, 762.0)",[0.5666666666666667],[0.476],1,2255.402
2,False,87,0.694,41,[],[],"[(1084, 874)]",[],[1],[30],[0.5],"[640.0, 512.0]",vertical,"(390.0, 762.0)",[1.25],[0.469],1,2259.623
2,False,88,0.988,59,[],[],"[(1130, 879)]",[],[1],[39],[0.65],"[640.0, 512.0]",horizontal,"(390.0, 762.0)",[1.6833333333333333],[0.603],1,2264.038
2,False,89,0.638,38,[],[],"[(1075, 876)]",[],[1],[38],[0.6333333333333333],"[640.0, 512.0]",vertical,"(890.0, 762.0)",[0.6833333333333333],[0.593],1,2269.233
2,False,90,1.142,68,[],[],"[(1074, 879)]",[],[1],[37],[0.6166666666666667],"[640.0, 512.0]",vertical,"(390.0, 762.0)",[0.6166666666666667],[0.58],1,2273.204
2,False,91,0.935,56,[],[],"[(1087, 873)]",[],[1],[34],[0.5666666666666667],"[640.0, 512.0]",horizontal,"(390.0, 762.0)",[1.0333333333333332],[0.527],1,2277.462
2,False,92,1.081,64,[],[],"[(1049, 887)]",[],[1],[33],[0.55],"[640.0, 512.0]",horizontal,"(390.0, 762.0)",[0.7166666666666667],[0.512],1,2281.962
2,False,93,0.666,39,[],[],"[(1078, 889)]",[],[1],[38],[0.6333333333333333],"[640.0, 512.0]",vertical,"(390.0, 262.0)",[0.5166666666666666],[0.587],1,2286.802
2,False,94,1.086,65,[],[],"[(1086, 880)]",[],[1],[27],[0.45],"[640.0, 512.0]",vertical,"(890.0, 262.0)",[1.3833333333333333],[0.406],1,2290.581
2,False,95,0.918,55,[],[],"[(1131, 873)]",[],[1],[34],[0.5666666666666667],"[640.0, 512.0]",horizontal,"(890.0, 262.0)",[0.7],[0.531],1,2295.785
2,False,96,1.063,63,[],[],"[(1079, 875)]",[],[1],[33],[0.55],"[640.0, 512.0]",vertical,"(390.0, 262.0)",[1.55],[0.51],1,2299.889
2,False,97,0.582,34,[],[],"[(1087, 873)]",[],[1],[37],[0.6166666666666667],"[640.0, 512.0]",vertical,"(890.0, 262.0)",[0.6833333333333333],[0.572],1,2305.082
2,False,98,0.934,56,[],[],"[(1080, 873)]",[],[1],[30],[0.5],"[640.0, 512.0]",horizontal,"(390.0, 262.0)",[1.5833333333333333],[0.46],1,2309.086
2,False,99,1.097,65,[],[],"[(1112, 881)]",[],[1],[35],[0.5833333333333334],"[640.0, 512.0]",horizontal,"(390.0, 262.0)",[1.3666666666666667],[0.539],1,2314.085
2,False,100,0.587,35,[],[],"[(1086, 897)]",[],[1],[31],[0.5166666666666666],"[640.0, 512.0]",horizontal,"(890.0, 262.0)",[1.5833333333333333],[0.477],1,2319.144
2,False,101,0.507,30,[],[],"[(1123, 895)]",[],[1],[36],[0.6],"[640.0, 512.0]",horizontal,"(890.0, 762.0)",[1.1],[0.558],1,2323.835
2,False,102,1.036,62,[],[],"[(1104, 884)]",[],[1],[34],[0.5666666666666667],"[640.0, 512.0]",horizontal,"(890.0, 762.0)",[1.1166666666666667],[0.524],1,2327.931
2,False,103,0.563,33,[],[],"[(1081, 875)]",[],[1],[30],[0.5],"[640.0, 512.0]",horizontal,"(890.0, 262.0)",[1.3833333333333333],[0.464],1,2332.753
2,False,104,1.183,70,[],[],"[(1109, 882)]",[],[1],[31],[0.5166666666666666],"[640.0, 512.0]",vertical,"(890.0, 262.0)",[1.3],[0.477],1,2337.163
2,False,105,1.009,60,[],[],"[(1105, 895)]",[],[1],[36],[0.6],"[640.0, 512.0]",vertical,"(390.0, 762.0)",[0.85],[0.558],1,2342.102
2,False,106,0.818,49,[],[],"[(1082, 875)]",[],[1],[42],[0.7],"[640.0, 512.0]",vertical,"(390.0, 262.0)",[0.5333333333333333],[0.661],1,2346.705
2,False,107,1.111,66,[],[],"[(1087, 890)]",[],[1],[32],[0.5333333333333333],"[640.0, 512.0]",horizontal,"(890.0, 262.0)",[1.3166666666666667],[0.498],1,2350.75
2,False,108,0.911,54,[],[],"[(1081, 876)]",[],[1],[32],[0.5333333333333333],"[640.0, 512.0]",vertical,"(890.0, 262.0)",[1.45],[0.492],1,2355.755
2,False,109,0.842,50,[],[],"[(1066, 894)]",[],[1],[34],[0.5666666666666667],"[640.0, 512.0]",horizontal,"(390.0, 762.0)",[0.5833333333333334],[0.527],1,2360.541
2,False,110,1.059,63,[],[],"[(1084, 899)]",[],[1],[34],[0.5666666666666667],"[640.0, 512.0]",horizontal,"(390.0, 762.0)",[0.6333333333333333],[0.524],1,2364.545
2,False,111,0.991,59,[],[],"[(1102, 866)]",[],[1],[32],[0.5333333333333333],"[640.0, 512.0]",vertical,"(890.0, 262.0)",[1.3833333333333333],[0.493],1,2370.222
2,False,112,1.026,61,[],[],"[(1087, 899)]",[],[1],[34],[0.5666666666666667],"[640.0, 512.0]",vertical,"(890.0, 262.0)",[1.1833333333333333],[0.524],1,2375.221
2,False,113,0.911,54,[],[],"[(1049, 861)]",[],[1],[34],[0.5666666666666667],"[640.0, 512.0]",vertical,"(390.0, 762.0)",[1.0833333333333333],[0.536],1,2379.903
2,False,114,1.122,67,[],[],"[(1105, 894)]",[],[1],[33],[0.55],"[640.0, 512.0]",horizontal,"(390.0, 762.0)",[0.7166666666666667],[0.51],1,2384.635
2,False,115,0.929,55,[],[],"[(1093, 899)]",[],[1],[35],[0.5833333333333334],"[640.0, 512.0]",horizontal,"(890.0, 262.0)",[1.2333333333333334],[0.543],1,2391.352
2,False,116,0.816,48,[],[],"[(1105, 867)]",[],[1],[35],[0.5833333333333334],"[640.0, 512.0]",vertical,"(390.0, 262.0)",[0.7],[0.539],1,2395.989
2,False,117,0.609,36,[],[],"[(1106, 877)]",[],[1],[34],[0.5666666666666667],"[640.0, 512.0]",horizontal,"(890.0, 262.0)",[1.4833333333333334],[0.53],1,2400.124
2,False,118,0.892,53,[],[],"[(1105, 886)]",[],[1],[41],[0.6833333333333333],"[640.0, 512.0]",horizontal,"(390.0, 762.0)",[1.0833333333333333],[0.637],1,2405.463
2,False,119,0.58,34,[],[],"[(1090, 897)]",[],[1],[35],[0.5833333333333334],"[640.0, 512.0]",horizontal,"(890.0, 762.0)",[1.1333333333333333],[0.541],1,2410.07
2,False,120,1.008,60,[],[],"[(1080, 870)]",[],[1],[29],[0.48333333333333334],"[640.0, 512.0]",vertical,"(390.0, 262.0)",[0.65],[0.448],1,2414.47
3,False,121,0.787,47,[],[],"[(1122, 881)]",[],[1],[35],[0.5833333333333334],"[640.0, 512.0]",horizontal,"(890.0, 762.0)",[1.45],[0.54],1,2418.7
3,False,122,1.157,69,[],[],"[(1080, 893)]",[],[1],[34],[0.5666666666666667],"[640.0, 512.0]",vertical,"(390.0, 262.0)",[1.0833333333333333],[0.522],1,2423.523
3,False,123,0.754,45,[],[],"[(1105, 873)]",[],[1],[39],[0.65],"[640.0, 512.0]",vertical,"(890.0, 762.0)",[1.0666666666666667],[0.606],1,2428.352
3,False,124,0.626,37,[],[],"[(1100, 858)]",[],[1],[34],[0.5666666666666667],"[640.0, 512.0]",vertical,"(890.0, 762.0)",[1.4],[0.524],1,2432.726
3,False,125,1.156,69,[],[],"[(1105, 867)]",[],[1],[37],[0.6166666666666667],"[640.0, 512.0]",vertical,"(390.0, 262.0)",[0.7833333333333333],[0.575],1,2437.274
3,False,126,0.912,54,[],[],"[(1105, 889)]",[],[1],[33],[0.55],"[640.0, 512.0]",vertical,"(890.0, 762.0)",[1.5],[0.506],1,2441.8
3,False,127,0.946,56,[],[],"[(1105, 899)]",[],[1],[33],[0.55],"[640.0, 512.0]",vertical,"(390.0, 262.0)",[1.4333333333333333],[0.507],1,2446.871
3,False,128,0.532,31,[],[],"[(1080, 868)]",[],[1],[35],[0.5833333333333334],"[640.0, 512.0]",vertical,"(390.0, 762.0)",[1.0666666666666667],[0.538],1,2451.77
3,False,129,0.903,54,[],[],"[(1108, 876)]",[],[1],[36],[0.6],"[640.0, 512.0]",horizontal,"(890.0, 762.0)",[1.65],[0.558],1,2456.067
3,False,130,1.046,62,[],[],"[(1119, 885)]",[],[1],[37],[0.6166666666666667],"[640.0, 512.0]",vertical,"(890.0, 762.0)",[0.7333333333333333],[0.573],1,2461.238
3,False,131,1.152,69,[],[],"[(1081, 894)]",[],[1],[34],[0.5666666666666667],"[640.0, 512.0]",vertical,"(390.0, 262.0)",[1.25],[0.526],1,2465.502
3,False,132,0.863,51,[],[],"[(1106, 863)]",[],[1],[34],[0.5666666666666667],"[640.0, 512.0]",vertical,"(390.0, 762.0)",[0.8833333333333333],[0.525],1,2470.356
3,False,133,0.897,53,[],[],"[(1153, 914)]",[],[1],[42],[0.7],"[640.0, 512.0]",vertical,"(890.0, 262.0)",[0.75],[0.656],1,2474.618
3,False,134,1.189,71,[],[],"[(1107, 865)]",[],[1],[37],[0.6166666666666667],"[640.0, 512.0]",vertical,"(390.0, 762.0)",[1.0833333333333333],[0.576],1,2501.867
3,False,135,0.889,53,[],[],"[(1095, 872)]",[],[1],[36],[0.6],"[640.0, 512.0]",vertical,"(390.0, 262.0)",[0.65],[0.558],1,2506.82
3,False,136,0.865,51,[],[],"[(1093, 883)]",[],[1],[36],[0.6],"[640.0, 512.0]",horizontal,"(890.0, 262.0)",[0.65],[0.556],1,2510.971
3,False,137,1.12,67,[],[],"[(1105, 902)]",[],[1],[33],[0.55],"[640.0, 512.0]",vertical,"(390.0, 762.0)",[0.7166666666666667],[0.51],1,2514.97
3,False,138,1.158,69,[],[],"[(1072, 892)]",[],[1],[36],[0.6],"[640.0, 512.0]",vertical,"(390.0, 762.0)",[1.6166666666666667],[0.555],1,2519.287
3,False,139,0.644,38,[],[],"[(1119, 897)]",[],[1],[36],[0.6],"[640.0, 512.0]",horizontal,"(390.0, 262.0)",[0.5166666666666666],[0.557],1,2524.771
3,False,140,1.032,61,[],[],"[(1104, 899)]",[],[1],[35],[0.5833333333333334],"[640.0, 512.0]",vertical,"(390.0, 262.0)",[1.6166666666666667],[0.538],1,2528.563
3,False,141,1.025,61,[],[],"[(1072, 871)]",[],[1],[47],[0.7833333333333333],"[640.0, 512.0]",horizontal,"(890.0, 262.0)",[0.5833333333333334],[0.738],1,2533.624
3,False,142,0.781,46,[],[],"[(1130, 881)]",[],[1],[44],[0.7333333333333333],"[640.0, 512.0]",horizontal,"(890.0, 262.0)",[1.1],[0.686],1,2538.022
3,False,143,1.087,65,[],[],"[(1148, 881)]",[],[1],[39],[0.65],"[640.0, 512.0]",vertical,"(890.0, 762.0)",[1.1666666666666667],[0.606],1,2542.583
3,False,144,0.964,57,[],[],"[(1117, 868)]",[],[1],[33],[0.55],"[640.0, 512.0]",horizontal,"(390.0, 262.0)",[1.4333333333333333],[0.507],1,2547.445
3,False,145,0.802,48,[],[],"[(1127, 866)]",[],[1],[36],[0.6],"[640.0, 512.0]",vertical,"(890.0, 762.0)",[0.75],[0.555],1,2552.267
3,False,146,1.176,70,[],[],"[(1103, 870)]",[],[1],[37],[0.6166666666666667],"[640.0, 512.0]",horizontal,"(390.0, 762.0)",[1.5],[0.568],1,2556.441
3,False,147,0.954,57,[],[],"[(1142, 874)]",[],[1],[39],[0.65],"[640.0, 512.0]",vertical,"(890.0, 762.0)",[0.8333333333333334],[0.61],1,2561.756
3,False,148,1.099,65,[],[],"[(1130, 880)]",[],[1],[34],[0.5666666666666667],"[640.0, 512.0]",horizontal,"(390.0, 262.0)",[0.9333333333333333],[0.525],1,2566.378
3,False,149,0.591,35,[],[],"[(1129, 877)]",[],[1],[36],[0.6],"[640.0, 512.0]",vertical,"(390.0, 762.0)",[1.1333333333333333],[0.558],1,2573.291
3,False,150,0.902,54,[],[],"[(1129, 894)]",[],[1],[31],[0.5166666666666666],"[640.0, 512.0]",vertical,"(890.0, 262.0)",[0.8],[0.473],1,2577.741
3,False,151,0.94,56,[],[],"[(1122, 886)]",[],[1],[34],[0.5666666666666667],"[640.0, 512.0]",vertical,"(890.0, 262.0)",[1.3],[0.529],1,2581.941
3,False,152,0.817,49,[],[],"[(1080, 853)]",[],[1],[38],[0.6333333333333333],"[640.0, 512.0]",vertical,"(890.0, 262.0)",[0.8666666666666667],[0.596],1,2586.648
3,False,153,0.883,52,[],[],"[(1105, 880)]",[],[1],[34],[0.5666666666666667],"[640.0, 512.0]",vertical,"(390.0, 762.0)",[1.5666666666666667],[0.521],1,2591.118
3,False,154,0.612,36,[],[],"[(1089, 861)]",[],[1],[40],[0.6666666666666666],"[640.0, 512.0]",vertical,"(390.0, 262.0)",[0.5333333333333333],[0.625],1,2598.681
3,False,155,1.157,69,[],[],"[(1079, 870)]",[],[1],[35],[0.5833333333333334],"[640.0, 512.0]",horizontal,"(890.0, 762.0)",[1.65],[0.54],1,2602.452
3,False,156,0.932,55,[],[],"[(1099, 882)]",[],[1],[37],[0.6166666666666667],"[640.0, 512.0]",horizontal,"(390.0, 262.0)",[1.3833333333333333],[0.572],1,2607.887
3,False,157,0.708,42,[],[],"[(1093, 859)]",[],[1],[38],[0.6333333333333333],"[640.0, 512.0]",horizontal,"(390.0, 762.0)",[1.1333333333333333],[0.588],1,2613.72
3,False,158,0.615,36,[],[],"[(1117, 893)]",[],[1],[35],[0.5833333333333334],"[640.0, 512.0]",vertical,"(890.0, 262.0)",[1.1833333333333333],[0.541],1,2618.271
3,False,159,0.707,42,[],[],"[(1105, 876)]",[],[1],[36],[0.6],"[640.0, 512.0]",vertical,"(890.0, 762.0)",[1.55],[0.558],1,2622.72
3,False,160,0.51,30,[],[],"[(1104, 891)]",[],[1],[35],[0.5833333333333334],"[640.0, 512.0]",horizontal,"(390.0, 262.0)",[1.5666666666666667],[0.539],1,2627.632
3,False,161,0.795,47,[],[],"[(1122, 865)]",[],[1],"[51, 51]","[0.85, 0.85]","[640.0, 512.0]",horizontal,"(890.0, 262.0)",[0.6],"[0.802, 0.802]",0,2632.373
3,False,162,1.193,71,[],[],"[(1080, 875)]",[],[1],[36],[0.6],"[640.0, 512.0]",horizontal,"(390.0, 762.0)",[1.3333333333333333],[0.556],1,2636.869
3,False,163,0.762,45,[],[],"[(1116, 870)]",[],[1],[41],[0.6833333333333333],"[640.0, 512.0]",vertical,"(390.0, 762.0)",[0.6333333333333333],[0.64],1,2641.98
3,False,164,0.785,47,[],[],"[(1051, 889)]",[],[1],[38],[0.6333333333333333],"[640.0, 512.0]",horizontal,"(390.0, 262.0)",[1.0],[0.59],1,2649.153
3,False,165,0.768,46,[],[],"[(1145, 877)]",[],[1],[34],[0.5666666666666667],"[640.0, 512.0]",vertical,"(890.0, 762.0)",[0.9],[0.525],1,2653.554
3,False,166,0.678,40,[],[],"[(1118, 880)]",[],[1],[37],[0.6166666666666667],"[640.0, 512.0]",vertical,"(890.0, 262.0)",[0.5],[0.576],1,2657.769
3,False,167,1.009,60,[],[],"[(1105, 894)]",[],[1],[51],[0.85],"[640.0, 512.0]",vertical,"(890.0, 262.0)",[0.6],[0.808],0,2661.673
3,False,168,0.654,39,[],[],"[(1190, 856)]",[],[1],[45],[0.75],"[640.0, 512.0]",vertical,"(390.0, 762.0)",[1.0166666666666666],[0.704],1,2666.05
3,False,169,0.74,44,[],[],"[(1080, 872)]",[],[1],[43],[0.7166666666666667],"[640.0, 512.0]",horizontal,"(390.0, 762.0)",[1.1166666666666667],[0.675],1,2670.397
3,False,170,0.772,46,[],[],"[(1050, 885)]",[],[1],[43],[0.7166666666666667],"[640.0, 512.0]",horizontal,"(890.0, 262.0)",[0.6666666666666666],[0.676],1,2679.357
3,False,171,0.807,48,[],[],"[(1087, 866)]",[],[1],[30],[0.5],"[640.0, 512.0]",vertical,"(890.0, 262.0)",[0.5166666666666666],[0.457],1,2683.784
3,False,172,0.769,46,[],[],"[(1124, 885)]",[],[1],[37],[0.6166666666666667],"[640.0, 512.0]",horizontal,"(390.0, 762.0)",[1.65],[0.575],1,2687.653
3,False,173,0.897,53,[],[],"[(1108, 886)]",[],[1],[35],[0.5833333333333334],"[640.0, 512.0]",horizontal,"(390.0, 262.0)",[1.2833333333333332],[0.541],1,2694.274
3,False,174,0.977,58,[],[],"[(1118, 877)]",[],[1],[33],[0.55],"[640.0, 512.0]",horizontal,"(390.0, 762.0)",[1.5833333333333333],[0.514],1,2700.103
3,False,175,1.1,66,[],[],"[(1143, 893)]",[],[1],[34],[0.5666666666666667],"[640.0, 512.0]",horizontal,"(890.0, 262.0)",[0.9166666666666666],[0.52],1,2705.253
3,False,176,1.189,71,[],[],"[(1142, 870)]",[],[1],[37],[0.6166666666666667],"[640.0, 512.0]",horizontal,"(390.0, 262.0)",[1.3666666666666667],[0.577],1,2709.79
3,False,177,0.76,45,[],[],"[(1105, 861)]",[],[1],[37],[0.6166666666666667],"[640.0, 512.0]",vertical,"(890.0, 762.0)",[1.0833333333333333],[0.574],1,2735.553
3,False,178,0.733,43,[],[],"[(1126, 871)]",[],[1],[42],[0.7],"[640.0, 512.0]",vertical,"(890.0, 762.0)",[0.6666666666666666],[0.664],1,2740.061
3,False,179,0.926,55,[],[],"[(1095, 862)]",[],[1],[35],[0.5833333333333334],"[640.0, 512.0]",vertical,"(890.0, 762.0)",[1.1666666666666667],[0.543],1,2744.093
3,False,180,0.877,52,[],[],"[(1118, 870)]",[],[1],[41],[0.6833333333333333],"[640.0, 512.0]",horizontal,"(390.0, 762.0)",[1.6833333333333333],[0.639],1,2748.847
4,False,181,0.933,55,[],[],"[(1105, 870)]",[],[1],[39],[0.65],"[640.0, 512.0]",vertical,"(890.0, 762.0)",[1.25],[0.618],1,2754.024
4,False,182,1.125,67,[],[],"[(1081, 871)]",[],[1],[37],[0.6166666666666667],"[640.0, 512.0]",vertical,"(890.0, 762.0)",[0.6666666666666666],[0.577],1,2758.94
4,False,183,0.577,34,[],[],"[(1078, 873)]",[],[1],[33],[0.55],"[640.0, 512.0]",vertical,"(390.0, 762.0)",[1.55],[0.507],1,2763.306
4,False,184,1.018,61,[],[],"[(1108, 884)]",[],[1],[37],[0.6166666666666667],"[640.0, 512.0]",vertical,"(390.0, 762.0)",[1.6166666666666667],[0.579],1,2767.836
4,False,185,1.139,68,[],[],"[(1070, 899)]",[],[1],[36],[0.6],"[640.0, 512.0]",horizontal,"(390.0, 762.0)",[0.9666666666666667],[0.558],1,2773.173
4,False,186,0.611,36,[],[],"[(1138, 894)]",[],[1],[35],[0.5833333333333334],"[640.0, 512.0]",vertical,"(390.0, 262.0)",[1.1666666666666667],[0.541],1,2782.933
4,False,187,0.63,37,[],[],"[(1074, 890)]",[],[1],[36],[0.6],"[640.0, 512.0]",vertical,"(890.0, 262.0)",[0.8666666666666667],[0.561],1,2787.459
4,False,188,0.558,33,[],[],"[(1117, 889)]",[],[1],[35],[0.5833333333333334],"[640.0, 512.0]",horizontal,"(890.0, 262.0)",[1.0666666666666667],[0.543],1,2791.814
4,False,189,0.651,39,[],[],"[(1099, 885)]",[],[1],[35],[0.5833333333333334],"[640.0, 512.0]",horizontal,"(390.0, 762.0)",[0.5],[0.539],1,2796.055
4,False,190,0.781,46,[],[],"[(1093, 874)]",[],[1],[7],[0.11666666666666667],"[640.0, 512.0]",vertical,"(390.0, 262.0)",[1.1666666666666667],[0.085],1,2799.883
4,False,191,1.034,62,[],[],"[(1117, 866)]",[],[1],[43],[0.7166666666666667],"[640.0, 512.0]",horizontal,"(890.0, 762.0)",[1.4833333333333334],[0.675],1,2803.915
4,False,192,0.608,36,[],[],"[(1113, 878)]",[],[1],[43],[0.7166666666666667],"[640.0, 512.0]",vertical,"(390.0, 762.0)",[1.05],[0.68],1,2809.07
4,False,193,0.657,39,[],[],"[(1115, 876)]",[],[1],[31],[0.5166666666666666],"[640.0, 512.0]",horizontal,"(890.0, 262.0)",[1.25],[0.475],1,2813.346
4,False,194,0.936,56,[],[],"[(1122, 887)]",[],[1],[47],[0.7833333333333333],"[640.0, 512.0]",horizontal,"(390.0, 262.0)",[0.7],[0.743],1,2817.624
4,False,195,1.138,68,[],[],"[(1093, 900)]",[],[1],[39],[0.65],"[640.0, 512.0]",vertical,"(890.0, 762.0)",[1.1666666666666667],[0.602],1,2822.073
4,False,196,0.892,53,[],[],"[(1117, 884)]",[],[1],[35],[0.5833333333333334],"[640.0, 512.0]",vertical,"(890.0, 762.0)",[0.5333333333333333],[0.54],1,2826.991
4,False,197,1.096,65,[],[],"[(1114, 891)]",[],[1],[46],[0.7666666666666666],"[640.0, 512.0]",vertical,"(390.0, 762.0)",[1.0666666666666667],[0.724],1,2831.055
4,False,198,0.893,53,[],[],"[(1101, 858)]",[],[1],[37],[0.6166666666666667],"[640.0, 512.0]",vertical,"(890.0, 262.0)",[0.5666666666666667],[0.576],1,2835.924
4,False,199,0.732,43,[],[],"[(1130, 886)]",[],[1],[35],[0.5833333333333334],"[640.0, 512.0]",horizontal,"(390.0, 762.0)",[0.8],[0.54],1,2839.956
4,False,200,0.928,55,[],[],"[(1093, 875)]",[],[1],[36],[0.6],"[640.0, 512.0]",vertical,"(890.0, 262.0)",[1.1333333333333333],[0.554],1,2844.276
4,False,201,0.598,35,[],[],"[(1084, 880)]",[],[1],[37],[0.6166666666666667],"[640.0, 512.0]",horizontal,"(890.0, 262.0)",[1.2833333333333332],[0.574],1,2848.974
4,False,202,0.889,53,[],[],"[(1087, 899)]",[],[1],[31],[0.5166666666666666],"[640.0, 512.0]",horizontal,"(890.0, 262.0)",[1.0333333333333332],[0.478],1,2854.908
4,False,203,0.772,46,[],[],"[(1116, 863)]",[],[1],[35],[0.5833333333333334],"[640.0, 512.0]",vertical,"(890.0, 762.0)",[0.7333333333333333],[0.544],1,2861.213
4,False,204,0.823,49,[],[],"[(1093, 897)]",[],[1],[37],[0.6166666666666667],"[640.0, 512.0]",horizontal,"(890.0, 762.0)",[1.3333333333333333],[0.571],1,2865.252
4,False,205,0.669,40,[],[],"[(1146, 865)]",[],[1],[36],[0.6],"[640.0, 512.0]",horizontal,"(390.0, 262.0)",[1.5],[0.556],1,2870.134
4,False,206,0.821,49,[],[],"[(1123, 876)]",[],[1],[40],[0.6666666666666666],"[640.0, 512.0]",vertical,"(390.0, 262.0)",[0.7],[0.621],1,2874.902
4,False,207,1.038,62,[],[],"[(1120, 879)]",[],[1],[38],[0.6333333333333333],"[640.0, 512.0]",vertical,"(390.0, 262.0)",[0.5166666666666666],[0.595],1,2879.237
4,False,208,0.646,38,[],[],"[(1093, 879)]",[],[1],[31],[0.5166666666666666],"[640.0, 512.0]",horizontal,"(890.0, 262.0)",[1.2333333333333334],[0.477],1,2883.407
4,False,209,1.012,60,[],[],"[(1051, 898)]",[],[1],[36],[0.6],"[640.0, 512.0]",horizontal,"(890.0, 262.0)",[0.6],[0.56],1,2887.674
4,False,210,0.974,58,[],[],"[(1144, 866)]",[],[1],[36],[0.6],"[640.0, 512.0]",horizontal,"(890.0, 262.0)",[1.2333333333333334],[0.555],1,2891.745
4,False,211,0.798,47,[],[],"[(1113, 875)]",[],[1],[37],[0.6166666666666667],"[640.0, 512.0]",vertical,"(390.0, 762.0)",[1.6666666666666667],[0.577],1,2921.006
4,False,212,0.907,54,[],[],"[(1110, 860)]",[],[1],[38],[0.6333333333333333],"[640.0, 512.0]",horizontal,"(390.0, 262.0)",[0.55],[0.59],1,2927.756
4,False,213,1.193,71,[],[],"[(1099, 886)]",[],[1],[43],[0.7166666666666667],"[640.0, 512.0]",vertical,"(890.0, 262.0)",[0.6833333333333333],[0.67],1,2931.717
4,False,214,0.702,42,[],[],"[(1153, 870)]",[],[1],[],[],"[640.0, 512.0]",vertical,"(890.0, 262.0)",[],[0],0,2936.182
4,False,215,0.552,33,[],[],"[(1114, 845)]",[],[1],[51],[0.85],"[640.0, 512.0]",horizontal,"(390.0, 262.0)",[1.0833333333333333],[0.8],0,2939.948
4,False,216,1.082,64,[],[],"[(1089, 873)]",[],[1],[37],[0.6166666666666667],"[640.0, 512.0]",horizontal,"(890.0, 762.0)",[1.5],[0.574],1,2944.647
4,False,217,0.682,40,[],[],"[(1152, 875)]",[],[1],[29],[0.48333333333333334],"[640.0, 512.0]",vertical,"(890.0, 262.0)",[1.15],[0.441],1,2956.55
4,False,218,1.025,61,[],[],"[(1099, 880)]",[],[1],[41],[0.6833333333333333],"[640.0, 512.0]",horizontal,"(390.0, 762.0)",[1.2833333333333332],[0.64],1,2960.771
4,False,219,0.935,56,[],[],"[(1104, 861)]",[],[1],[32],[0.5333333333333333],"[640.0, 512.0]",horizontal,"(890.0, 262.0)",[1.1166666666666667],[0.493],1,2965.676
4,False,220,0.624,37,[],[],"[(1133, 860)]",[],[1],[51],[0.85],"[640.0, 512.0]",horizontal,"(390.0, 262.0)",[0.85],[0.802],0,2970.288
4,False,221,1.176,70,[],[],"[(1124, 881)]",[],[1],[36],[0.6],"[640.0, 512.0]",vertical,"(390.0, 262.0)",[1.1833333333333333],[0.556],1,2974.567
4,False,222,0.73,43,[],[],"[(1146, 861)]",[],[1],[36],[0.6],"[640.0, 512.0]",horizontal,"(890.0, 762.0)",[1.65],[0.559],1,2982.138
4,False,223,0.855,51,[],[],"[(1138, 855)]",[],[1],[35],[0.5833333333333334],"[640.0, 512.0]",horizontal,"(390.0, 262.0)",[0.8666666666666667],[0.536],1,2987.021
4,False,224,1.015,60,[],[],"[(1142, 864)]",[],[1],[36],[0.6],"[640.0, 512.0]",vertical,"(390.0, 762.0)",[0.7333333333333333],[0.556],1,2991.603
4,False,225,1.007,60,[],[],"[(1148, 884)]",[],[1],[40],[0.6666666666666666],"[640.0, 512.0]",horizontal,"(390.0, 762.0)",[0.7333333333333333],[0.627],1,2995.792
4,False,226,1.046,62,[],[],"[(1090, 871)]",[],[1],[35],[0.5833333333333334],"[640.0, 512.0]",vertical,"(390.0, 262.0)",[1.15],[0.549],1,3000.192
4,False,227,0.631,37,[],[],"[(1160, 879)]",[],[1],[37],[0.6166666666666667],"[640.0, 512.0]",vertical,"(890.0, 762.0)",[1.4333333333333333],[0.58],1,3005.107
4,False,228,0.519,31,[],[],"[(1117, 875)]",[],[1],[39],[0.65],"[640.0, 512.0]",horizontal,"(890.0, 762.0)",[1.3166666666666667],[0.609],1,3009.796
4,False,229,0.748,44,[],[],"[(1114, 860)]",[],[1],[39],[0.65],"[640.0, 512.0]",vertical,"(890.0, 262.0)",[1.2666666666666666],[0.608],1,3014.26
4,False,230,0.868,52,[],[],"[(1154, 872)]",[],[1],[39],[0.65],"[640.0, 512.0]",horizontal,"(390.0, 262.0)",[0.6666666666666666],[0.605],1,3018.929
4,False,231,0.65,39,[],[],"[(1087, 885)]",[],[1],[47],[0.7833333333333333],"[640.0, 512.0]",horizontal,"(390.0, 262.0)",[1.2833333333333332],[0.737],1,3023.053
4,False,232,1.136,68,[],[],"[(1144, 873)]",[],[1],[35],[0.5833333333333334],"[640.0, 512.0]",horizontal,"(890.0, 262.0)",[0.6],[0.537],1,3028.101
4,False,233,0.862,51,[],[],"[(1109, 889)]",[],[1],[41],[0.6833333333333333],"[640.0, 512.0]",horizontal,"(890.0, 762.0)",[1.5833333333333333],[0.641],1,3032.42
4,False,234,0.523,31,[],[],"[(1110, 868)]",[],[1],[40],[0.6666666666666666],"[640.0, 512.0]",vertical,"(890.0, 762.0)",[1.6333333333333333],[0.624],1,3037.481
4,False,235,1.036,62,[],[],"[(1130, 871)]",[],[1],[36],[0.6],"[640.0, 512.0]",horizontal,"(390.0, 762.0)",[1.6166666666666667],[0.558],1,3042.397
4,False,236,0.704,42,[],[],"[(1111, 864)]",[],[1],[39],[0.65],"[640.0, 512.0]",vertical,"(390.0, 762.0)",[0.5333333333333333],[0.61],1,3047.696
4,False,237,0.932,55,[],[],"[(1105, 871)]",[],[1],[36],[0.6],"[640.0, 512.0]",horizontal,"(390.0, 762.0)",[0.7833333333333333],[0.561],1,3051.76
4,False,238,0.961,57,[],[],"[(1105, 882)]",[],[1],[36],[0.6],"[640.0, 512.0]",vertical,"(390.0, 262.0)",[1.5],[0.561],1,3056.131
4,False,239,0.873,52,[],[],"[(1156, 883)]",[],[1],[37],[0.6166666666666667],"[640.0, 512.0]",vertical,"(390.0, 762.0)",[0.5],[0.573],1,3061.386
4,False,240,0.875,52,[],[],"[(1121, 904)]",[],[1],[35],[0.5833333333333334],"[640.0, 512.0]",horizontal,"(890.0, 762.0)",[1.5],[0.543],1,3065.419
5,False,241,1.192,71,[],[],"[(1117, 880)]",[],[1],[35],[0.5833333333333334],"[640.0, 512.0]",horizontal,"(890.0, 262.0)",[0.95],[0.543],1,3070.515
5,False,242,1.111,66,[],[],"[(1167, 885)]",[],[1],[47],[0.7833333333333333],"[640.0, 512.0]",vertical,"(390.0, 762.0)",[0.8666666666666667],[0.732],1,3075.294
5,False,243,1.164,69,[],[],"[(1120, 875)]",[],[1],[36],[0.6],"[640.0, 512.0]",vertical,"(890.0, 262.0)",[1.0666666666666667],[0.554],1,3080.204
5,False,244,1.173,70,[],[],"[(1105, 885)]",[],[1],[36],[0.6],"[640.0, 512.0]",vertical,"(390.0, 262.0)",[1.2333333333333334],[0.559],1,3085.414
5,False,245,1.178,70,[],[],"[(1086, 854)]",[],[1],[43],[0.7166666666666667],"[640.0, 512.0]",horizontal,"(890.0, 762.0)",[1.35],[0.67],1,3090.525
5,False,246,1.083,64,[],[],"[(1087, 873)]",[],[1],[35],[0.5833333333333334],"[640.0, 512.0]",vertical,"(890.0, 262.0)",[0.9833333333333333],[0.539],1,3095.787
5,False,247,0.51,30,[],[],"[(1098, 883)]",[],[1],[35],[0.5833333333333334],"[640.0, 512.0]",vertical,"(890.0, 262.0)",[0.6166666666666667],[0.545],1,3102.09
5,False,248,1.168,70,[],[],"[(1141, 875)]",[],[1],[36],[0.6],"[640.0, 512.0]",vertical,"(890.0, 262.0)",[1.6666666666666667],[0.554],1,3105.844
5,False,249,0.612,36,[],[],"[(1117, 861)]",[],[1],[48],[0.8],"[640.0, 512.0]",vertical,"(890.0, 762.0)",[1.0],[0.753],1,3111.379
5,False,250,0.721,43,[],[],"[(1099, 884)]",[],[1],[40],[0.6666666666666666],"[640.0, 512.0]",vertical,"(890.0, 262.0)",[1.1666666666666667],[0.625],1,3115.911
5,False,251,1.079,64,[],[],"[(1113, 861)]",[],[1],[49],[0.8166666666666667],"[640.0, 512.0]",horizontal,"(390.0, 262.0)",[1.0],[0.766],1,3120.48
5,False,252,0.872,52,[],[],"[(1119, 872)]",[],[1],[45],[0.75],"[640.0, 512.0]",vertical,"(890.0, 262.0)",[0.8],[0.704],1,3125.273
5,False,253,0.769,46,[],[],"[(1105, 859)]",[],[1],[23],[0.3833333333333333],"[640.0, 512.0]",horizontal,"(390.0, 762.0)",[1.15],[0.346],1,3129.738
5,False,254,0.525,31,[],[],"[(1118, 867)]",[],[1],[37],[0.6166666666666667],"[640.0, 512.0]",vertical,"(390.0, 262.0)",[0.6666666666666666],[0.576],1,3134.047
5,False,255,0.52,31,[],[],"[(1077, 880)]",[],[1],[42],[0.7],"[640.0, 512.0]",horizontal,"(390.0, 762.0)",[1.3333333333333333],[0.654],1,3137.866
5,False,256,0.5,30,[],[],"[(1117, 881)]",[],[1],[26],[0.43333333333333335],"[640.0, 512.0]",vertical,"(390.0, 262.0)",[1.5833333333333333],[0.397],1,3142.596
5,False,257,1.094,65,[],[],"[(1079, 862)]",[],[1],[36],[0.6],"[640.0, 512.0]",horizontal,"(890.0, 762.0)",[0.7166666666666667],[0.56],1,3147.058
5,False,258,0.565,33,[],[],"[(1121, 853)]",[],[1],[38],[0.6333333333333333],"[640.0, 512.0]",vertical,"(890.0, 262.0)",[1.3166666666666667],[0.587],1,3152.064
5,False,259,1.104,66,[],[],"[(1132, 865)]",[],[1],[36],[0.6],"[640.0, 512.0]",horizontal,"(890.0, 762.0)",[0.8833333333333333],[0.555],1,3156.735
5,False,260,1.143,68,[],[],"[(1130, 873)]",[],[1],[36],[0.6],"[640.0, 512.0]",horizontal,"(890.0, 262.0)",[1.45],[0.554],1,3161.215
5,False,261,0.814,48,[],[],"[(1087, 903)]",[],[1],[37],[0.6166666666666667],"[640.0, 512.0]",vertical,"(890.0, 762.0)",[1.6333333333333333],[0.573],1,3166.419
5,False,262,0.65,39,[],[],"[(1111, 872)]",[],[1],[50],[0.8333333333333334],"[640.0, 512.0]",vertical,"(890.0, 762.0)",[1.6333333333333333],[0.786],1,3175.603
5,False,263,0.583,34,[],[],"[(1142, 864)]",[],[1],[42],[0.7],"[640.0, 512.0]",vertical,"(890.0, 762.0)",[0.65],[0.651],1,3180.621
5,False,264,0.72,43,[],[],"[(1103, 894)]",[],[1],[45],[0.75],"[640.0, 512.0]",vertical,"(890.0, 762.0)",[1.2833333333333332],[0.702],1,3184.521
5,False,265,0.762,45,[],[],"[(1118, 855)]",[],[1],[35],[0.5833333333333334],"[640.0, 512.0]",vertical,"(890.0, 762.0)",[0.55],[0.545],1,3189.268
5,False,266,0.563,33,[],[],"[(1140, 885)]",[],[1],[35],[0.5833333333333334],"[640.0, 512.0]",vertical,"(390.0, 262.0)",[1.0666666666666667],[0.544],1,3193.126
5,False,267,0.624,37,[],[],"[(1105, 894)]",[],[1],[39],[0.65],"[640.0, 512.0]",horizontal,"(890.0, 262.0)",[0.8166666666666667],[0.606],1,3197.494
5,False,268,0.811,48,[],[],"[(1130, 862)]",[],[1],[47],[0.7833333333333333],"[640.0, 512.0]",vertical,"(390.0, 762.0)",[1.4833333333333334],[0.738],1,3201.534
5,False,269,0.723,43,[],[],"[(1123, 880)]",[],[1],[41],[0.6833333333333333],"[640.0, 512.0]",vertical,"(890.0, 762.0)",[1.4166666666666667],[0.635],1,3206.61
5,False,270,0.864,51,[],[],"[(1117, 885)]",[],[1],[41],[0.6833333333333333],"[640.0, 512.0]",horizontal,"(890.0, 762.0)",[0.8666666666666667],[0.633],1,3211.379
5,False,271,0.757,45,[],[],"[(1142, 856)]",[],[1],[49],[0.8166666666666667],"[640.0, 512.0]",vertical,"(890.0, 762.0)",[1.6],[0.76],1,3215.797
5,False,272,1.065,63,[],[],"[(1093, 872)]",[],[1],[38],[0.6333333333333333],"[640.0, 512.0]",horizontal,"(390.0, 262.0)",[0.7333333333333333],[0.591],1,3220.991
5,False,273,0.816,48,[],[],"[(1097, 862)]",[],[1],[39],[0.65],"[640.0, 512.0]",horizontal,"(890.0, 262.0)",[1.5333333333333332],[0.607],1,3225.645
5,False,274,0.798,47,[],[],"[(1154, 898)]",[],[1],[32],[0.5333333333333333],"[640.0, 512.0]",horizontal,"(390.0, 762.0)",[1.35],[0.494],1,3230.658
5,False,275,0.891,53,[],[],"[(1089, 863)]",[],[1],[47],[0.7833333333333333],"[640.0, 512.0]",vertical,"(390.0, 262.0)",[0.7666666666666666],[0.734],1,3456.804
5,False,276,0.867,52,[],[],"[(1098, 856)]",[],[1],[45],[0.75],"[640.0, 512.0]",vertical,"(890.0, 262.0)",[0.6166666666666667],[0.699],1,3461.391
5,False,277,1.125,67,[],[],"[(1117, 873)]",[],[1],[37],[0.6166666666666667],"[640.0, 512.0]",vertical,"(390.0, 262.0)",[0.5166666666666666],[0.576],1,3465.654
5,False,278,0.524,31,[],[],"[(1117, 880)]",[],[1],[40],[0.6666666666666666],"[640.0, 512.0]",horizontal,"(390.0, 762.0)",[0.6666666666666666],[0.623],1,3469.908
5,False,279,0.625,37,[],[],"[(1118, 880)]",[],[1],[38],[0.6333333333333333],"[640.0, 512.0]",horizontal,"(390.0, 262.0)",[0.5166666666666666],[0.587],1,3474.117
5,False,280,0.633,37,[],[],"[(1139, 880)]",[],[1],[51],[0.85],"[640.0, 512.0]",vertical,"(390.0, 262.0)",[0.5333333333333333],[0.81],0,3477.971
5,False,281,0.512,30,[],[],"[(1148, 859)]",[],[1],[35],[0.5833333333333334],"[640.0, 512.0]",horizontal,"(390.0, 762.0)",[1.55],[0.541],1,3482.154
5,False,282,0.902,54,[],[],"[(1105, 879)]",[],[1],[29],[0.48333333333333334],"[640.0, 512.0]",horizontal,"(390.0, 762.0)",[0.6666666666666666],[0.443],1,3486.691
5,False,283,0.967,58,[],[],"[(1153, 880)]",[],[1],[37],[0.6166666666666667],"[640.0, 512.0]",horizontal,"(390.0, 262.0)",[1.6833333333333333],[0.575],1,3490.792
5,False,284,0.808,48,[],[],"[(1074, 893)]",[],[1],[],[],"[640.0, 512.0]",vertical,"(390.0, 262.0)",[],[0],0,3496.234
5,False,285,0.999,59,[],[],"[(1146, 851)]",[],[1],[35],[0.5833333333333334],"[640.0, 512.0]",horizontal,"(390.0, 262.0)",[1.2],[0.544],1,3500.346
5,False,286,1.075,64,[],[],"[(1143, 879)]",[],[1],[33],[0.55],"[640.0, 512.0]",horizontal,"(890.0, 262.0)",[1.5333333333333332],[0.515],1,3505.187
5,False,287,0.753,45,[],[],"[(1120, 882)]",[],[1],[35],[0.5833333333333334],"[640.0, 512.0]",horizontal,"(890.0, 762.0)",[0.9666666666666667],[0.542],1,3510.411
5,False,288,1.146,68,[],[],"[(1147, 888)]",[],[1],[39],[0.65],"[640.0, 512.0]",vertical,"(890.0, 262.0)",[1.5666666666666667],[0.609],1,3514.722
5,False,289,0.724,43,[],[],"[(1161, 872)]",[],[1],[34],[0.5666666666666667],"[640.0, 512.0]",vertical,"(890.0, 762.0)",[0.5166666666666666],[0.525],1,3519.977
5,False,290,0.795,47,[],[],"[(1119, 876)]",[],[1],[43],[0.7166666666666667],"[640.0, 512.0]",vertical,"(890.0, 762.0)",[1.4666666666666666],[0.676],1,3523.738
5,False,291,1.043,62,[],[],"[(1146, 875)]",[],[1],[41],[0.6833333333333333],"[640.0, 512.0]",horizontal,"(390.0, 762.0)",[1.2166666666666666],[0.64],1,3528.843
5,False,292,0.623,37,[],[],"[(1093, 885)]",[],[1],[40],[0.6666666666666666],"[640.0, 512.0]",horizontal,"(890.0, 262.0)",[1.6666666666666667],[0.625],1,3533.852
5,False,293,0.806,48,[],[],"[(1136, 889)]",[],[1],[13],[0.21666666666666667],"[640.0, 512.0]",horizontal,"(890.0, 762.0)",[1.1333333333333333],[0.183],1,3538.704
5,False,294,1.126,67,[],[],"[(1117, 894)]",[],[1],[30],[0.5],"[640.0, 512.0]",vertical,"(390.0, 262.0)",[1.55],[0.458],1,3542.833
5,False,295,1.007,60,[],[],"[(1146, 864)]",[],[1],[],[],"[640.0, 512.0]",vertical,"(390.0, 262.0)",[],[0],0,3548.094
5,False,296,1.023,61,[],[],"[(1117, 875)]",[],[1],[39],[0.65],"[640.0, 512.0]",horizontal,"(890.0, 762.0)",[1.3],[0.609],1,3552.493
5,False,297,0.932,55,[],[],"[(1125, 879)]",[],[1],[34],[0.5666666666666667],"[640.0, 512.0]",vertical,"(390.0, 262.0)",[0.5166666666666666],[0.532],1,3557.611
5,False,298,1.197,71,[],[],"[(1119, 875)]",[],[1],[34],[0.5666666666666667],"[640.0, 512.0]",horizontal,"(390.0, 762.0)",[1.55],[0.533],1,3561.523
5,False,299,0.727,43,[],[],"[(1148, 865)]",[],[1],[34],[0.5666666666666667],"[640.0, 512.0]",horizontal,"(390.0, 262.0)",[1.25],[0.524],1,3572.989
5,False,300,0.7,42,[],[],"[(1093, 869)]",[],[1],[38],[0.6333333333333333],"[640.0, 512.0]",vertical,"(390.0, 762.0)",[1.2],[0.598],1,3577.571
6,False,301,0.729,43,[],[],"[(1110, 887)]",[],[1],[36],[0.6],"[640.0, 512.0]",horizontal,"(890.0, 262.0)",[1.4166666666666667],[0.551],1,3582.686
6,False,302,1.191,71,[],[],"[(1144, 890)]",[],[1],[34],[0.5666666666666667],"[640.0, 512.0]",vertical,"(890.0, 262.0)",[1.3333333333333333],[0.523],1,3587.369
6,False,303,0.943,56,[],[],"[(1104, 882)]",[],[1],[39],[0.65],"[640.0, 512.0]",horizontal,"(890.0, 262.0)",[1.3666666666666667],[0.61],1,3592.549
6,False,304,0.566,33,[],[],"[(1120, 889)]",[],[1],[34],[0.5666666666666667],"[640.0, 512.0]",vertical,"(390.0, 262.0)",[1.3833333333333333],[0.533],1,3597.415
6,False,305,0.614,36,[],[],"[(1098, 879)]",[],[1],[40],[0.6666666666666666],"[640.0, 512.0]",vertical,"(390.0, 762.0)",[0.6833333333333333],[0.63],1,3602.056
6,False,306,0.72,43,[],[],"[(1101, 884)]",[],[1],[32],[0.5333333333333333],"[640.0, 512.0]",vertical,"(390.0, 762.0)",[0.5],[0.495],1,3605.984
6,False,307,0.781,46,[],[],"[(1129, 870)]",[],[1],[34],[0.5666666666666667],"[640.0, 512.0]",horizontal,"(390.0, 762.0)",[0.7166666666666667],[0.53],1,3609.97
6,False,308,0.652,39,[],[],"[(1143, 875)]",[],[1],[42],[0.7],"[640.0, 512.0]",vertical,"(890.0, 762.0)",[1.0666666666666667],[0.658],1,3614.9
6,False,309,0.668,40,[],[],"[(1153, 885)]",[],[1],[39],[0.65],"[640.0, 512.0]",vertical,"(890.0, 762.0)",[1.15],[0.618],1,3619.41
6,False,310,0.941,56,[],[],"[(1149, 857)]",[],[1],[35],[0.5833333333333334],"[640.0, 512.0]",horizontal,"(390.0, 262.0)",[1.25],[0.542],1,3623.969
6,False,311,0.529,31,[],[],"[(1138, 884)]",[],[1],[37],[0.6166666666666667],"[640.0, 512.0]",horizontal,"(390.0, 762.0)",[0.95],[0.579],1,3628.656
6,False,312,0.657,39,[],[],"[(1093, 870)]",[],[1],[36],[0.6],"[640.0, 512.0]",vertical,"(390.0, 262.0)",[1.3166666666666667],[0.561],1,3632.801
6,False,313,0.758,45,[],[],"[(1153, 854)]",[],[1],[36],[0.6],"[640.0, 512.0]",vertical,"(390.0, 762.0)",[1.4],[0.558],1,3637.378
6,False,314,0.522,31,[],[],"[(1080, 866)]",[],[1],[35],[0.5833333333333334],"[640.0, 512.0]",horizontal,"(890.0, 262.0)",[1.3],[0.541],1,3642.282
6,False,315,0.614,36,[],[],"[(1125, 868)]",[],[1],[36],[0.6],"[640.0, 512.0]",horizontal,"(390.0, 762.0)",[1.0833333333333333],[0.565],1,3646.786
6,False,316,0.571,34,[],[],"[(1117, 856)]",[],[1],[34],[0.5666666666666667],"[640.0, 512.0]",horizontal,"(390.0, 262.0)",[0.9666666666666667],[0.532],1,3651.134
6,False,317,0.586,35,[],[],"[(1115, 853)]",[],[1],[43],[0.7166666666666667],"[640.0, 512.0]",vertical,"(390.0, 762.0)",[1.6166666666666667],[0.687],1,3655.573
6,False,318,0.668,40,[],[],"[(1096, 894)]",[],[1],[36],[0.6],"[640.0, 512.0]",horizontal,"(890.0, 762.0)",[0.8333333333333334],[0.56],1,3660.578
6,False,319,0.789,47,[],[],"[(1099, 885)]",[],[1],[33],[0.55],"[640.0, 512.0]",vertical,"(890.0, 262.0)",[1.35],[0.507],1,3664.755
6,False,320,0.704,42,[],[],"[(1123, 899)]",[],[1],[35],[0.5833333333333334],"[640.0, 512.0]",horizontal,"(890.0, 262.0)",[0.95],[0.548],1,3669.336
6,False,321,0.511,30,[],[],"[(1105, 881)]",[],[1],[33],[0.55],"[640.0, 512.0]",vertical,"(390.0, 262.0)",[0.9166666666666666],[0.514],1,3673.571
6,False,322,0.551,33,[],[],"[(1124, 860)]",[],[1],[34],[0.5666666666666667],"[640.0, 512.0]",horizontal,"(390.0, 262.0)",[0.9166666666666666],[0.529],1,3677.672
6,False,323,0.79,47,[],[],"[(1078, 876)]",[],[1],[37],[0.6166666666666667],"[640.0, 512.0]",horizontal,"(390.0, 762.0)",[1.55],[0.577],1,3681.808
6,False,324,0.868,52,[],[],"[(1160, 888)]",[],[1],[35],[0.5833333333333334],"[640.0, 512.0]",vertical,"(890.0, 262.0)",[1.1666666666666667],[0.547],1,3686.87
6,False,325,0.951,57,[],[],"[(1116, 880)]",[],[1],[39],[0.65],"[640.0, 512.0]",horizontal,"(890.0, 762.0)",[1.2833333333333332],[0.609],1,3691.429
6,False,326,0.881,52,[],[],"[(1116, 866)]",[],[1],[34],[0.5666666666666667],"[640.0, 512.0]",horizontal,"(890.0, 262.0)",[0.8],[0.529],1,3696.468
6,False,327,0.778,46,[],[],"[(1133, 853)]",[],[1],[37],[0.6166666666666667],"[640.0, 512.0]",vertical,"(890.0, 262.0)",[0.75],[0.584],1,3700.709
6,False,328,0.603,36,[],[],"[(1105, 893)]",[],[1],[42],[0.7],"[640.0, 512.0]",vertical,"(890.0, 762.0)",[0.5666666666666667],[0.655],1,3704.925
6,False,329,0.97,58,[],[],"[(1148, 885)]",[],[1],[31],[0.5166666666666666],"[640.0, 512.0]",horizontal,"(390.0, 262.0)",[1.6833333333333333],[0.477],1,3708.698
6,False,330,0.621,37,[],[],"[(1141, 857)]",[],[1],[34],[0.5666666666666667],"[640.0, 512.0]",vertical,"(390.0, 762.0)",[1.0166666666666666],[0.525],1,3713.807
6,False,331,0.69,41,[],[],"[(1111, 869)]",[],[1],[35],[0.5833333333333334],"[640.0, 512.0]",vertical,"(390.0, 762.0)",[0.6666666666666666],[0.543],1,3718.005
6,False,332,0.63,37,[],[],"[(1153, 898)]",[],[1],[35],[0.5833333333333334],"[640.0, 512.0]",horizontal,"(390.0, 762.0)",[0.65],[0.544],1,3722.085
6,False,333,0.99,59,[],[],"[(1123, 885)]",[],[1],[37],[0.6166666666666667],"[640.0, 512.0]",vertical,"(890.0, 762.0)",[0.5666666666666667],[0.578],1,3726.126
6,False,334,0.723,43,[],[],"[(1160, 856)]",[],[1],[35],[0.5833333333333334],"[640.0, 512.0]",horizontal,"(890.0, 262.0)",[1.15],[0.548],1,3730.419
6,False,335,0.88,52,[],[],"[(1166, 864)]",[],[1],[37],[0.6166666666666667],"[640.0, 512.0]",vertical,"(390.0, 262.0)",[1.4],[0.573],1,3735.023
6,False,336,0.796,47,[],[],"[(1120, 854)]",[],[1],[35],[0.5833333333333334],"[640.0, 512.0]",horizontal,"(890.0, 262.0)",[1.6333333333333333],[0.545],1,3739.926
6,False,337,1.191,71,[],[],"[(1136, 878)]",[],[1],[37],[0.6166666666666667],"[640.0, 512.0]",vertical,"(890.0, 262.0)",[1.1],[0.576],1,3745.175
6,False,338,0.603,36,[],[],"[(1105, 894)]",[],[1],[33],[0.55],"[640.0, 512.0]",horizontal,"(890.0, 262.0)",[1.4333333333333333],[0.511],1,3751.456
6,False,339,0.862,51,[],[],"[(1184, 846)]",[],[1],[38],[0.6333333333333333],"[640.0, 512.0]",horizontal,"(890.0, 262.0)",[0.9166666666666666],[0.595],1,3756.054
6,False,340,0.827,49,[],[],"[(1128, 862)]",[],[1],[34],[0.5666666666666667],"[640.0, 512.0]",horizontal,"(390.0, 762.0)",[1.4333333333333333],[0.529],1,3760.513
6,False,341,0.612,36,[],[],"[(1142, 884)]",[],[1],[36],[0.6],"[640.0, 512.0]",horizontal,"(390.0, 262.0)",[0.8666666666666667],[0.555],1,3765.428
6,False,342,0.656,39,[],[],"[(1094, 855)]",[],[1],[39],[0.65],"[640.0, 512.0]",vertical,"(890.0, 762.0)",[1.2],[0.609],1,3769.772
6,False,343,0.858,51,[],[],"[(1117, 899)]",[],[1],[38],[0.6333333333333333],"[640.0, 512.0]",horizontal,"(890.0, 762.0)",[0.85],[0.59],1,3774.387
6,False,344,0.886,53,[],[],"[(1117, 859)]",[],[1],[34],[0.5666666666666667],"[640.0, 512.0]",vertical,"(390.0, 762.0)",[1.5833333333333333],[0.529],1,3778.816
6,False,345,0.852,51,[],[],"[(1153, 858)]",[],[1],[37],[0.6166666666666667],"[640.0, 512.0]",vertical,"(890.0, 262.0)",[0.8666666666666667],[0.577],1,3783.845
6,False,346,0.51,30,[],[],"[(1081, 851)]",[],[1],[34],[0.5666666666666667],"[640.0, 512.0]",vertical,"(890.0, 262.0)",[1.2333333333333334],[0.533],1,3835.859
6,False,347,1.152,69,[],[],"[(1142, 859)]",[],[1],[34],[0.5666666666666667],"[640.0, 512.0]",horizontal,"(390.0, 762.0)",[1.35],[0.528],1,3840.349
6,False,348,0.718,43,[],[],"[(1146, 861)]",[],[1],[37],[0.6166666666666667],"[640.0, 512.0]",horizontal,"(890.0, 762.0)",[0.5],[0.574],1,3845.443
6,False,349,1.108,66,[],[],"[(1119, 885)]",[],[1],[37],[0.6166666666666667],"[640.0, 512.0]",vertical,"(890.0, 762.0)",[1.5],[0.571],1,3849.274
6,False,350,0.807,48,[],[],"[(1091, 864)]",[],[1],[35],[0.5833333333333334],"[640.0, 512.0]",vertical,"(890.0, 262.0)",[1.4666666666666666],[0.54],1,3854.466
6,False,351,0.721,43,[],[],"[(1117, 865)]",[],[1],[40],[0.6666666666666666],"[640.0, 512.0]",vertical,"(890.0, 762.0)",[1.05],[0.625],1,3859.27
6,False,352,0.984,59,[],[],"[(1105, 860)]",[],[1],[38],[0.6333333333333333],"[640.0, 512.0]",vertical,"(390.0, 762.0)",[0.7166666666666667],[0.592],1,3863.924
6,False,353,0.714,42,[],[],"[(1145, 876)]",[],[1],[30],[0.5],"[640.0, 512.0]",vertical,"(390.0, 262.0)",[0.8166666666666667],[0.462],1,3868.293
6,False,354,0.867,52,[],[],"[(1125, 870)]",[],[1],[43],[0.7166666666666667],"[640.0, 512.0]",vertical,"(890.0, 762.0)",[1.2],[0.669],1,3872.399
6,False,355,0.83,49,[],[],"[(1111, 861)]",[],[1],[37],[0.6166666666666667],"[640.0, 512.0]",horizontal,"(890.0, 762.0)",[1.0833333333333333],[0.575],1,3877.355
6,False,356,0.995,59,[],[],"[(1117, 848)]",[],[1],[41],[0.6833333333333333],"[640.0, 512.0]",vertical,"(390.0, 762.0)",[0.9166666666666666],[0.64],1,3882.057
6,False,357,0.953,57,[],[],"[(1107, 897)]",[],[1],[34],[0.5666666666666667],"[640.0, 512.0]",horizontal,"(890.0, 262.0)",[1.2333333333333334],[0.527],1,3886.66
6,False,358,0.652,39,[],[],"[(1105, 869)]",[],[1],[37],[0.6166666666666667],"[640.0, 512.0]",horizontal,"(890.0, 762.0)",[1.3166666666666667],[0.58],1,3891.556
6,False,359,1.166,69,[],[],"[(1087, 842)]",[],[1],[43],[0.7166666666666667],"[640.0, 512.0]",horizontal,"(390.0, 262.0)",[0.75],[0.67],1,3896.227
6,False,360,1.034,62,[],[],"[(1091, 885)]",[],[1],[46],[0.7666666666666666],"[640.0, 512.0]",vertical,"(390.0, 762.0)",[0.5833333333333334],[0.72],1,3901.141
7,False,361,0.909,54,[],[],"[(1107, 866)]",[],[1],[38],[0.6333333333333333],"[640.0, 512.0]",vertical,"(890.0, 262.0)",[0.8333333333333334],[0.593],1,3905.809
7,False,362,1.193,71,[],[],"[(1139, 864)]",[],[1],[36],[0.6],"[640.0, 512.0]",vertical,"(390.0, 762.0)",[1.35],[0.56],1,3910.342
7,False,363,0.957,57,[],[],"[(1140, 880)]",[],[1],[36],[0.6],"[640.0, 512.0]",vertical,"(890.0, 262.0)",[0.8833333333333333],[0.552],1,3915.61
7,False,364,1.003,60,[],[],"[(1105, 856)]",[],[1],[51],[0.85],"[640.0, 512.0]",vertical,"(390.0, 262.0)",[1.2166666666666666],[0.804],0,3920.043
7,False,365,0.569,34,[],[],"[(1098, 875)]",[],[1],[37],[0.6166666666666667],"[640.0, 512.0]",vertical,"(390.0, 762.0)",[1.3166666666666667],[0.57],1,3925.179
7,False,366,0.737,44,[],[],"[(1148, 864)]",[],[1],[31],[0.5166666666666666],"[640.0, 512.0]",horizontal,"(390.0, 762.0)",[1.3166666666666667],[0.472],1,3930.001
7,False,367,0.692,41,[],[],"[(1096, 884)]",[],[1],[32],[0.5333333333333333],"[640.0, 512.0]",horizontal,"(390.0, 262.0)",[1.1833333333333333],[0.488],1,3934.722
7,False,368,0.936,56,[],[],"[(1154, 856)]",[],[1],[36],[0.6],"[640.0, 512.0]",vertical,"(390.0, 762.0)",[0.9],[0.565],1,3939.258
7,False,369,0.853,51,[],[],"[(1136, 844)]",[],[1],[34],[0.5666666666666667],"[640.0, 512.0]",vertical,"(390.0, 262.0)",[0.95],[0.528],1,3944.376
7,False,370,1.197,71,[],[],"[(1129, 855)]",[],[1],[41],[0.6833333333333333],"[640.0, 512.0]",vertical,"(890.0, 262.0)",[1.2333333333333334],[0.639],1,3948.84
7,False,371,0.793,47,[],[],"[(1108, 855)]",[],[1],[36],[0.6],"[640.0, 512.0]",horizontal,"(890.0, 762.0)",[1.1333333333333333],[0.556],1,3953.85
7,False,372,0.799,47,[],[],"[(1166, 861)]",[],[1],[38],[0.6333333333333333],"[640.0, 512.0]",horizontal,"(890.0, 262.0)",[1.5833333333333333],[0.59],1,3958.619
7,False,373,0.782,46,[],[],"[(1161, 842)]",[],[1],[37],[0.6166666666666667],"[640.0, 512.0]",horizontal,"(390.0, 262.0)",[0.7833333333333333],[0.569],1,3963.733
7,False,374,0.641,38,[],[],"[(1145, 860)]",[],[1],[36],[0.6],"[640.0, 512.0]",vertical,"(890.0, 762.0)",[0.7166666666666667],[0.556],1,3967.905
7,False,375,0.878,52,[],[],"[(1116, 860)]",[],[1],[34],[0.5666666666666667],"[640.0, 512.0]",horizontal,"(390.0, 262.0)",[1.6166666666666667],[0.526],1,3971.818
7,False,376,0.69,41,[],[],"[(1108, 886)]",[],[1],[39],[0.65],"[640.0, 512.0]",horizontal,"(890.0, 262.0)",[1.3666666666666667],[0.61],1,3976.827
7,False,377,0.754,45,[],[],"[(1125, 859)]",[],[1],[35],[0.5833333333333334],"[640.0, 512.0]",vertical,"(890.0, 762.0)",[0.6333333333333333],[0.543],1,3981.541
7,False,378,1.117,67,[],[],"[(1124, 851)]",[],[1],[36],[0.6],"[640.0, 512.0]",vertical,"(890.0, 262.0)",[1.0833333333333333],[0.556],1,3985.493
7,False,379,0.803,48,[],[],"[(1192, 879)]",[],[1],[40],[0.6666666666666666],"[640.0, 512.0]",horizontal,"(390.0, 262.0)",[1.65],[0.622],1,3990.402
7,False,380,0.869,52,[],[],"[(1139, 854)]",[],[1],[39],[0.65],"[640.0, 512.0]",vertical,"(890.0, 762.0)",[0.6833333333333333],[0.604],1,3995.571
7,False,381,1.08,64,[],[],"[(1105, 855)]",[],[1],[35],[0.5833333333333334],"[640.0, 512.0]",horizontal,"(890.0, 762.0)",[0.75],[0.549],1,3999.917
7,False,382,1.064,63,[],[],"[(1128, 866)]",[],[1],[37],[0.6166666666666667],"[640.0, 512.0]",horizontal,"(390.0, 762.0)",[1.5166666666666666],[0.574],1,4005.083
7,False,383,0.886,53,[],[],"[(1121, 860)]",[],[1],[38],[0.6333333333333333],"[640.0, 512.0]",vertical,"(890.0, 262.0)",[1.0666666666666667],[0.586],1,4010.331
7,False,384,0.522,31,[],[],"[(1105, 860)]",[],[1],[31],[0.5166666666666666],"[640.0, 512.0]",vertical,"(390.0, 262.0)",[1.0166666666666666],[0.476],1,4014.847
7,False,385,0.638,38,[],[],"[(1120, 894)]",[],[1],[35],[0.5833333333333334],"[640.0, 512.0]",horizontal,"(890.0, 262.0)",[1.5],[0.537],1,4018.999
7,False,386,1.019,61,[],[],"[(1128, 850)]",[],[1],[39],[0.65],"[640.0, 512.0]",vertical,"(890.0, 262.0)",[0.9833333333333333],[0.602],1,4023.975
7,False,387,0.521,31,[],[],"[(1144, 850)]",[],[1],[37],[0.6166666666666667],"[640.0, 512.0]",horizontal,"(390.0, 762.0)",[0.95],[0.575],1,4028.691
7,False,388,1.141,68,[],[],"[(1123, 869)]",[],[1],[44],[0.7333333333333333],"[640.0, 512.0]",horizontal,"(390.0, 762.0)",[0.7833333333333333],[0.682],1,4032.77
7,False,389,0.784,47,[],[],"[(1107, 870)]",[],[1],[37],[0.6166666666666667],"[640.0, 512.0]",vertical,"(390.0, 762.0)",[1.45],[0.575],1,4037.427
7,False,390,0.759,45,[],[],"[(1110, 857)]",[],[1],[39],[0.65],"[640.0, 512.0]",vertical,"(390.0, 262.0)",[1.4166666666666667],[0.61],1,4042.476
7,False,391,0.596,35,[],[],"[(1098, 860)]",[],[1],[41],[0.6833333333333333],"[640.0, 512.0]",vertical,"(390.0, 762.0)",[1.15],[0.635],1,4047.385
7,False,392,0.562,33,[],[],"[(1099, 860)]",[],[1],[36],[0.6],"[640.0, 512.0]",horizontal,"(390.0, 762.0)",[1.0166666666666666],[0.56],1,4051.938
7,False,393,1.197,71,[],[],"[(1136, 861)]",[],[1],[41],[0.6833333333333333],"[640.0, 512.0]",horizontal,"(890.0, 762.0)",[1.4],[0.64],1,4056.308
7,False,394,1.05,63,[],[],"[(1123, 859)]",[],[1],[39],[0.65],"[640.0, 512.0]",vertical,"(890.0, 262.0)",[0.6666666666666666],[0.611],1,4061.688
7,False,395,0.546,32,[],[],"[(1074, 877)]",[],[1],[43],[0.7166666666666667],"[640.0, 512.0]",vertical,"(390.0, 762.0)",[1.6333333333333333],[0.674],1,4066.218
7,False,396,0.547,32,[],[],"[(1145, 854)]",[],[1],[37],[0.6166666666666667],"[640.0, 512.0]",horizontal,"(390.0, 262.0)",[1.1333333333333333],[0.57],1,4071.395
7,False,397,0.734,44,[],[],"[(1099, 855)]",[],[1],[],[],"[640.0, 512.0]",vertical,"(890.0, 262.0)",[],[0],0,4075.81
7,False,398,0.702,42,[],[],"[(1079, 848)]",[],[1],[33],[0.55],"[640.0, 512.0]",horizontal,"(390.0, 262.0)",[1.5666666666666667],[0.509],1,4079.931
7,False,399,1.064,63,[],[],"[(1093, 857)]",[],[1],[37],[0.6166666666666667],"[640.0, 512.0]",horizontal,"(390.0, 262.0)",[0.8333333333333334],[0.572],1,4166.208
7,False,400,0.64,38,[],[],"[(1170, 875)]",[],[1],[36],[0.6],"[640.0, 512.0]",vertical,"(390.0, 762.0)",[0.5666666666666667],[0.553],1,4170.641
7,False,401,0.73,43,[],[],"[(1072, 882)]",[],[1],[38],[0.6333333333333333],"[640.0, 512.0]",horizontal,"(390.0, 762.0)",[0.5666666666666667],[0.596],1,4174.598
7,False,402,0.746,44,[],[],"[(1161, 883)]",[],[1],[36],[0.6],"[640.0, 512.0]",horizontal,"(890.0, 262.0)",[0.9666666666666667],[0.557],1,4178.808
7,False,403,1.104,66,[],[],"[(1136, 849)]",[],[1],[36],[0.6],"[640.0, 512.0]",horizontal,"(390.0, 262.0)",[1.1666666666666667],[0.555],1,4183.256
7,False,404,0.843,50,[],[],"[(1116, 851)]",[],[1],[34],[0.5666666666666667],"[640.0, 512.0]",vertical,"(390.0, 762.0)",[1.2],[0.522],1,4188.239
7,False,405,0.924,55,[],[],"[(1105, 870)]",[],[1],[40],[0.6666666666666666],"[640.0, 512.0]",vertical,"(390.0, 762.0)",[1.0666666666666667],[0.62],1,4194.506
7,False,406,0.798,47,[],[],"[(1118, 850)]",[],[1],[36],[0.6],"[640.0, 512.0]",horizontal,"(890.0, 762.0)",[0.7166666666666667],[0.56],1,4199.177
7,False,407,0.769,46,[],[],"[(1103, 851)]",[],[1],[36],[0.6],"[640.0, 512.0]",horizontal,"(890.0, 762.0)",[0.85],[0.559],1,4203.455
7,False,408,1.021,61,[],[],"[(1166, 860)]",[],[1],[39],[0.65],"[640.0, 512.0]",horizontal,"(890.0, 262.0)",[0.6166666666666667],[0.614],1,4207.922
7,False,409,1.035,62,[],[],"[(1167, 872)]",[],[1],[39],[0.65],"[640.0, 512.0]",horizontal,"(390.0, 262.0)",[1.5666666666666667],[0.604],1,4212.307
7,False,410,0.953,57,[],[],"[(1105, 870)]",[],[1],[35],[0.5833333333333334],"[640.0, 512.0]",vertical,"(890.0, 762.0)",[0.7666666666666666],[0.538],1,4217.588
7,False,411,1.08,64,[],[],"[(1123, 885)]",[],[1],[38],[0.6333333333333333],"[640.0, 512.0]",horizontal,"(390.0, 762.0)",[0.6],[0.59],1,4221.958
7,False,412,1.102,66,[],[],"[(1113, 878)]",[],[1],[45],[0.75],"[640.0, 512.0]",horizontal,"(390.0, 762.0)",[0.6833333333333333],[0.701],1,4226.254
7,False,413,1.143,68,[],[],"[(1112, 865)]",[],[1],[47],[0.7833333333333333],"[640.0, 512.0]",horizontal,"(890.0, 762.0)",[1.6833333333333333],[0.741],1,4232.272
7,False,414,0.866,51,[],[],"[(1063, 874)]",[],[1],[33],[0.55],"[640.0, 512.0]",vertical,"(390.0, 262.0)",[1.4833333333333334],[0.502],1,4238.127
7,False,415,1.015,60,[],[],"[(1117, 851)]",[],[1],[39],[0.65],"[640.0, 512.0]",horizontal,"(390.0, 762.0)",[0.65],[0.605],1,4243.038
7,False,416,0.987,59,[],[],"[(1123, 870)]",[],[1],[36],[0.6],"[640.0, 512.0]",vertical,"(890.0, 262.0)",[0.95],[0.558],1,4247.539
7,False,417,1.116,66,[],[],"[(1146, 865)]",[],[1],[40],[0.6666666666666666],"[640.0, 512.0]",horizontal,"(890.0, 762.0)",[0.85],[0.622],1,4252.204
7,False,418,0.934,56,[],[],"[(1139, 846)]",[],[1],[38],[0.6333333333333333],"[640.0, 512.0]",vertical,"(890.0, 762.0)",[1.4166666666666667],[0.596],1,4256.976
7,False,419,0.651,39,[],[],"[(1117, 858)]",[],[1],[37],[0.6166666666666667],"[640.0, 512.0]",vertical,"(390.0, 762.0)",[0.5333333333333333],[0.572],1,4262.055
7,False,420,0.516,30,[],[],"[(1156, 850)]",[],[1],[40],[0.6666666666666666],"[640.0, 512.0]",vertical,"(390.0, 762.0)",[1.2],[0.62],1,4266.154
8,False,421,1.059,63,[],[],"[(1104, 846)]",[],[1],[36],[0.6],"[640.0, 512.0]",horizontal,"(390.0, 762.0)",[1.55],[0.56],1,4270.543
8,False,422,1.002,60,[],[],"[(1103, 847)]",[],[1],[],[],"[640.0, 512.0]",vertical,"(390.0, 262.0)",[],[0],0,4446.626
8,False,423,0.833,49,[],[],"[(1105, 865)]",[],[1],[37],[0.6166666666666667],"[640.0, 512.0]",vertical,"(890.0, 762.0)",[1.3166666666666667],[0.578],1,4451.094
8,False,424,0.756,45,[],[],"[(1153, 838)]",[],[1],[42],[0.7],"[640.0, 512.0]",horizontal,"(390.0, 262.0)",[0.7333333333333333],[0.655],1,4456.155
8,False,425,1.169,70,[],[],"[(1125, 841)]",[],[1],[51],[0.85],"[640.0, 512.0]",vertical,"(390.0, 762.0)",[1.25],[0.804],0,4460.807
8,False,426,0.96,57,[],[],"[(1142, 875)]",[],[1],[38],[0.6333333333333333],"[640.0, 512.0]",horizontal,"(890.0, 762.0)",[1.2],[0.591],1,4465.98
8,False,427,0.645,38,[],[],"[(1101, 894)]",[],[1],[35],[0.5833333333333334],"[640.0, 512.0]",horizontal,"(890.0, 262.0)",[1.1833333333333333],[0.535],1,4472.082
8,False,428,1.174,70,[],[],"[(1117, 858)]",[],[1],[46],[0.7666666666666666],"[640.0, 512.0]",vertical,"(390.0, 762.0)",[1.5166666666666666],[0.717],1,4476.556
8,False,429,0.867,52,[],[],"[(1142, 847)]",[],[1],[41],[0.6833333333333333],"[640.0, 512.0]",vertical,"(890.0, 762.0)",[0.55],[0.631],1,4482.745
8,False,430,1.091,65,[],[],"[(1159, 861)]",[],[1],[41],[0.6833333333333333],"[640.0, 512.0]",horizontal,"(890.0, 262.0)",[0.85],[0.64],1,4487.46
8,False,431,0.673,40,[],[],"[(1144, 850)]",[],[1],[36],[0.6],"[640.0, 512.0]",horizontal,"(390.0, 762.0)",[0.85],[0.554],1,4495.381
8,False,432,0.839,50,[],[],"[(1082, 873)]",[],[1],[38],[0.6333333333333333],"[640.0, 512.0]",horizontal,"(890.0, 762.0)",[0.6833333333333333],[0.59],1,4508.914
8,False,433,0.958,57,[],[],"[(1117, 889)]",[],[1],[51],[0.85],"[640.0, 512.0]",vertical,"(390.0, 762.0)",[0.9],[0.809],0,4513.275
8,False,434,0.902,54,[],[],"[(1162, 842)]",[],[1],[37],[0.6166666666666667],"[640.0, 512.0]",horizontal,"(890.0, 262.0)",[1.2333333333333334],[0.582],1,4518.123
8,False,435,0.691,41,[],[],"[(1136, 855)]",[],[1],[43],[0.7166666666666667],"[640.0, 512.0]",horizontal,"(390.0, 762.0)",[0.6333333333333333],[0.681],1,4522.841
8,False,436,0.803,48,[],[],"[(1083, 860)]",[],[1],[39],[0.65],"[640.0, 512.0]",vertical,"(390.0, 762.0)",[0.7166666666666667],[0.613],1,4526.989
8,False,437,0.966,57,[],[],"[(1117, 876)]",[],[1],[41],[0.6833333333333333],"[640.0, 512.0]",horizontal,"(890.0, 762.0)",[1.25],[0.637],1,4531.261
8,False,438,0.789,47,[],[],"[(1123, 869)]",[],[1],[35],[0.5833333333333334],"[640.0, 512.0]",horizontal,"(890.0, 262.0)",[1.1833333333333333],[0.544],1,4536.307
8,False,439,0.826,49,[],[],"[(1123, 854)]",[],[1],[35],[0.5833333333333334],"[640.0, 512.0]",horizontal,"(890.0, 262.0)",[1.65],[0.543],1,4541.108
8,False,440,0.667,40,[],[],"[(1063, 837)]",[],[1],[38],[0.6333333333333333],"[640.0, 512.0]",horizontal,"(890.0, 762.0)",[0.6166666666666667],[0.601],1,4546.273
8,False,441,0.537,32,[],[],"[(478, 607), (1172, 881)]",[],"[0, 1]",[35],[0.5833333333333334],"[640.0, 512.0]",vertical,"(390.0, 762.0)",[0.75],[0.543],1,4551.956
8,False,442,0.554,33,[],[],"[(1080, 878)]",[],[1],[34],[0.5666666666666667],"[640.0, 512.0]",horizontal,"(890.0, 762.0)",[1.2],[0.518],1,4604.15
8,False,443,1.101,66,[],[],"[(1123, 856)]",[],[1],[35],[0.5833333333333334],"[640.0, 512.0]",horizontal,"(890.0, 762.0)",[0.9166666666666666],[0.542],1,4609.174
8,False,444,0.97,58,[],[],"[(1119, 875)]",[],[1],[37],[0.6166666666666667],"[640.0, 512.0]",horizontal,"(390.0, 762.0)",[0.8333333333333334],[0.572],1,4614.029
8,False,445,1.123,67,[],[],"[(1117, 865)]",[],[1],[34],[0.5666666666666667],"[640.0, 512.0]",horizontal,"(890.0, 262.0)",[1.6333333333333333],[0.533],1,4618.439
8,False,446,1.123,67,[],[],"[(1140, 855)]",[],[1],[36],[0.6],"[640.0, 512.0]",vertical,"(890.0, 762.0)",[0.7833333333333333],[0.557],1,4625.844
8,False,447,0.52,31,[],[],"[(1136, 867)]",[],[1],[38],[0.6333333333333333],"[640.0, 512.0]",vertical,"(890.0, 762.0)",[0.7333333333333333],[0.591],1,4630.479
8,False,448,0.836,50,[],[],"[(1142, 859)]",[],[1],[40],[0.6666666666666666],"[640.0, 512.0]",vertical,"(390.0, 762.0)",[0.5333333333333333],[0.618],1,4634.661
8,False,449,0.669,40,[],[],"[(1180, 854)]",[],[1],[41],[0.6833333333333333],"[640.0, 512.0]",horizontal,"(390.0, 762.0)",[0.9],[0.632],1,4638.953
8,False,450,0.613,36,[],[],"[(1112, 851)]",[],[1],[38],[0.6333333333333333],"[640.0, 512.0]",horizontal,"(890.0, 762.0)",[1.2166666666666666],[0.594],1,4643.365
8,False,451,0.941,56,[],[],"[(1192, 837)]",[],[1],[38],[0.6333333333333333],"[640.0, 512.0]",horizontal,"(890.0, 762.0)",[0.6],[0.591],1,4647.929
8,False,452,0.97,58,[],[],"[(1146, 855)]",[],[1],[42],[0.7],"[640.0, 512.0]",horizontal,"(390.0, 762.0)",[0.9333333333333333],[0.654],1,4652.935
8,False,453,0.795,47,[],[],"[(1121, 875)]",[],[1],[47],[0.7833333333333333],"[640.0, 512.0]",horizontal,"(890.0, 262.0)",[1.4333333333333333],[0.738],1,4657.605
8,False,454,0.812,48,[],[],"[(1142, 857)]",[],[1],[35],[0.5833333333333334],"[640.0, 512.0]",vertical,"(390.0, 262.0)",[1.1166666666666667],[0.541],1,4662.668
8,False,455,0.611,36,[],[],"[(1192, 852)]",[],[1],[48],[0.8],"[640.0, 512.0]",horizontal,"(890.0, 262.0)",[0.55],[0.747],1,4668.416
8,False,456,0.928,55,[],[],"[(1112, 843)]",[],[1],[35],[0.5833333333333334],"[640.0, 512.0]",vertical,"(390.0, 262.0)",[1.2833333333333332],[0.538],1,4672.492
8,False,457,0.774,46,[],[],"[(1138, 859)]",[],[1],[36],[0.6],"[640.0, 512.0]",horizontal,"(390.0, 762.0)",[1.6166666666666667],[0.555],1,4677.276
8,False,458,0.977,58,[],[],"[(1142, 853)]",[],[1],[22],[0.36666666666666664],"[640.0, 512.0]",vertical,"(390.0, 262.0)",[1.6333333333333333],[0.325],1,4682.444
8,False,459,0.741,44,[],[],"[(1111, 860)]",[],[1],[40],[0.6666666666666666],"[640.0, 512.0]",vertical,"(390.0, 762.0)",[0.8833333333333333],[0.621],1,4687.561
8,False,460,0.887,53,[],[],"[(1123, 894)]",[],[1],[33],[0.55],"[640.0, 512.0]",vertical,"(890.0, 762.0)",[0.55],[0.519],1,4691.956
8,False,461,0.666,39,[],[],"[(1129, 872)]",[],[1],[37],[0.6166666666666667],"[640.0, 512.0]",horizontal,"(390.0, 262.0)",[0.5833333333333334],[0.576],1,4696.296
8,False,462,1.178,70,[],[],"[(1093, 855)]",[],[1],[37],[0.6166666666666667],"[640.0, 512.0]",vertical,"(390.0, 262.0)",[0.9833333333333333],[0.584],1,4822.408
8,False,463,0.892,53,[],[],"[(1142, 851)]",[],[1],[41],[0.6833333333333333],"[640.0, 512.0]",horizontal,"(890.0, 762.0)",[1.6],[0.641],1,4834.628
8,False,464,0.985,59,[],[],"[(1111, 878)]",[],[1],[32],[0.5333333333333333],"[640.0, 512.0]",horizontal,"(890.0, 262.0)",[1.1833333333333333],[0.497],1,4839.711
8,False,465,1.05,63,[],[],"[(1142, 851)]",[],[1],[32],[0.5333333333333333],"[640.0, 512.0]",vertical,"(390.0, 262.0)",[1.3833333333333333],[0.496],1,4845.458
8,False,466,0.597,35,[],[],"[(1118, 880)]",[],[1],[37],[0.6166666666666667],"[640.0, 512.0]",horizontal,"(890.0, 762.0)",[1.2333333333333334],[0.574],1,4850.385
8,False,467,1.09,65,[],[],"[(1153, 861)]",[],[1],[37],[0.6166666666666667],"[640.0, 512.0]",horizontal,"(890.0, 262.0)",[0.5],[0.573],1,4854.813
8,False,468,0.668,40,[],[],"[(1151, 872)]",[],[1],[36],[0.6],"[640.0, 512.0]",horizontal,"(390.0, 262.0)",[1.3833333333333333],[0.555],1,4859.028
8,False,469,0.862,51,[],[],"[(1176, 840)]",[],[1],[48],[0.8],"[640.0, 512.0]",vertical,"(390.0, 262.0)",[1.5],[0.747],1,4863.723
8,False,470,0.71,42,[],[],"[(1142, 865)]",[],[1],[35],[0.5833333333333334],"[640.0, 512.0]",horizontal,"(890.0, 262.0)",[0.6833333333333333],[0.544],1,4868.88
8,False,471,0.716,42,[],[],"[(1132, 851)]",[],[1],[44],[0.7333333333333333],"[640.0, 512.0]",vertical,"(890.0, 262.0)",[0.5833333333333334],[0.688],1,4872.807
8,False,472,0.982,58,[],[],"[(1111, 848)]",[],[1],[36],[0.6],"[640.0, 512.0]",horizontal,"(390.0, 262.0)",[1.6],[0.557],1,4876.845
8,False,473,1.192,71,[],[],"[(1148, 870)]",[],[1],[42],[0.7],"[640.0, 512.0]",horizontal,"(390.0, 262.0)",[0.6166666666666667],[0.657],1,4882.121
8,False,474,0.785,47,[],[],"[(1173, 872)]",[],[1],[35],[0.5833333333333334],"[640.0, 512.0]",horizontal,"(390.0, 762.0)",[0.7333333333333333],[0.545],1,4886.639
8,False,475,0.8,48,[],[],"[(1113, 847)]",[],[1],[35],[0.5833333333333334],"[640.0, 512.0]",vertical,"(390.0, 762.0)",[1.05],[0.542],1,4890.829
8,False,476,1.066,63,[],[],"[(1147, 851)]",[],[1],[43],[0.7166666666666667],"[640.0, 512.0]",vertical,"(890.0, 762.0)",[1.2666666666666666],[0.673],1,4895.394
8,False,477,0.522,31,[],[],"[(1090, 870)]",[],[1],[39],[0.65],"[640.0, 512.0]",horizontal,"(890.0, 762.0)",[1.5166666666666666],[0.612],1,4900.44
8,False,478,1.028,61,[],[],"[(1160, 859)]",[],[1],[45],[0.75],"[640.0, 512.0]",horizontal,"(890.0, 262.0)",[0.75],[0.705],1,4905.257
8,False,479,0.94,56,[],[],"[(1115, 861)]",[],[1],[38],[0.6333333333333333],"[640.0, 512.0]",horizontal,"(890.0, 262.0)",[0.5],[0.588],1,4910.152
8,False,480,0.999,59,[],[],"[(1063, 851)]",[],[1],[35],[0.5833333333333334],"[640.0, 512.0]",vertical,"(390.0, 262.0)",[1.2666666666666666],[0.541],1,4914.629
9,False,481,0.503,30,[],[],"[(1123, 851)]",[],[1],[36],[0.6],"[640.0, 512.0]",vertical,"(890.0, 262.0)",[0.7333333333333333],[0.558],1,4920.332
9,False,482,1.004,60,[],[],"[(1164, 871)]",[],[1],[36],[0.6],"[640.0, 512.0]",horizontal,"(890.0, 762.0)",[0.8833333333333333],[0.564],1,4924.336
9,False,483,1.153,69,[],[],"[(1196, 860)]",[],[1],[34],[0.5666666666666667],"[640.0, 512.0]",vertical,"(890.0, 762.0)",[1.0166666666666666],[0.526],1,4928.792
9,False,484,0.756,45,[],[],"[(1146, 858)]",[],[1],[37],[0.6166666666666667],"[640.0, 512.0]",vertical,"(390.0, 262.0)",[1.1],[0.573],1,4933.762
9,False,485,0.669,40,[],[],"[(1148, 877)]",[],[1],[41],[0.6833333333333333],"[640.0, 512.0]",vertical,"(390.0, 262.0)",[0.6],[0.636],1,4938.313
9,False,486,0.879,52,[],[],"[(1117, 859)]",[],[1],[39],[0.65],"[640.0, 512.0]",horizontal,"(890.0, 762.0)",[1.25],[0.61],1,4942.221
9,False,487,0.511,30,[],[],"[(1114, 857)]",[],[1],[40],[0.6666666666666666],"[640.0, 512.0]",horizontal,"(390.0, 262.0)",[1.45],[0.624],1,4947.407
9,False,488,0.783,46,[],[],"[(1136, 856)]",[],[1],[44],[0.7333333333333333],"[640.0, 512.0]",vertical,"(890.0, 262.0)",[1.0166666666666666],[0.688],1,4952.265
9,False,489,0.812,48,[],[],"[(1099, 866)]",[],[1],[34],[0.5666666666666667],"[640.0, 512.0]",horizontal,"(890.0, 262.0)",[0.75],[0.525],1,4956.887
9,False,490,1.022,61,[],[],"[(1142, 863)]",[],[1],[51],[0.85],"[640.0, 512.0]",vertical,"(890.0, 762.0)",[0.65],[0.804],0,4961.175
9,False,491,1.035,62,[],[],"[(1157, 841)]",[],[1],[48],[0.8],"[640.0, 512.0]",horizontal,"(390.0, 262.0)",[1.0],[0.759],1,4965.904
9,False,492,0.639,38,[],[],"[(1123, 884)]",[],[1],[37],[0.6166666666666667],"[640.0, 512.0]",vertical,"(390.0, 762.0)",[1.2666666666666666],[0.576],1,4975.339
9,False,493,1.164,69,[],[],"[(1136, 887)]",[],[1],[36],[0.6],"[640.0, 512.0]",horizontal,"(890.0, 762.0)",[0.5],[0.561],1,4980.556
9,False,494,0.882,52,[],[],"[(1141, 877)]",[],[1],[41],[0.6833333333333333],"[640.0, 512.0]",horizontal,"(890.0, 762.0)",[1.0166666666666666],[0.633],1,4984.844
9,False,495,0.58,34,[],[],"[(1158, 858)]",[],[1],[43],[0.7166666666666667],"[640.0, 512.0]",horizontal,"(890.0, 262.0)",[1.2833333333333332],[0.671],1,4989.527
9,False,496,0.518,31,[],[],"[(1119, 880)]",[],[1],[45],[0.75],"[640.0, 512.0]",horizontal,"(890.0, 762.0)",[0.7333333333333333],[0.712],1,4994.284
9,False,497,0.775,46,[],[],"[(1142, 842)]",[],[1],[48],[0.8],"[640.0, 512.0]",vertical,"(390.0, 262.0)",[1.35],[0.758],1,4998.303
9,False,498,1.159,69,[],[],"[(1133, 857)]",[],[1],[51],[0.85],"[640.0, 512.0]",horizontal,"(390.0, 262.0)",[0.5166666666666666],[0.804],0,5003.283
9,False,499,0.919,55,[],[],"[(1113, 887)]",[],[1],[37],[0.6166666666666667],"[640.0, 512.0]",vertical,"(390.0, 762.0)",[1.2333333333333334],[0.575],1,5007.785
9,False,500,1.114,66,[],[],"[(1142, 860)]",[],[1],[46],[0.7666666666666666],"[640.0, 512.0]",horizontal,"(890.0, 762.0)",[1.5],[0.718],1,5012.811
9,False,501,0.913,54,[],[],"[(1145, 848)]",[],[1],[34],[0.5666666666666667],"[640.0, 512.0]",horizontal,"(890.0, 262.0)",[0.8833333333333333],[0.523],1,5018.321
9,False,502,1.2,72,[],[],"[(1118, 872)]",[],[1],[36],[0.6],"[640.0, 512.0]",vertical,"(890.0, 762.0)",[1.3666666666666667],[0.56],1,5022.707
9,False,503,1.022,61,[],[],"[(1142, 866)]",[],[1],[37],[0.6166666666666667],"[640.0, 512.0]",horizontal,"(390.0, 762.0)",[0.6333333333333333],[0.572],1,5027.988
9,False,504,0.837,50,[],[],"[(1162, 872)]",[],[1],[],[],"[640.0, 512.0]",vertical,"(390.0, 262.0)",[],[0],0,5032.325
9,False,505,0.518,31,[],[],"[(1142, 870)]",[],[1],[39],[0.65],"[640.0, 512.0]",vertical,"(390.0, 762.0)",[0.8166666666666667],[0.605],1,5036.258
9,False,506,1.015,60,[],[],"[(1183, 854)]",[],[1],[38],[0.6333333333333333],"[640.0, 512.0]",vertical,"(390.0, 262.0)",[1.6333333333333333],[0.588],1,5041.12
9,False,507,1.188,71,[],[],"[(1137, 859)]",[],[1],[39],[0.65],"[640.0, 512.0]",vertical,"(890.0, 262.0)",[1.6333333333333333],[0.606],1,5046.589
9,False,508,0.965,57,[],[],"[(1149, 859)]",[],[1],[35],[0.5833333333333334],"[640.0, 512.0]",vertical,"(890.0, 262.0)",[0.9],[0.543],1,5082.259
9,False,509,0.859,51,[],[],"[(1123, 863)]",[],[1],[36],[0.6],"[640.0, 512.0]",vertical,"(890.0, 762.0)",[1.35],[0.558],1,5086.712
9,False,510,0.594,35,[],[],"[(1123, 885)]",[],[1],[43],[0.7166666666666667],"[640.0, 512.0]",horizontal,"(890.0, 262.0)",[0.6],[0.666],1,5091.426
9,False,511,0.717,43,[],[],"[(1109, 889)]",[],[1],[38],[0.6333333333333333],"[640.0, 512.0]",horizontal,"(390.0, 762.0)",[0.5666666666666667],[0.59],1,5097.526
9,False,512,1.115,66,[],[],"[(1160, 855)]",[],[1],[46],[0.7666666666666666],"[640.0, 512.0]",vertical,"(390.0, 262.0)",[0.8],[0.724],1,5101.693
9,False,513,0.579,34,[],[],"[(1118, 859)]",[],[1],[35],[0.5833333333333334],"[640.0, 512.0]",vertical,"(390.0, 262.0)",[1.6833333333333333],[0.546],1,5106.588
9,False,514,0.728,43,[],[],"[(1166, 875)]",[],[1],[47],[0.7833333333333333],"[640.0, 512.0]",horizontal,"(890.0, 262.0)",[0.95],[0.745],1,5113.596
9,False,515,0.811,48,[],[],"[(1112, 884)]",[],[1],[34],[0.5666666666666667],"[640.0, 512.0]",horizontal,"(390.0, 262.0)",[0.95],[0.528],1,5118.308
9,False,516,0.732,43,[],[],"[(1136, 870)]",[],[1],[38],[0.6333333333333333],"[640.0, 512.0]",vertical,"(390.0, 762.0)",[0.75],[0.593],1,5122.679
9,False,517,0.606,36,[],[],"[(1148, 860)]",[],[1],[36],[0.6],"[640.0, 512.0]",horizontal,"(390.0, 262.0)",[1.5666666666666667],[0.558],1,5127.054
9,False,518,0.987,59,[],[],"[(1123, 851)]",[],[1],[39],[0.65],"[640.0, 512.0]",horizontal,"(390.0, 762.0)",[1.25],[0.605],1,5132.862
9,False,519,0.507,30,[],[],"[(1184, 851)]",[],[1],[39],[0.65],"[640.0, 512.0]",horizontal,"(390.0, 262.0)",[1.4166666666666667],[0.607],1,5138.122
9,False,520,0.931,55,[],[],"[(1122, 890)]",[],[1],[42],[0.7],"[640.0, 512.0]",vertical,"(390.0, 762.0)",[1.3],[0.653],1,5142.681
9,False,521,0.955,57,[],[],"[(1119, 856)]",[],[1],[39],[0.65],"[640.0, 512.0]",horizontal,"(390.0, 762.0)",[0.9666666666666667],[0.606],1,5147.679
9,False,522,0.545,32,[],[],"[(1120, 850)]",[],[1],[42],[0.7],"[640.0, 512.0]",vertical,"(890.0, 262.0)",[0.7833333333333333],[0.651],1,5152.203
9,False,523,1.137,68,[],[],"[(1119, 897)]",[],[1],[16],[0.26666666666666666],"[640.0, 512.0]",horizontal,"(390.0, 262.0)",[1.4333333333333333],[0.23],1,5156.443
9,False,524,0.506,30,[],[],"[(1086, 855)]",[],[1],[34],[0.5666666666666667],"[640.0, 512.0]",horizontal,"(890.0, 762.0)",[0.6],[0.529],1,5161.213
9,False,525,0.85,51,[],[],"[(1142, 856)]",[],[1],[39],[0.65],"[640.0, 512.0]",horizontal,"(890.0, 762.0)",[1.45],[0.605],1,5207.153
9,False,526,1.153,69,[],[],"[(1117, 846)]",[],[1],[3],[0.05],"[640.0, 512.0]",horizontal,"(390.0, 262.0)",[1.5333333333333332],[0.019],1,5212.145
9,False,527,0.642,38,[],[],"[(1094, 859)]",[],[1],[32],[0.5333333333333333],"[640.0, 512.0]",vertical,"(890.0, 762.0)",[0.7333333333333333],[0.496],1,5216.996
9,False,528,1.114,66,[],[],"[(1105, 886)]",[],[1],[38],[0.6333333333333333],"[640.0, 512.0]",horizontal,"(890.0, 262.0)",[1.4666666666666666],[0.594],1,5226.297
9,False,529,0.952,57,[],[],"[(1116, 849)]",[],[1],[35],[0.5833333333333334],"[640.0, 512.0]",horizontal,"(390.0, 262.0)",[1.45],[0.539],1,5231.611
9,False,530,1.088,65,[],[],"[(1136, 843)]",[],[1],[37],[0.6166666666666667],"[640.0, 512.0]",horizontal,"(390.0, 262.0)",[1.55],[0.581],1,5236.508
9,False,531,1.088,65,[],[],"[(1129, 862)]",[],[1],[44],[0.7333333333333333],"[640.0, 512.0]",horizontal,"(390.0, 762.0)",[1.1166666666666667],[0.694],1,5241.776
9,False,532,0.92,55,[],[],"[(1144, 870)]",[],[1],[35],[0.5833333333333334],"[640.0, 512.0]",vertical,"(390.0, 262.0)",[1.55],[0.54],1,5246.777
9,False,533,0.512,30,[],[],"[(1142, 870)]",[],[1],[38],[0.6333333333333333],"[640.0, 512.0]",vertical,"(390.0, 262.0)",[0.5333333333333333],[0.588],1,5251.962
9,False,534,1.118,67,[],[],"[(1123, 864)]",[],[1],[36],[0.6],"[640.0, 512.0]",horizontal,"(890.0, 762.0)",[1.05],[0.561],1,5255.807
9,False,535,0.843,50,[],[],"[(1125, 871)]",[],[1],[48],[0.8],"[640.0, 512.0]",horizontal,"(890.0, 762.0)",[1.2166666666666666],[0.758],1,5260.67
9,False,536,0.802,48,[],[],"[(1137, 846)]",[],[1],[42],[0.7],"[640.0, 512.0]",vertical,"(890.0, 762.0)",[0.8],[0.654],1,5265.503
9,False,537,0.641,38,[],[],"[(1113, 855)]",[],[1],[36],[0.6],"[640.0, 512.0]",vertical,"(390.0, 762.0)",[1.45],[0.56],1,5269.78
9,False,538,1.113,66,[],[],"[(1111, 842)]",[],[1],[37],[0.6166666666666667],"[640.0, 512.0]",horizontal,"(890.0, 762.0)",[1.1333333333333333],[0.571],1,5274.659
9,False,539,0.976,58,[],[],"[(1080, 869)]",[],[1],[34],[0.5666666666666667],"[640.0, 512.0]",vertical,"(390.0, 262.0)",[0.8833333333333333],[0.521],1,5279.519
9,False,540,1.062,63,[],[],"[(1161, 846)]",[],[1],[34],[0.5666666666666667],"[640.0, 512.0]",vertical,"(390.0, 262.0)",[1.15],[0.531],1,5284.229
10,False,541,1.183,70,[],[],"[(1153, 839)]",[],[1],[34],[0.5666666666666667],"[640.0, 512.0]",vertical,"(390.0, 262.0)",[1.2833333333333332],[0.529],1,5289.114
10,False,542,1.066,63,[],[],"[(1148, 862)]",[],[1],[34],[0.5666666666666667],"[640.0, 512.0]",horizontal,"(390.0, 762.0)",[1.1666666666666667],[0.528],1,5294.298
10,False,543,0.553,33,[],[],"[(1166, 869)]",[],[1],[36],[0.6],"[640.0, 512.0]",vertical,"(890.0, 762.0)",[0.7333333333333333],[0.564],1,5299.265
10,False,544,1.164,69,[],[],"[(1122, 846)]",[],[1],[37],[0.6166666666666667],"[640.0, 512.0]",vertical,"(390.0, 262.0)",[0.95],[0.576],1,5303.438
10,False,545,0.849,50,[],[],"[(1117, 860)]",[],[1],[36],[0.6],"[640.0, 512.0]",vertical,"(390.0, 262.0)",[1.5833333333333333],[0.559],1,5308.446
10,False,546,0.931,55,[],[],"[(1137, 851)]",[],[1],[35],[0.5833333333333334],"[640.0, 512.0]",horizontal,"(390.0, 262.0)",[0.75],[0.538],1,5313.541
10,False,547,0.521,31,[],[],"[(1136, 853)]",[],[1],[34],[0.5666666666666667],"[640.0, 512.0]",vertical,"(390.0, 262.0)",[1.1],[0.521],1,5318.22
10,False,548,0.655,39,[],[],"[(1168, 889)]",[],[1],[32],[0.5333333333333333],"[640.0, 512.0]",horizontal,"(390.0, 262.0)",[1.25],[0.497],1,5322.373
10,False,549,1.048,62,[],[],"[(1149, 867)]",[],[1],[36],[0.6],"[640.0, 512.0]",horizontal,"(390.0, 762.0)",[1.45],[0.562],1,5326.875
10,False,550,1.156,69,[],[],"[(1110, 869)]",[],[1],[38],[0.6333333333333333],"[640.0, 512.0]",horizontal,"(890.0, 262.0)",[1.5833333333333333],[0.589],1,5332.051
10,False,551,0.952,57,[],[],"[(1130, 876)]",[],[1],[46],[0.7666666666666666],"[640.0, 512.0]",horizontal,"(390.0, 262.0)",[1.1833333333333333],[0.72],1,5337.489
10,False,552,0.559,33,[],[],"[(1168, 860)]",[],[1],[51],[0.85],"[640.0, 512.0]",horizontal,"(390.0, 262.0)",[1.5166666666666666],[0.798],0,5342.669
10,False,553,0.734,44,[],[],"[(1167, 850)]",[],[1],[38],[0.6333333333333333],"[640.0, 512.0]",horizontal,"(890.0, 762.0)",[1.2666666666666666],[0.59],1,5347.737
10,False,554,0.516,30,[],[],"[(1166, 851)]",[],[1],[38],[0.6333333333333333],"[640.0, 512.0]",vertical,"(390.0, 762.0)",[1.1333333333333333],[0.586],1,5352.697
10,False,555,0.514,30,[],[],"[(1139, 851)]",[],[1],[35],[0.5833333333333334],"[640.0, 512.0]",vertical,"(890.0, 762.0)",[1.2166666666666666],[0.54],1,5357.065
10,False,556,0.622,37,[],[],"[(1129, 854)]",[],[1],[35],[0.5833333333333334],"[640.0, 512.0]",vertical,"(390.0, 262.0)",[0.7],[0.539],1,5361.53
10,False,557,0.937,56,[],[],"[(1123, 851)]",[],[1],[46],[0.7666666666666666],"[640.0, 512.0]",vertical,"(890.0, 262.0)",[1.15],[0.712],1,5365.552
10,False,558,0.76,45,[],[],"[(1146, 846)]",[],[1],[48],[0.8],"[640.0, 512.0]",horizontal,"(390.0, 262.0)",[0.9166666666666666],[0.755],1,5370.498
10,False,559,0.975,58,[],[],"[(1160, 885)]",[],[1],[36],[0.6],"[640.0, 512.0]",vertical,"(890.0, 762.0)",[0.9666666666666667],[0.554],1,5375.017
10,False,560,0.705,42,[],[],"[(1136, 838)]",[],[1],[38],[0.6333333333333333],"[640.0, 512.0]",horizontal,"(890.0, 762.0)",[1.3833333333333333],[0.608],1,5379.66
10,False,561,1.15,69,[],[],"[(1172, 865)]",[],[1],[51],[0.85],"[640.0, 512.0]",horizontal,"(390.0, 262.0)",[0.5],[0.802],0,5384.483
10,False,562,0.871,52,[],[],"[(1117, 861)]",[],[1],[36],[0.6],"[640.0, 512.0]",vertical,"(890.0, 762.0)",[0.75],[0.563],1,5389.215
10,False,563,0.911,54,[],[],"[(1124, 832)]",[],[1],[38],[0.6333333333333333],"[640.0, 512.0]",vertical,"(890.0, 262.0)",[0.9833333333333333],[0.591],1,5394.067
10,False,564,1.045,62,[],[],"[(1118, 832)]",[],[1],[37],[0.6166666666666667],"[640.0, 512.0]",vertical,"(390.0, 762.0)",[0.9166666666666666],[0.572],1,5441.649
10,False,565,0.72,43,[],[],"[(1119, 854)]",[],[1],[42],[0.7],"[640.0, 512.0]",vertical,"(890.0, 762.0)",[1.3666666666666667],[0.656],1,5446.188
10,False,566,0.558,33,[],[],"[(1123, 857)]",[],[1],[46],[0.7666666666666666],"[640.0, 512.0]",vertical,"(890.0, 262.0)",[0.9833333333333333],[0.715],1,5451.122
10,False,567,0.592,35,[],[],"[(1103, 879)]",[],[1],[47],[0.7833333333333333],"[640.0, 512.0]",vertical,"(390.0, 762.0)",[0.6166666666666667],[0.731],1,5455.593
10,False,568,0.822,49,[],[],"[(1088, 842)]",[],[1],[37],[0.6166666666666667],"[640.0, 512.0]",vertical,"(890.0, 262.0)",[0.5833333333333334],[0.572],1,5459.778
10,False,569,0.599,35,[],[],"[(1093, 868)]",[],[1],[46],[0.7666666666666666],"[640.0, 512.0]",vertical,"(390.0, 762.0)",[1.5],[0.721],1,5464.089
10,False,570,0.753,45,[],[],"[(1136, 856)]",[],[1],[45],[0.75],"[640.0, 512.0]",horizontal,"(890.0, 762.0)",[1.15],[0.701],1,5469.726
10,False,571,0.909,54,[],[],"[(1099, 859)]",[],[1],[41],[0.6833333333333333],"[640.0, 512.0]",horizontal,"(890.0, 262.0)",[1.5666666666666667],[0.636],1,5474.863
10,False,572,1.099,65,[],[],"[(1104, 855)]",[],[1],[46],[0.7666666666666666],"[640.0, 512.0]",horizontal,"(390.0, 762.0)",[1.2333333333333334],[0.723],1,5480.072
10,False,573,0.777,46,[],[],"[(1087, 857)]",[],[1],[38],[0.6333333333333333],"[640.0, 512.0]",horizontal,"(890.0, 762.0)",[1.6333333333333333],[0.587],1,5485.19
10,False,574,1.008,60,[],[],"[(1093, 889)]",[],[1],[38],[0.6333333333333333],"[640.0, 512.0]",vertical,"(890.0, 262.0)",[1.2833333333333332],[0.585],1,5493.091
10,False,575,1.126,67,[],[],"[(1122, 870)]",[],[1],[41],[0.6833333333333333],"[640.0, 512.0]",vertical,"(390.0, 762.0)",[0.5666666666666667],[0.644],1,5498.087
10,False,576,0.84,50,[],[],"[(1099, 863)]",[],[1],[35],[0.5833333333333334],"[640.0, 512.0]",horizontal,"(890.0, 262.0)",[1.1666666666666667],[0.543],1,5502.57
10,False,577,0.533,31,[],[],"[(1122, 851)]",[],[1],[51],[0.85],"[640.0, 512.0]",vertical,"(390.0, 762.0)",[1.1333333333333333],[0.803],0,5511.487
10,False,578,0.556,33,[],[],"[(1124, 850)]",[],[1],[36],[0.6],"[640.0, 512.0]",vertical,"(890.0, 262.0)",[1.0666666666666667],[0.559],1,5515.87
10,False,579,0.524,31,[],[],"[(1142, 837)]",[],[1],[43],[0.7166666666666667],"[640.0, 512.0]",vertical,"(390.0, 262.0)",[1.25],[0.674],1,5520.671
10,False,580,0.65,39,[],[],"[(1123, 850)]",[],[1],[39],[0.65],"[640.0, 512.0]",horizontal,"(390.0, 262.0)",[1.5166666666666666],[0.612],1,5525.27
10,False,581,0.557,33,[],[],"[(1141, 860)]",[],[1],[51],[0.85],"[640.0, 512.0]",horizontal,"(890.0, 262.0)",[0.6333333333333333],[0.808],0,5530.15
10,False,582,0.859,51,[],[],"[(1140, 858)]",[],[1],[37],[0.6166666666666667],"[640.0, 512.0]",horizontal,"(890.0, 262.0)",[0.7],[0.577],1,5534.113
10,False,583,0.976,58,[],[],"[(1106, 882)]",[],[1],[36],[0.6],"[640.0, 512.0]",horizontal,"(390.0, 262.0)",[0.65],[0.56],1,5538.297
10,False,584,1.181,70,[],[],"[(1136, 859)]",[],[1],[38],[0.6333333333333333],"[640.0, 512.0]",vertical,"(390.0, 262.0)",[1.2333333333333334],[0.59],1,5542.558
10,False,585,1.129,67,[],[],"[(1156, 872)]",[],[1],[41],[0.6833333333333333],"[640.0, 512.0]",vertical,"(390.0, 762.0)",[1.6666666666666667],[0.638],1,5547.644
10,False,586,0.516,30,[],[],"[(1142, 846)]",[],[1],[36],[0.6],"[640.0, 512.0]",horizontal,"(390.0, 262.0)",[1.2333333333333334],[0.554],1,5553.33
10,False,587,1.0,60,[],[],"[(1119, 880)]",[],[1],[16],[0.26666666666666666],"[640.0, 512.0]",horizontal,"(390.0, 262.0)",[1.35],[0.233],1,5557.693
10,False,588,0.93,55,[],[],"[(1118, 879)]",[],[1],[35],[0.5833333333333334],"[640.0, 512.0]",horizontal,"(390.0, 262.0)",[1.0833333333333333],[0.538],1,5562.39
10,False,589,0.689,41,[],[],"[(1142, 851)]",[],[1],[36],[0.6],"[640.0, 512.0]",horizontal,"(390.0, 762.0)",[0.8],[0.558],1,5568.323
10,False,590,1.085,65,[],[],"[(1111, 858)]",[],[1],[36],[0.6],"[640.0, 512.0]",horizontal,"(890.0, 262.0)",[0.75],[0.557],1,5572.424
10,False,591,0.596,35,[],[],"[(1124, 862)]",[],[1],[34],[0.5666666666666667],"[640.0, 512.0]",vertical,"(390.0, 762.0)",[0.9333333333333333],[0.524],1,5577.051
10,False,592,0.996,59,[],[],"[(1157, 845)]",[],[1],[42],[0.7],"[640.0, 512.0]",horizontal,"(390.0, 262.0)",[1.3833333333333333],[0.655],1,5581.363
10,False,593,0.811,48,[],[],"[(1154, 849)]",[],[1],[41],[0.6833333333333333],"[640.0, 512.0]",vertical,"(890.0, 762.0)",[1.6666666666666667],[0.638],1,5588.742
10,False,594,0.654,39,[],[],"[(1148, 865)]",[],[1],[51],[0.85],"[640.0, 512.0]",horizontal,"(390.0, 262.0)",[1.1333333333333333],[0.802],0,5594.525
10,False,595,1.178,70,[],[],"[(1190, 823)]",[],[1],[35],[0.5833333333333334],"[640.0, 512.0]",horizontal,"(390.0, 262.0)",[0.8166666666666667],[0.544],1,5599.242
10,False,596,0.63,37,[],[],"[(1119, 850)]",[],[1],[37],[0.6166666666666667],"[640.0, 512.0]",horizontal,"(890.0, 762.0)",[1.1166666666666667],[0.575],1,5604.012
10,False,597,1.003,60,[],[],"[(1118, 875)]",[],[1],[40],[0.6666666666666666],"[640.0, 512.0]",vertical,"(890.0, 262.0)",[0.9166666666666666],[0.624],1,5608.441
10,False,598,0.862,51,[],[],"[(1153, 846)]",[],[1],[36],[0.6],"[640.0, 512.0]",horizontal,"(890.0, 262.0)",[1.2333333333333334],[0.558],1,5612.997
10,False,599,0.501,30,[],[],"[(1150, 847)]",[],[1],[35],[0.5833333333333334],"[640.0, 512.0]",vertical,"(390.0, 262.0)",[1.5166666666666666],[0.535],1,5617.797
10,False,600,0.736,44,[],[],"[(1118, 850)]",[],[1],[41],[0.6833333333333333],"[640.0, 512.0]",horizontal,"(390.0, 762.0)",[1.55],[0.635],1,5622.482
11,False,601,0.761,45,[],[],"[(1180, 859)]",[],[1],[10],[0.16666666666666666],"[640.0, 512.0]",vertical,"(890.0, 262.0)",[1.6166666666666667],[0.133],1,5627.631
11,False,602,0.701,42,[],[],"[(1158, 890)]",[],[1],[39],[0.65],"[640.0, 512.0]",horizontal,"(890.0, 262.0)",[1.1333333333333333],[0.605],1,5632.583
11,False,603,0.827,49,[],[],"[(1133, 833)]",[],[1],[36],[0.6],"[640.0, 512.0]",vertical,"(390.0, 762.0)",[0.6166666666666667],[0.566],1,5682.423
11,False,604,0.592,35,[],[],"[(1123, 851)]",[],[1],[35],[0.5833333333333334],"[640.0, 512.0]",horizontal,"(890.0, 262.0)",[0.6166666666666667],[0.539],1,5686.664
11,False,605,0.506,30,[],[],"[(1158, 868)]",[],[1],[34],[0.5666666666666667],"[640.0, 512.0]",vertical,"(890.0, 762.0)",[0.8833333333333333],[0.523],1,5690.527
11,False,606,0.805,48,[],[],"[(1136, 863)]",[],[1],[39],[0.65],"[640.0, 512.0]",vertical,"(890.0, 262.0)",[1.0166666666666666],[0.614],1,5694.549
11,False,607,0.962,57,[],[],"[(1140, 854)]",[],[1],[],[],"[640.0, 512.0]",vertical,"(890.0, 262.0)",[],[0],0,5699.126
11,False,608,1.031,61,[],[],"[(1117, 850)]",[],[1],[33],[0.55],"[640.0, 512.0]",vertical,"(390.0, 262.0)",[0.55],[0.506],1,5703.176
11,False,609,0.802,48,[],[],"[(1140, 859)]",[],[1],[40],[0.6666666666666666],"[640.0, 512.0]",horizontal,"(890.0, 762.0)",[1.15],[0.623],1,5707.747
11,False,610,0.903,54,[],[],"[(1115, 879)]",[],[1],[34],[0.5666666666666667],"[640.0, 512.0]",vertical,"(890.0, 762.0)",[0.5666666666666667],[0.523],1,5712.402
11,False,611,0.717,43,[],[],"[(1178, 849)]",[],[1],[37],[0.6166666666666667],"[640.0, 512.0]",vertical,"(890.0, 762.0)",[1.0],[0.58],1,5716.526
11,False,612,1.179,70,[],[],"[(1148, 875)]",[],[1],[38],[0.6333333333333333],"[640.0, 512.0]",horizontal,"(890.0, 762.0)",[1.2],[0.593],1,5721.036
11,False,613,0.587,35,[],[],"[(1116, 841)]",[],[1],[39],[0.65],"[640.0, 512.0]",horizontal,"(890.0, 262.0)",[1.2666666666666666],[0.606],1,5726.118
11,False,614,0.707,42,[],[],"[(1153, 854)]",[],[1],[35],[0.5833333333333334],"[640.0, 512.0]",vertical,"(890.0, 262.0)",[1.1833333333333333],[0.543],1,5730.828
11,False,615,1.016,60,[],[],"[(1128, 847)]",[],[1],[36],[0.6],"[640.0, 512.0]",vertical,"(890.0, 762.0)",[1.0166666666666666],[0.56],1,5737.957
11,False,616,0.717,43,[],[],"[(1118, 865)]",[],[1],[37],[0.6166666666666667],"[640.0, 512.0]",vertical,"(390.0, 262.0)",[1.65],[0.58],1,5742.842
11,False,617,0.767,46,[],[],"[(1153, 845)]",[],[1],[37],[0.6166666666666667],"[640.0, 512.0]",horizontal,"(890.0, 262.0)",[0.65],[0.571],1,5747.888
11,False,618,0.692,41,[],[],"[(1111, 860)]",[],[1],[36],[0.6],"[640.0, 512.0]",vertical,"(390.0, 762.0)",[0.8],[0.556],1,5752.004
11,False,619,1.199,71,[],[],"[(1117, 844)]",[],[1],[28],[0.4666666666666667],"[640.0, 512.0]",vertical,"(390.0, 262.0)",[1.5333333333333332],[0.433],1,5756.819
11,False,620,0.932,55,[],[],"[(1146, 863)]",[],[1],[37],[0.6166666666666667],"[640.0, 512.0]",horizontal,"(390.0, 262.0)",[0.9],[0.577],1,5762.172
11,False,621,0.666,39,[],[],"[(1142, 864)]",[],[1],[38],[0.6333333333333333],"[640.0, 512.0]",horizontal,"(390.0, 262.0)",[1.2],[0.59],1,5768.42
11,False,622,0.836,50,[],[],"[(1196, 838)]",[],[1],[42],[0.7],"[640.0, 512.0]",horizontal,"(390.0, 262.0)",[1.2],[0.656],1,5773.147
11,False,623,0.533,31,[],[],"[(1170, 865)]",[],[1],[34],[0.5666666666666667],"[640.0, 512.0]",horizontal,"(890.0, 262.0)",[1.1666666666666667],[0.526],1,5777.885
11,False,624,0.572,34,[],[],"[(1178, 866)]",[],[1],[37],[0.6166666666666667],"[640.0, 512.0]",horizontal,"(390.0, 262.0)",[0.6833333333333333],[0.574],1,5782.274
11,False,625,0.562,33,[],[],"[(1118, 853)]",[],[1],[],[],"[640.0, 512.0]",vertical,"(890.0, 262.0)",[],[0],0,5786.292
11,False,626,1.082,64,[],[],"[(1196, 856)]",[],[1],[38],[0.6333333333333333],"[640.0, 512.0]",vertical,"(890.0, 762.0)",[1.5],[0.591],1,5790.342
11,False,627,0.632,37,[],[],"[(1166, 837)]",[],[1],[40],[0.6666666666666666],"[640.0, 512.0]",horizontal,"(890.0, 762.0)",[1.5],[0.627],1,5795.862
11,False,628,0.844,50,[],[],"[(1117, 856)]",[],[1],[31],[0.5166666666666666],"[640.0, 512.0]",horizontal,"(390.0, 762.0)",[0.7166666666666667],[0.487],1,5800.855
11,False,629,1.005,60,[],[],"[(1108, 861)]",[],[1],[39],[0.65],"[640.0, 512.0]",horizontal,"(890.0, 762.0)",[1.5666666666666667],[0.609],1,5805.137
11,False,630,1.14,68,[],[],"[(1112, 880)]",[],[1],[35],[0.5833333333333334],"[640.0, 512.0]",horizontal,"(890.0, 762.0)",[0.6],[0.543],1,5811.756
11,False,631,0.762,45,[],[],"[(1123, 855)]",[],[1],[35],[0.5833333333333334],"[640.0, 512.0]",vertical,"(390.0, 762.0)",[0.85],[0.55],1,5816.133
11,False,632,0.65,39,[],[],"[(1078, 856)]",[],[1],[],[],"[640.0, 512.0]",horizontal,"(390.0, 262.0)",[],[0],0,5820.714
11,False,633,0.681,40,[],[],"[(1158, 885)]",[],[1],[35],[0.5833333333333334],"[640.0, 512.0]",vertical,"(890.0, 762.0)",[0.9166666666666666],[0.54],1,5824.054
11,False,634,0.898,53,[],[],"[(1145, 852)]",[],[1],[35],[0.5833333333333334],"[640.0, 512.0]",horizontal,"(890.0, 762.0)",[0.5666666666666667],[0.54],1,6250.029
11,False,635,1.133,67,[],[],"[(1128, 860)]",[],[1],[35],[0.5833333333333334],"[640.0, 512.0]",vertical,"(890.0, 762.0)",[0.9333333333333333],[0.54],1,6254.299
11,False,636,0.955,57,[],[],"[(1148, 866)]",[],[1],[35],[0.5833333333333334],"[640.0, 512.0]",vertical,"(390.0, 762.0)",[1.2333333333333334],[0.542],1,6258.972
11,False,637,0.911,54,[],[],"[(1153, 879)]",[],[1],[37],[0.6166666666666667],"[640.0, 512.0]",vertical,"(890.0, 262.0)",[1.0666666666666667],[0.569],1,6263.79
11,False,638,0.572,34,[],[],"[(1087, 859)]",[],[1],[50],[0.8333333333333334],"[640.0, 512.0]",horizontal,"(890.0, 762.0)",[1.6166666666666667],[0.786],1,6268.326
11,False,639,0.705,42,[],[],"[(1114, 842)]",[],[1],[36],[0.6],"[640.0, 512.0]",horizontal,"(890.0, 762.0)",[0.5833333333333334],[0.562],1,6273.499
11,False,640,0.846,50,[],[],"[(1145, 850)]",[],[1],[36],[0.6],"[640.0, 512.0]",horizontal,"(890.0, 762.0)",[0.9333333333333333],[0.557],1,6277.515
11,False,641,1.192,71,[],[],"[(1087, 838)]",[],[1],[38],[0.6333333333333333],"[640.0, 512.0]",vertical,"(890.0, 762.0)",[1.4666666666666666],[0.587],1,6352.824
11,False,642,0.862,51,[],[],"[(1069, 877)]",[],[1],[37],[0.6166666666666667],"[640.0, 512.0]",vertical,"(890.0, 262.0)",[1.15],[0.576],1,6358.095
11,False,643,0.617,37,[],[],"[(1087, 856)]",[],[1],[36],[0.6],"[640.0, 512.0]",horizontal,"(890.0, 262.0)",[1.2],[0.557],1,6362.821
11,False,644,0.873,52,[],[],"[(1111, 859)]",[],[1],[38],[0.6333333333333333],"[640.0, 512.0]",vertical,"(890.0, 762.0)",[0.95],[0.589],1,6367.168
11,False,645,0.714,42,[],[],"[(1115, 859)]",[],[1],[39],[0.65],"[640.0, 512.0]",horizontal,"(390.0, 762.0)",[1.4],[0.61],1,6371.655
11,False,646,1.11,66,[],[],"[(1036, 858)]",[],[1],[40],[0.6666666666666666],"[640.0, 512.0]",vertical,"(390.0, 262.0)",[1.4666666666666666],[0.625],1,6376.513
11,False,647,0.817,49,[],[],"[(1119, 862)]",[],[1],[39],[0.65],"[640.0, 512.0]",horizontal,"(890.0, 762.0)",[1.6333333333333333],[0.61],1,6381.832
11,False,648,1.008,60,[],[],"[(1142, 859)]",[],[1],[36],[0.6],"[640.0, 512.0]",horizontal,"(390.0, 262.0)",[1.1],[0.556],1,6387.097
11,False,649,0.825,49,[],[],"[(1112, 875)]",[],[1],[44],[0.7333333333333333],"[640.0, 512.0]",horizontal,"(390.0, 262.0)",[1.5],[0.687],1,6392.528
11,False,650,0.775,46,[],[],"[(1117, 877)]",[],[1],[40],[0.6666666666666666],"[640.0, 512.0]",vertical,"(390.0, 262.0)",[0.55],[0.622],1,6397.729
11,False,651,0.727,43,[],[],"[(1117, 864)]",[],[1],[38],[0.6333333333333333],"[640.0, 512.0]",horizontal,"(390.0, 762.0)",[1.3333333333333333],[0.586],1,6402.962
11,False,652,0.613,36,[],[],"[(1084, 875)]",[],[1],[38],[0.6333333333333333],"[640.0, 512.0]",vertical,"(390.0, 762.0)",[1.1166666666666667],[0.594],1,6407.727
11,False,653,0.544,32,[],[],"[(1119, 870)]",[],[1],[47],[0.7833333333333333],"[640.0, 512.0]",vertical,"(390.0, 262.0)",[0.8],[0.737],1,6412.367
11,False,654,0.574,34,[],[],"[(1111, 901)]",[],[1],[32],[0.5333333333333333],"[640.0, 512.0]",horizontal,"(390.0, 262.0)",[0.9],[0.495],1,6419.558
11,False,655,1.099,65,[],[],"[(1071, 848)]",[],[1],[36],[0.6],"[640.0, 512.0]",vertical,"(890.0, 762.0)",[0.5666666666666667],[0.56],1,6518.263
11,False,656,0.552,33,[],[],"[(1115, 861)]",[],[1],[37],[0.6166666666666667],"[640.0, 512.0]",vertical,"(390.0, 762.0)",[0.9],[0.575],1,6522.57
11,False,657,1.008,60,[],[],"[(1048, 856)]",[],[1],[36],[0.6],"[640.0, 512.0]",vertical,"(890.0, 262.0)",[1.6],[0.557],1,6526.788
11,False,658,1.015,60,[],[],"[(1150, 852)]",[],[1],[38],[0.6333333333333333],"[640.0, 512.0]",horizontal,"(390.0, 762.0)",[1.1833333333333333],[0.596],1,6532.131
11,False,659,0.814,48,[],[],"[(1105, 886)]",[],[1],[35],[0.5833333333333334],"[640.0, 512.0]",vertical,"(390.0, 762.0)",[0.6833333333333333],[0.539],1,6537.002
11,False,660,0.691,41,[],[],"[(1120, 860)]",[],[1],[36],[0.6],"[640.0, 512.0]",horizontal,"(390.0, 262.0)",[1.5666666666666667],[0.558],1,6541.304
12,False,661,0.595,35,[],[],"[(1146, 864)]",[],[1],[39],[0.65],"[640.0, 512.0]",horizontal,"(390.0, 762.0)",[1.0],[0.613],1,6546.184
12,False,662,1.007,60,[],[],"[(1129, 880)]",[],[1],[16],[0.26666666666666666],"[640.0, 512.0]",vertical,"(390.0, 262.0)",[1.3833333333333333],[0.233],1,6550.527
12,False,663,0.802,48,[],[],"[(1089, 872)]",[],[1],[37],[0.6166666666666667],"[640.0, 512.0]",vertical,"(890.0, 262.0)",[1.5166666666666666],[0.571],1,6555.183
12,False,664,0.555,33,[],[],"[(1081, 881)]",[],[1],[41],[0.6833333333333333],"[640.0, 512.0]",horizontal,"(890.0, 262.0)",[0.6166666666666667],[0.643],1,6560.266
