block,trial,trial_type,taps_start_loc_during_fix,taps_end_loc_during_fix,taps_on_lever_during_fix,taps_on_lever_s_during_fix,bar_orientation,target_xy,cti,rt,acc,time,pulses
0,1,target,"[(1058, 896)]",[],[1],[0.4166666666666667],horizontal,"(890.0, 262.0)",1.2166666666666666,0.384,1,0.528,1
0,2,target,"[(1108, 891)]",[],[1],[0.4166666666666667],horizontal,"(890.0, 762.0)",0.5333333333333333,0.378,1,101.425,1
0,3,target,"[(1153, 958), (1158, 964), (1158, 963), (1158, 963), (1158, 963), (1158, 964), (1153, 966), (582, 523), (546, 409), (1153, 978), (1153, 942)]",[],"[0, 0, 0, 0, 0, 0, 0, 0, 0, 0, 1]",[0.85],horizontal,"(390.0, 762.0)",0.9666666666666667,nan,0,107.176,0
0,4,target,"[(591, 620), (1138, 982), (638, 564), (1163, 964), (675, 376), (512, 379), (531, 516), (572, 453), (1119, 966), (506, 442), (566, 684), (1163, 965), (657, 453), (577, 452), (1163, 958), (647, 692), (652, 753), (1142, 953), (597, 970), (697, 731), (711, 759), (1163, 961), (1148, 985), (691, 459), (732, 514), (1153, 971), (1079, 888)]",[],"[0, 0, 0, 0, 0, 0, 0, 0, 0, 0, 0, 0, 0, 0, 0, 0, 0, 0, 0, 0, 0, 0, 0, 0, 0, 0, 1]",[0.48333333333333334],horizontal,"(890.0, 762.0)",0.6333333333333333,0.445,1,165.084,1
0,5,catch,"[(521, 935), (1163, 928)]",[],"[0, 1]",[],horizontal,"(390.0, 262.0)",1.6333333333333333,nan,1,252.766,1
0,6,target,"[(588, 963), (453, 930), (522, 520), (499, 667), (667, 472), (1158, 941)]",[],"[0, 0, 0, 0, 0, 1]",[0.36666666666666664],vertical,"(890.0, 762.0)",1.4,0.332,1,264.541,1
0,7,target,"[(516, 686), (1158, 964), (715, 317), (727, 403), (662, 403), (1163, 958), (677, 486), (517, 636), (572, 442), (389, 928), (586, 722), (693, 461), (1153, 986), (1148, 938)]","[(1150, 967)]","[0, 0, 0, 0, 0, 0, 0, 0, 0, 0, 0, 0, 0, 1]",[0.3833333333333333],vertical,"(390.0, 262.0)",,"('bar', 0.406)",0,283.052,0
0,8,target,"[(745, 425), (1163, 931)]",[],"[0, 1]",[],horizontal,"(890.0, 762.0)",,"('fix', 0.102)",0,319.84,0
0,9,target,"[(447, 521), (1163, 944)]",[],"[0, 1]",[0.25],vertical,"(890.0, 762.0)",1.1333333333333333,0.217,1,328.514,1
0,10,catch,"[(572, 965), (1163, 920)]",[],"[0, 1]",[],horizontal,"(890.0, 762.0)",,"('cti', 1.372),nan",0,334.586,0
0,11,target,"[(487, 820), (527, 432), (672, 465), (1048, 626), (682, 653), (1163, 961), (1163, 948), (1118, 606), (1153, 919)]",[],"[0, 0, 0, 0, 0, 0, 0, 0, 1]",[],vertical,"(390.0, 762.0)",,"('cti', 1.578)",0,351.19,0
0,12,target,"[(382, 616), (1153, 926)]",[],"[0, 1]",[],vertical,"(390.0, 762.0)",,"('fix', 0.083)",0,368.298,0
0,13,catch,"[(1163, 941)]",[],[1],[],vertical,"(890.0, 262.0)",1.55,nan,1,375.841,1
0,14,target,"[(1158, 938)]",[],[1],[],vertical,"(890.0, 762.0)",,"('fix', 0.115)",0,381.941,0
0,15,target,"[(467, 934), (1163, 938)]",[],"[0, 1]",[0.15],horizontal,"(390.0, 262.0)",1.5666666666666667,0.12,0,385.701,0
0,16,target,"[(607, 947), (1158, 902)]",[],"[0, 1]",[],horizontal,"(390.0, 762.0)",,"('fix', 0.084)",0,391.524,0
0,17,target,"[(1055, 581), (1158, 842)]",[],"[0, 1]",[0.5333333333333333],vertical,"(390.0, 762.0)",0.8666666666666667,0.494,1,395.543,1
0,18,target,"[(1163, 975), (1163, 937)]",[],"[0, 1]",[],vertical,"(890.0, 762.0)",,"('fix', 0.15)",0,404.874,0
0,19,target,"[(476, 494), (1163, 934)]",[],"[0, 1]",[0.13333333333333333],vertical,"(390.0, 762.0)",1.45,0.1,0,411.189,0
0,20,target,"[(512, 509), (507, 923), (1032, 987), (597, 579), (586, 949), (1163, 948), (416, 366), (1163, 928)]",[],"[0, 0, 0, 0, 0, 0, 0, 1]",[],vertical,"(390.0, 762.0)",,"('fix', 0.167)",0,432.357,0
0,21,target,"[(692, 542), (712, 835), (567, 659), (1158, 941)]",[],"[0, 0, 0, 1]",[0.6],horizontal,"(390.0, 762.0)",0.8333333333333334,0.563,1,472.208,1
0,22,target,"[(610, 547), (518, 748), (748, 423), (749, 304), (697, 627), (686, 532), (695, 526), (606, 431), (562, 457), (550, 616), (528, 632), (685, 702), (828, 586), (710, 657), (827, 581), (828, 404), (918, 461), (697, 368), (553, 365), (595, 397), (535, 348), (457, 392), (532, 999), (570, 570), (1158, 962), (622, 786), (1153, 953), (517, 945), (466, 496), (496, 556), (613, 598), (541, 359), (1163, 970), (461, 520), (1153, 869)]",[],"[0, 0, 0, 0, 0, 0, 0, 0, 0, 0, 0, 0, 0, 0, 0, 0, 0, 0, 0, 0, 0, 0, 0, 0, 0, 0, 0, 0, 0, 0, 0, 0, 0, 0, 1]",[0.5833333333333334],vertical,"(890.0, 762.0)",1.6,0.542,1,484.604,1
0,23,target,"[(1163, 922)]",[],[1],[0.15],vertical,"(390.0, 762.0)",1.6166666666666667,0.115,0,2442.388,0
0,24,target,"[(511, 503), (1163, 970), (1163, 940)]",[],"[0, 0, 1]",[0.6333333333333333],vertical,"(390.0, 762.0)",0.6,0.587,1,2454.616,1
0,25,target,"[(1153, 941)]",[],[1],[],horizontal,"(390.0, 262.0)",,"('fix', 0.052)",0,2471.092,0
0,26,catch,"[(442, 540), (1163, 946), (501, 514), (1123, 951), (731, 337), (1162, 931)]","[(1162, 931)]","[0, 0, 0, 0, 0, 1]",[0.7],vertical,"(390.0, 762.0)",,"('bar', 0.708),nan",0,2474.415,0
0,27,target,"[(531, 319), (1158, 935)]",[],"[0, 1]",[0.16666666666666666],vertical,"(390.0, 762.0)",1.6833333333333333,0.135,0,2488.505,0
0,28,target,"[(497, 513), (462, 450), (657, 338), (1163, 916)]",[],"[0, 0, 0, 1]",[0.55],vertical,"(390.0, 762.0)",0.85,0.511,1,2495.004,1
0,29,target,"[(1163, 923)]",[],[1],[0.4666666666666667],horizontal,"(890.0, 762.0)",1.5833333333333333,0.43,1,2503.6,1
0,30,target,"[(422, 475), (1163, 951), (1153, 925)]",[],"[0, 0, 1]",[0.5333333333333333],vertical,"(390.0, 262.0)",1.6833333333333333,0.496,1,2511.739,1
0,31,target,"[(411, 431), (1153, 942)]",[],"[0, 1]",[],vertical,"(890.0, 762.0)",,"('fix', 0.148)",0,2523.723,0
0,32,catch,"[(1163, 963), (1163, 957), (1043, 914)]",[],"[0, 0, 1]",[],vertical,"(890.0, 262.0)",,"('cti', 0.375),nan",0,2531.888,0
0,33,target,"[(462, 465), (532, 622), (588, 449), (406, 914), (1093, 969), (1085, 951), (1163, 964), (692, 414), (854, 652), (874, 651), (1158, 943)]",[],"[0, 0, 0, 0, 0, 0, 0, 0, 0, 0, 1]",[],horizontal,"(890.0, 762.0)",,"('fix', 0.248)",0,2548.388,0
0,34,target,"[(397, 686), (371, 642), (300, 626), (301, 662), (385, 718), (1163, 910)]",[],"[0, 0, 0, 0, 0, 1]",[],vertical,"(890.0, 262.0)",,"('fix', 0.277)",0,2559.641,0
0,35,target,"[(645, 479), (1149, 937)]",[],"[0, 1]",[0.5166666666666666],horizontal,"(390.0, 262.0)",0.9166666666666666,0.478,1,2568.725,1
0,36,target,"[(1163, 953), (1153, 969), (666, 464), (1148, 959), (1163, 929)]",[],"[0, 0, 0, 0, 1]",[0.5833333333333334],horizontal,"(390.0, 762.0)",0.8166666666666667,0.541,1,2575.12,1
0,37,target,"[(508, 659), (1163, 940)]",[],"[0, 1]",[],horizontal,"(390.0, 262.0)",,"('fix', 0.167)",0,2608.622,0
0,38,target,"[(588, 316), (515, 553), (1163, 910)]",[],"[0, 0, 1]",[0.36666666666666664],horizontal,"(890.0, 762.0)",1.6666666666666667,0.328,1,2619.292,1
0,39,target,"[(1163, 941)]",[],[1],[0.4],horizontal,"(390.0, 762.0)",1.2833333333333332,0.366,1,2627.607,1
0,40,target,"[(1163, 927)]",[],[1],[0.55],horizontal,"(390.0, 762.0)",0.6166666666666667,0.507,1,2635.291,1
0,41,target,"[(1163, 936)]",[],[1],[0.21666666666666667],vertical,"(390.0, 762.0)",1.6166666666666667,0.181,1,2643.862,2
0,42,target,"[(1148, 938)]","[(1148, 938)]",[1],[0.55],vertical,"(890.0, 762.0)",,"('bar', 0.564)",0,2650.339,0
0,43,target,"[(1163, 948), (1163, 945), (1163, 933)]",[],"[0, 0, 1]",[0.48333333333333334],horizontal,"(390.0, 262.0)",1.6333333333333333,0.441,1,2656.509,1
0,44,target,"[(1153, 932)]",[],[1],[0.23333333333333334],vertical,"(390.0, 762.0)",1.6,0.196,1,2664.714,1
0,45,target,"[(457, 941), (1163, 970), (1163, 901)]",[],"[0, 0, 1]",[0.55],vertical,"(390.0, 262.0)",0.7333333333333333,0.504,1,2673.495,1
0,46,target,"[(498, 686), (416, 470), (1163, 953), (1163, 940)]",[],"[0, 0, 0, 1]",[0.05],horizontal,"(890.0, 762.0)",0.8,0.02,0,2685.589,0
0,47,target,"[(564, 485), (511, 491), (1163, 944)]",[],"[0, 0, 1]",[0.5],vertical,"(390.0, 762.0)",1.0833333333333333,0.46,1,2692.639,1
0,48,target,"[(1158, 909)]",[],[1],[0.5166666666666666],vertical,"(890.0, 262.0)",1.1,0.476,1,2698.656,1
0,49,target,"[(436, 503), (1162, 947), (1163, 976), (1158, 897)]",[],"[0, 0, 0, 1]",[0.55],vertical,"(390.0, 762.0)",1.0333333333333332,0.509,1,2705.172,1
0,50,target,"[(371, 435), (1128, 902)]",[],"[0, 1]",[0.85],vertical,"(390.0, 762.0)",0.7,nan,0,2718.207,0
0,51,target,"[(422, 442), (1158, 944)]",[],"[0, 1]",[],vertical,"(390.0, 762.0)",,"('fix', 0.12)",0,2730.346,0
0,52,target,"[(507, 941), (1158, 958), (1163, 929)]",[],"[0, 0, 1]",[],vertical,"(390.0, 262.0)",,"('cti', 1.25)",0,2733.168,0
0,53,target,"[(1163, 940)]",[],[1],[0.5166666666666666],horizontal,"(390.0, 762.0)",1.0833333333333333,0.475,1,2739.506,1
0,54,catch,"[(1163, 946), (1151, 713), (1129, 938)]",[],"[0, 0, 1]",[],horizontal,"(890.0, 262.0)",1.45,nan,1,2745.402,1
0,55,target,"[(395, 517), (1144, 937)]",[],"[0, 1]",[],vertical,"(890.0, 762.0)",,"('cti', 0.178)",0,2755.474,0
0,56,target,"[(552, 676), (632, 454), (1163, 948), (526, 402), (1163, 842)]",[],"[0, 0, 0, 0, 1]",[],vertical,"(890.0, 262.0)",,"('fix', 0.035)",0,2764.823,0
0,57,target,"[(545, 682), (1142, 949), (1038, 442), (1143, 907)]",[],"[0, 0, 0, 1]",[0.5666666666666667],horizontal,"(890.0, 262.0)",0.6833333333333333,0.526,1,2770.206,1
0,58,target,"[(1163, 970), (1153, 958), (712, 292), (1163, 920)]",[],"[0, 0, 0, 1]",[0.35],vertical,"(890.0, 262.0)",1.5833333333333333,0.315,1,2784.931,1
0,59,target,"[(1163, 945), (1163, 927)]",[],"[0, 1]",[0.48333333333333334],vertical,"(390.0, 762.0)",1.1833333333333333,0.443,1,2800.075,1
0,60,catch,"[(446, 425), (1163, 931)]",[],"[0, 1]",[],horizontal,"(890.0, 762.0)",1.4333333333333333,nan,1,2819.691,2
0,61,target,"[(1148, 926)]",[],[1],[0.85],horizontal,"(890.0, 262.0)",1.0166666666666666,nan,0,2828.557,0
0,62,target,"[(472, 573), (1153, 966), (1163, 963), (696, 430), (1163, 930)]",[],"[0, 0, 0, 0, 1]",[0.18333333333333332],vertical,"(890.0, 762.0)",0.65,0.147,0,2835.131,0
0,63,catch,"[(587, 920), (1163, 961), (470, 520), (537, 936), (643, 415), (1163, 929)]",[],"[0, 0, 0, 0, 0, 1]",[],horizontal,"(890.0, 262.0)",,"('fix', 0.149),nan",0,2844.118,0
0,64,target,"[(1163, 967), (477, 354), (1163, 905)]",[],"[0, 0, 1]",[],horizontal,"(890.0, 762.0)",,"('fix', 0.083)",0,2860.258,0
0,65,target,"[(512, 540), (497, 570), (592, 315), (472, 315), (1148, 871)]",[],"[0, 0, 0, 0, 1]",[],vertical,"(390.0, 262.0)",,"('fix', 0.052)",0,2894.64,0
0,66,catch,"[(507, 486), (558, 514), (1158, 942)]",[],"[0, 0, 1]",[],horizontal,"(390.0, 762.0)",,"('cti', 0.245),nan",0,2899.406,0
0,67,target,"[(1088, 958), (622, 730), (1113, 950), (602, 586), (1088, 975), (1083, 946), (603, 633), (548, 475), (1148, 934)]",[],"[0, 0, 0, 0, 0, 0, 0, 0, 1]",[],vertical,"(890.0, 262.0)",,"('fix', 0.083)",0,2906.531,0
0,68,target,"[(1158, 948), (1162, 900)]",[],"[0, 1]",[],vertical,"(890.0, 262.0)",,"('cti', 0.408)",0,2918.262,0
0,69,target,"[(1163, 958), (1163, 971), (1163, 921)]",[],"[0, 0, 1]",[0.45],horizontal,"(890.0, 762.0)",1.2,0.408,1,3166.458,1
0,70,target,"[(1163, 970), (1158, 948), (1163, 953), (1158, 932)]",[],"[0, 0, 0, 1]",[],vertical,"(390.0, 262.0)",,"('fix', 0.152)",0,3199.731,0
0,71,target,"[(1123, 915)]","[(1123, 915)]",[1],[0.6833333333333333],vertical,"(890.0, 762.0)",,"('bar', 0.692)",0,3209.943,0
0,72,target,"[(1163, 943)]",[],[1],[0.4166666666666667],horizontal,"(390.0, 262.0)",1.4666666666666666,0.377,1,3212.976,1
0,73,target,"[(523, 951), (519, 708), (472, 551), (698, 973), (717, 592), (537, 662), (687, 955), (714, 324), (717, 417), (732, 936), (1163, 945), (1123, 916)]",[],"[0, 0, 0, 0, 0, 0, 0, 0, 0, 0, 0, 1]",[0.31666666666666665],vertical,"(890.0, 262.0)",1.4166666666666667,0.281,1,3298.012,1
0,74,target,"[(504, 825), (692, 933), (1163, 972), (1163, 936)]",[],"[0, 0, 0, 1]",[],horizontal,"(390.0, 262.0)",,"('fix', 0.018)",0,3319.064,0
0,75,target,"[(1137, 939)]",[],[1],[],horizontal,"(390.0, 262.0)",,"('cti', 0.947)",0,3329.509,0
0,76,target,"[(706, 483), (491, 442), (689, 496), (1163, 936)]",[],"[0, 0, 0, 1]",[],horizontal,"(890.0, 762.0)",,"('fix', 0.182)",0,3344.161,0
0,77,target,"[(579, 551), (731, 514), (1163, 928), (1163, 951)]",[],"[0, 0, 1, 0]",[],vertical,"(390.0, 762.0)",,"('fix', 0.732)",0,3357.394,0
0,78,target,"[(597, 650), (1163, 931)]",[],"[0, 1]",[0.5333333333333333],vertical,"(390.0, 762.0)",0.75,0.491,1,3373.425,1
0,79,target,"[(564, 593), (1163, 939)]",[],"[0, 1]",[0.55],vertical,"(890.0, 762.0)",0.5333333333333333,0.52,1,3383.575,1
0,80,target,"[(1143, 903)]","[(1143, 903)]",[1],[0.75],horizontal,"(890.0, 762.0)",,"('bar', 0.756)",0,3391.153,0
0,81,target,"[(438, 520), (1163, 922)]",[],"[0, 1]",[0.43333333333333335],horizontal,"(890.0, 762.0)",1.15,0.395,1,3396.215,1
0,82,target,"[(553, 940), (459, 459), (1163, 921)]",[],"[0, 0, 1]",[0.36666666666666664],vertical,"(390.0, 762.0)",1.3,0.328,1,3404.412,1
0,83,target,"[(1163, 925)]",[],[1],[],horizontal,"(390.0, 762.0)",,"('cti', 1.447)",0,3414.811,0
0,84,target,"[(602, 929), (1163, 933)]",[],"[0, 1]",[0.35],vertical,"(390.0, 262.0)",1.25,0.314,1,3423.395,1
0,85,target,"[(562, 570), (1162, 969), (1041, 693), (1163, 931)]",[],"[0, 0, 0, 1]",[0.3],horizontal,"(890.0, 262.0)",1.6666666666666667,0.266,1,3429.461,1
0,86,target,"[(1153, 941)]",[],[1],[0.3333333333333333],vertical,"(890.0, 762.0)",1.4833333333333334,0.299,1,3439.86,1
0,87,target,"[(1163, 946), (1163, 953), (653, 431), (1163, 938)]",[],"[0, 0, 0, 1]",[],vertical,"(890.0, 262.0)",,"('fix', 0.07)",0,3449.14,0
0,88,target,"[(652, 430), (522, 931), (599, 684), (557, 699), (1163, 926)]",[],"[0, 0, 0, 0, 1]",[0.48333333333333334],horizontal,"(890.0, 762.0)",1.4666666666666666,0.443,1,3455.36,1
0,89,target,"[(1158, 937)]",[],[1],[0.3833333333333333],vertical,"(390.0, 762.0)",1.5833333333333333,0.344,1,3468.441,1
0,90,target,"[(1163, 936)]",[],[1],[],vertical,"(390.0, 762.0)",,"('fix', 0.202)",0,3476.566,0
0,91,target,"[(562, 398), (1163, 914)]",[],"[0, 1]",[],vertical,"(890.0, 262.0)",,"('fix', 0.286)",0,3483.053,0
0,92,target,"[(530, 453), (1163, 946), (1128, 984), (1123, 953), (642, 472), (657, 612), (662, 613), (1163, 931)]",[],"[0, 0, 0, 0, 0, 0, 0, 1]",[],horizontal,"(390.0, 762.0)",,"('fix', 0.099)",0,3485.913,0
0,93,target,"[(1148, 926)]",[],[1],[],vertical,"(890.0, 262.0)",,"('cti', 0.198)",0,3498.612,0
0,94,target,"[(1163, 967), (1163, 931)]",[],"[0, 1]",[],horizontal,"(890.0, 262.0)",,"('fix', 0.148)",0,3502.328,0
0,95,target,"[(1163, 915)]",[],[1],[0.5666666666666667],horizontal,"(390.0, 262.0)",1.3333333333333333,0.524,1,3512.712,1
0,96,target,"[(1148, 933)]",[],[1],[],horizontal,"(390.0, 762.0)",,"('cti', 0.166)",0,3521.444,0
0,97,target,"[(582, 529), (1163, 937)]",[],"[0, 1]",[],vertical,"(390.0, 262.0)",,"('fix', 0.234)",0,3526.312,0
0,98,target,"[(1163, 916)]",[],[1],[],horizontal,"(390.0, 762.0)",,"('fix', 0.232)",0,3529.247,0
0,99,target,"[(1132, 980), (1074, 912)]",[],"[0, 1]",[0.5166666666666666],vertical,"(390.0, 762.0)",0.7833333333333333,0.476,1,3532.222,1
0,100,target,"[(1163, 918)]",[],[1],[0.5],vertical,"(390.0, 262.0)",0.7166666666666667,0.458,1,3540.595,1
0,101,target,"[(462, 496), (1163, 932)]",[],"[0, 1]",[0.6],horizontal,"(890.0, 262.0)",0.5166666666666666,0.557,1,3550.757,1
0,102,target,"[(668, 915), (1163, 943)]",[],"[0, 1]",[0.7166666666666667],horizontal,"(890.0, 762.0)",0.5666666666666667,0.674,1,3558.395,2
0,103,target,"[(1163, 928)]",[],[1],[0.55],horizontal,"(390.0, 262.0)",1.0833333333333333,0.521,1,3564.896,1
0,104,target,"[(422, 473), (1163, 925)]",[],"[0, 1]",[],horizontal,"(890.0, 762.0)",,"('fix', 0.118)",0,3571.713,0
0,105,target,"[(692, 400), (1163, 899)]",[],"[0, 1]",[],horizontal,"(390.0, 762.0)",,"('fix', 0.153)",0,3578.117,0
0,106,target,"[(442, 947), (431, 478), (1163, 936)]",[],"[0, 0, 1]",[],horizontal,"(390.0, 262.0)",,"('fix', 0.244)",0,3580.773,0
0,107,target,"[(1163, 910)]",[],[1],[],vertical,"(890.0, 762.0)",,"('fix', 0.082)",0,3584.81,0
0,108,target,"[(1158, 959), (1163, 908)]",[],"[0, 1]",[],horizontal,"(890.0, 262.0)",,"('fix', 0.226)",0,3587.598,0
0,109,target,"[(822, 932), (1149, 943)]",[],"[0, 1]",[],vertical,"(390.0, 262.0)",,"('fix', 0.066)",0,3593.211,0
0,110,target,"[(477, 909), (1128, 992), (477, 980), (472, 686), (507, 1019), (567, 859), (812, 843), (810, 914), (597, 881), (677, 946), (719, 559), (641, 977), (586, 754), (590, 611), (1163, 951), (1153, 946), (1083, 983), (1163, 923)]","[(1163, 935)]","[0, 0, 0, 0, 0, 0, 0, 0, 0, 0, 0, 0, 0, 0, 0, 0, 0, 1]",[0.08333333333333333],vertical,"(890.0, 262.0)",,"('bar', 0.1)",0,3598.146,0
0,111,target,"[(1163, 940)]",[],[1],[],vertical,"(390.0, 262.0)",,"('cti', 1.152)",0,4501.094,0
0,112,target,"[(507, 537), (1163, 943)]",[],"[0, 1]",[0.43333333333333335],vertical,"(890.0, 762.0)",1.4666666666666666,0.398,1,4524.046,1
0,113,target,"[(1158, 935)]",[],[1],[0.85],horizontal,"(890.0, 762.0)",1.6166666666666667,nan,0,4530.649,0
0,114,target,"[(623, 459), (684, 972), (1158, 940)]",[],"[0, 0, 1]",[0.4666666666666667],vertical,"(390.0, 762.0)",1.4333333333333333,0.433,1,4546.77,1
0,115,target,"[(460, 459), (1158, 897)]",[],"[0, 1]",[0.35],horizontal,"(390.0, 262.0)",1.7,0.311,1,4557.161,1
0,116,target,"[(498, 551), (1163, 960), (401, 450), (1163, 935)]",[],"[0, 0, 0, 1]",[],horizontal,"(390.0, 762.0)",,"('cti', 0.311)",0,4575.468,0
0,117,target,"[(520, 632), (527, 542), (1148, 942)]",[],"[0, 0, 1]",[0.45],horizontal,"(890.0, 262.0)",1.4,0.416,1,4582.953,1
0,118,target,"[(612, 607), (457, 486), (1163, 954), (432, 387), (1163, 931)]",[],"[0, 0, 0, 0, 1]",[],vertical,"(390.0, 762.0)",,"('fix', 0.104)",0,4612.112,0
0,119,target,"[(502, 383), (975, 663), (1163, 925)]",[],"[0, 0, 1]",[0.43333333333333335],vertical,"(890.0, 262.0)",1.5666666666666667,0.396,1,4617.02,1
0,120,target,"[(1163, 948), (1163, 940)]",[],"[0, 1]",[0.48333333333333334],horizontal,"(390.0, 762.0)",0.6833333333333333,0.45,1,4624.22,1
0,121,target,"[(1163, 940)]",[],[1],[0.45],vertical,"(390.0, 262.0)",1.5,0.409,1,4635.07,1
0,122,target,"[(637, 641), (1163, 937)]",[],"[0, 1]",[0.5666666666666667],horizontal,"(890.0, 262.0)",1.4,0.524,1,4646.285,2
0,123,target,"[(1153, 931)]",[],[1],[0.85],horizontal,"(390.0, 762.0)",1.5333333333333332,nan,0,4654.969,0
0,124,target,"[(1163, 922)]",[],[1],[0.5],horizontal,"(890.0, 762.0)",1.15,0.468,1,4661.346,1
0,125,target,"[(588, 415), (1163, 964), (1137, 903)]",[],"[0, 0, 1]",[],vertical,"(390.0, 762.0)",,"('fix', 0.167)",0,4666.437,0
0,126,target,"[(1158, 917)]",[],[1],[],vertical,"(890.0, 762.0)",,"('cti', 0.443)",0,4672.57,0
0,127,target,"[(1158, 972), (1163, 965), (1148, 914)]",[],"[0, 0, 1]",[],horizontal,"(890.0, 762.0)",,"('fix', 0.102)",0,4676.917,0
0,128,catch,"[(529, 387), (613, 421), (1153, 947), (1079, 986), (1163, 925)]",[],"[0, 0, 0, 0, 1]",[],horizontal,"(890.0, 262.0)",,"('fix', 0.454),nan",0,4683.965,0
0,129,target,"[(553, 620), (616, 419), (505, 437), (1158, 916)]",[],"[0, 0, 0, 1]",[],horizontal,"(890.0, 762.0)",,"('fix', 0.099)",0,4690.8,0
0,130,target,"[(1163, 950), (1154, 920)]",[],"[0, 1]",[],vertical,"(390.0, 762.0)",,"('fix', 0.036)",0,4705.819,0
0,131,target,"[(1137, 875)]",[],[1],[],vertical,"(890.0, 762.0)",,"('fix', 0.116)",0,4714.393,0
0,132,target,"[(1163, 926)]",[],[1],[],horizontal,"(390.0, 262.0)",,"('cti', 0.671)",0,4717.103,0
0,133,target,"[(1163, 937)]",[],[1],[0.5333333333333333],vertical,"(390.0, 762.0)",1.2333333333333334,0.493,1,4720.919,1
0,134,target,"[(1118, 975), (592, 561), (577, 620), (1158, 919)]",[],"[0, 0, 0, 1]",[],vertical,"(890.0, 262.0)",,"('fix', 0.194)",0,4733.346,0
0,135,target,"[(1163, 931)]",[],[1],[0.4666666666666667],vertical,"(390.0, 762.0)",1.1,0.427,1,4742.74,1
0,136,target,"[(1163, 939)]",[],[1],[],horizontal,"(390.0, 262.0)",,"('fix', 0.135)",0,4750.463,0
0,137,target,"[(1098, 932)]",[],[1],[],horizontal,"(390.0, 262.0)",,"('fix', 0.335)",0,4754.643,0
0,138,target,"[(1163, 941)]",[],[1],[0.5666666666666667],vertical,"(390.0, 262.0)",0.9833333333333333,0.533,1,4757.103,1
0,139,target,"[(1095, 917)]",[],[1],[],vertical,"(390.0, 762.0)",,"('cti', 0.1)",0,4768.268,0
0,140,target,"[(527, 541), (1163, 923)]",[],"[0, 1]",[],vertical,"(890.0, 262.0)",,"('cti', 0.283)",0,4772.353,0
0,141,target,"[(1163, 937)]",[],[1],[0.5333333333333333],vertical,"(890.0, 262.0)",1.1,0.49,1,4776.62,1
0,142,target,"[(1146, 881)]",[],[1],[0.5166666666666666],horizontal,"(390.0, 762.0)",0.5833333333333334,0.481,1,4783.454,1
0,143,target,"[(1163, 943)]",[],[1],[0.13333333333333333],vertical,"(890.0, 262.0)",0.8,0.1,0,4790.02,0
0,144,target,"[(426, 646), (345, 671), (392, 697), (497, 695), (885, 980), (884, 974), (1163, 961), (524, 459), (1158, 880)]",[],"[0, 0, 0, 0, 0, 0, 0, 0, 1]",[],vertical,"(890.0, 262.0)",,"('cti', 0.475)",0,4811.203,0
0,145,target,"[(1148, 909)]",[],[1],[0.85],vertical,"(890.0, 262.0)",0.65,nan,0,5082.538,0
0,146,target,"[(1163, 940)]",[],[1],[0.6],horizontal,"(890.0, 262.0)",0.95,0.553,1,5087.917,1
0,147,target,"[(1137, 935)]",[],[1],[],horizontal,"(390.0, 262.0)",,"('cti', 0.379)",0,5098.339,0
0,148,target,"[(1163, 922)]",[],[1],[0.48333333333333334],horizontal,"(390.0, 262.0)",0.5833333333333334,0.441,1,5109.454,1
0,149,target,"[(1153, 944)]",[],[1],[0.45],vertical,"(390.0, 262.0)",1.2666666666666666,0.414,1,5118.131,1
0,150,target,"[(1148, 919)]","[(1148, 919)]",[1],[0.5666666666666667],horizontal,"(390.0, 762.0)",,"('bar', 0.588)",0,5127.772,0
0,151,target,"[(431, 470), (1133, 977), (1158, 945), (692, 393), (1148, 908)]",[],"[0, 0, 0, 0, 1]",[],horizontal,"(390.0, 762.0)",,"('fix', 0.152)",0,5131.723,0
0,152,target,"[(592, 520), (1163, 934)]",[],"[0, 1]",[],horizontal,"(390.0, 762.0)",,"('cti', 0.33)",0,5138.922,0
0,153,target,"[(1163, 933)]",[],[1],[0.6333333333333333],horizontal,"(390.0, 262.0)",1.0166666666666666,0.593,1,5146.056,1
0,154,target,"[(492, 703), (1163, 940)]",[],"[0, 1]",[],vertical,"(390.0, 762.0)",,"('fix', 0.249)",0,5196.64,0
0,155,target,"[(691, 534), (1163, 948), (632, 495), (1163, 952), (602, 475), (591, 631), (507, 575), (671, 608), (1148, 986), (562, 950), (642, 486), (1158, 926)]",[],"[0, 0, 0, 0, 0, 0, 0, 0, 0, 0, 0, 1]",[],horizontal,"(890.0, 762.0)",,"('cti', 0.965)",0,5206.706,0
0,156,target,"[(647, 603), (1163, 923)]",[],"[0, 1]",[],vertical,"(390.0, 762.0)",,"('cti', 0.837)",0,5242.306,0
0,157,target,"[(617, 608), (560, 567), (1162, 997), (1153, 975), (693, 530), (636, 498), (1158, 891)]",[],"[0, 0, 0, 0, 0, 0, 1]",[],horizontal,"(890.0, 762.0)",,"('fix', 0.196)",0,5248.613,0
0,158,target,"[(577, 557), (1089, 966), (613, 531), (462, 908), (1158, 940)]",[],"[0, 0, 0, 0, 1]",[0.5],horizontal,"(890.0, 262.0)",1.3666666666666667,0.461,1,5258.635,1
0,159,target,"[(1158, 929)]",[],[1],[0.5166666666666666],horizontal,"(390.0, 262.0)",0.7833333333333333,0.475,1,5286.797,1
0,160,target,"[(1148, 910)]","[(1148, 910)]",[1],[0.8333333333333334],horizontal,"(390.0, 262.0)",,"('bar', 0.836)",0,5300.174,0
0,161,target,"[(1163, 942)]",[],[1],[0.55],vertical,"(390.0, 262.0)",0.8333333333333334,0.517,1,5304.273,1
0,162,target,"[(1163, 931)]",[],[1],[0.48333333333333334],vertical,"(390.0, 262.0)",1.4,0.446,1,5317.714,1
0,163,target,"[(1158, 931)]",[],[1],[0.5],vertical,"(390.0, 762.0)",1.2,0.463,1,5326.05,1
0,164,target,"[(1163, 937)]",[],[1],[0.5333333333333333],vertical,"(390.0, 762.0)",0.8,0.499,1,5336.577,2
0,165,target,"[(1163, 942)]",[],[1],[0.43333333333333335],vertical,"(890.0, 762.0)",1.65,0.391,1,5361.123,1
0,166,target,"[(683, 628), (1163, 933)]",[],"[0, 1]",[0.5166666666666666],vertical,"(890.0, 762.0)",0.5166666666666666,0.475,1,5372.657,1
0,167,target,"[(652, 692), (1163, 938)]",[],"[0, 1]",[0.23333333333333334],horizontal,"(390.0, 762.0)",1.5666666666666667,0.195,1,5378.253,1
0,168,target,"[(1158, 936)]",[],[1],[0.6],horizontal,"(890.0, 262.0)",1.4666666666666666,0.564,1,5385.136,3
0,169,target,"[(1163, 926)]",[],[1],[0.16666666666666666],horizontal,"(890.0, 262.0)",0.9333333333333333,0.134,0,5395.841,0
0,170,target,"[(1158, 969), (1158, 860)]",[],"[0, 1]",[0.6333333333333333],horizontal,"(390.0, 762.0)",0.8833333333333333,0.591,1,5403.091,1
0,171,catch,"[(1163, 928)]",[],[1],[],horizontal,"(890.0, 262.0)",1.55,nan,1,5409.867,1
0,172,target,"[(1158, 898)]",[],[1],[0.43333333333333335],vertical,"(890.0, 262.0)",1.6833333333333333,0.4,1,5421.242,1
0,173,target,"[(1137, 913)]",[],[1],[],vertical,"(890.0, 262.0)",,"('cti', 0.117)",0,5428.631,0
0,174,target,"[(623, 624), (521, 539), (434, 537), (357, 534), (418, 510), (459, 546), (1078, 928)]",[],"[0, 0, 0, 0, 0, 0, 1]",[0.25],horizontal,"(890.0, 262.0)",0.5,0.22,1,5433.372,1
0,175,target,"[(647, 907), (645, 486), (1158, 931)]",[],"[0, 0, 1]",[0.36666666666666664],vertical,"(390.0, 762.0)",1.4666666666666666,0.331,1,5440.816,1
0,176,catch,"[(1153, 924)]","[(1153, 924)]",[1],[0.6666666666666666],vertical,"(890.0, 762.0)",,"('bar', 0.675),nan",0,5452.687,0
0,177,target,"[(1154, 950), (1163, 932)]",[],"[0, 1]",[0.23333333333333334],vertical,"(890.0, 262.0)",0.6333333333333333,0.198,1,5457.291,1
0,178,target,"[(1163, 915)]",[],[1],[0.4666666666666667],vertical,"(890.0, 762.0)",1.55,0.422,1,5465.14,1
0,179,target,"[(1163, 925)]",[],[1],[0.18333333333333332],vertical,"(390.0, 762.0)",1.5,0.152,1,5470.889,1
0,180,target,"[(641, 928), (1163, 908)]",[],"[0, 1]",[0.5166666666666666],vertical,"(890.0, 262.0)",0.5,0.481,1,5478.625,2
0,181,target,"[(1163, 916)]",[],[1],[0.55],vertical,"(890.0, 762.0)",0.9166666666666666,0.521,1,5484.925,1
0,182,target,"[(1163, 922)]",[],[1],[0.48333333333333334],horizontal,"(890.0, 262.0)",1.6166666666666667,0.448,1,5491.474,1
0,183,target,"[(1163, 916)]",[],[1],[0.4166666666666667],horizontal,"(390.0, 262.0)",1.65,0.384,1,5500.781,1
0,184,target,"[(1163, 897)]",[],[1],[0.5666666666666667],vertical,"(390.0, 262.0)",0.5666666666666667,0.526,1,5510.175,3
0,185,target,"[(1163, 953), (1154, 961), (1154, 859)]",[],"[0, 0, 1]",[0.6166666666666667],vertical,"(390.0, 762.0)",0.7166666666666667,0.574,1,5517.039,1
0,186,target,"[(1163, 909)]",[],[1],[0.45],vertical,"(890.0, 262.0)",1.0833333333333333,0.409,1,5526.553,1
0,187,target,"[(1163, 915)]",[],[1],[0.5333333333333333],horizontal,"(390.0, 762.0)",1.1833333333333333,0.49,1,5533.458,1
0,188,target,"[(1133, 992), (1163, 908)]",[],"[0, 1]",[0.65],horizontal,"(390.0, 762.0)",0.7833333333333333,0.607,1,5540.904,2
0,189,target,"[(1158, 903)]",[],[1],[0.6666666666666666],horizontal,"(890.0, 262.0)",0.6833333333333333,0.626,1,5548.507,1
0,190,target,"[(1153, 884)]",[],[1],[0.65],vertical,"(890.0, 262.0)",1.65,0.604,1,5559.158,1
0,191,target,"[(662, 570), (1163, 934)]",[],"[0, 1]",[],horizontal,"(390.0, 762.0)",,"('cti', 0.984)",0,5569.608,0
0,192,target,"[(1163, 900)]",[],[1],[0.25],vertical,"(890.0, 262.0)",1.55,0.221,1,5575.283,1
0,193,target,"[(1163, 938)]",[],[1],[0.5666666666666667],horizontal,"(390.0, 762.0)",0.6666666666666666,0.532,1,5581.192,1
0,194,target,"[(1163, 934)]",[],[1],[0.5],horizontal,"(890.0, 262.0)",1.1833333333333333,0.459,1,5592.825,1
0,195,target,"[(1128, 906)]",[],[1],[0.85],horizontal,"(890.0, 762.0)",0.9833333333333333,nan,0,5599.091,0
0,196,catch,"[(1163, 924)]",[],[1],[],vertical,"(390.0, 762.0)",1.2166666666666666,nan,1,5605.858,1
0,197,target,"[(1163, 917)]",[],[1],[],horizontal,"(890.0, 262.0)",,"('cti', 0.335)",0,5610.507,0
0,198,target,"[(1163, 914)]",[],[1],[0.4666666666666667],horizontal,"(890.0, 262.0)",0.7,0.425,1,5615.743,1
0,199,target,"[(1162, 915)]",[],[1],[0.55],vertical,"(890.0, 262.0)",1.15,0.505,1,5620.983,1
0,200,target,"[(1138, 899)]",[],[1],[0.85],horizontal,"(390.0, 262.0)",0.9666666666666667,nan,0,5627.892,0
0,201,target,"[(1163, 924)]",[],[1],[0.5333333333333333],vertical,"(390.0, 262.0)",0.7833333333333333,0.495,1,5633.726,1
0,202,target,"[(1163, 908)]",[],[1],[0.08333333333333333],vertical,"(890.0, 762.0)",0.65,0.052,0,5639.908,0
0,203,catch,"[(1163, 918)]",[],[1],[],horizontal,"(390.0, 762.0)",1.6166666666666667,nan,1,5646.693,1
0,204,target,"[(1153, 907)]",[],[1],[0.85],horizontal,"(390.0, 762.0)",0.9666666666666667,nan,0,5656.137,0
0,205,target,"[(1162, 924)]",[],[1],[0.85],vertical,"(390.0, 762.0)",0.8833333333333333,nan,0,5661.795,0
0,206,target,"[(1158, 927)]",[],[1],[0.05],vertical,"(390.0, 762.0)",1.5166666666666666,0.02,0,5667.614,0
0,207,target,"[(1163, 906)]",[],[1],[0.4],vertical,"(890.0, 262.0)",1.0333333333333332,0.367,1,5673.18,1
0,208,target,"[(1153, 918)]",[],[1],[0.85],horizontal,"(890.0, 262.0)",0.7166666666666667,nan,0,5678.77,0
0,209,catch,"[(1163, 913)]",[],[1],[],horizontal,"(890.0, 762.0)",1.4,nan,1,5685.526,1
0,210,target,"[(1163, 929)]",[],[1],[0.4],vertical,"(390.0, 262.0)",1.6833333333333333,0.368,1,5691.812,1
0,211,target,"[(1128, 859)]",[],[1],[0.5],vertical,"(390.0, 262.0)",1.2166666666666666,0.466,1,5697.529,1
0,212,target,"[(1163, 920)]",[],[1],[0.4666666666666667],vertical,"(890.0, 262.0)",0.7166666666666667,0.427,1,5703.976,2
0,213,target,"[(1163, 930)]",[],[1],[],horizontal,"(890.0, 262.0)",,"('fix', 0.114)",0,5713.696,0
0,214,catch,"[(709, 381), (1163, 915)]",[],"[0, 1]",[],horizontal,"(390.0, 762.0)",,"('fix', 0.033),nan",0,5718.479,0
0,215,target,"[(1163, 892)]",[],[1],[0.4666666666666667],horizontal,"(390.0, 762.0)",0.85,0.425,1,5721.038,1
0,216,target,"[(1158, 892)]",[],[1],[0.85],horizontal,"(890.0, 762.0)",0.8666666666666667,nan,0,5726.676,0
0,217,target,"[(1158, 925)]",[],[1],[0.6333333333333333],vertical,"(890.0, 262.0)",0.5,0.593,1,5735.826,1
0,218,catch,"[(1163, 921)]",[],[1],[],horizontal,"(890.0, 262.0)",1.5666666666666667,nan,1,5741.559,1
0,219,target,"[(1163, 911)]",[],[1],[0.5333333333333333],vertical,"(890.0, 762.0)",0.95,0.495,1,5748.442,1
0,220,target,"[(1163, 889)]",[],[1],[0.48333333333333334],horizontal,"(890.0, 262.0)",1.3666666666666667,0.447,1,5753.411,2
0,221,target,"[(1128, 897)]","[(1128, 897)]",[1],[0.8],horizontal,"(390.0, 262.0)",,"('bar', 0.805)",0,5760.842,0
0,222,target,"[(1128, 848)]",[],[1],[],horizontal,"(890.0, 262.0)",,"('fix', 0.083)",0,5764.659,0
0,223,target,"[(592, 917), (1163, 919)]",[],"[0, 1]",[0.5333333333333333],horizontal,"(390.0, 762.0)",1.0166666666666666,0.492,1,5767.179,1
0,224,target,"[(1163, 909)]",[],[1],[0.4666666666666667],horizontal,"(390.0, 262.0)",0.5166666666666666,0.426,1,5773.126,1
0,225,target,"[(1163, 898)]",[],[1],[],horizontal,"(390.0, 262.0)",,"('fix', 0.25)",0,5780.501,0
0,226,target,"[(615, 434), (1142, 892)]",[],"[0, 1]",[0.11666666666666667],horizontal,"(390.0, 262.0)",1.0,0.082,0,5785.185,0
0,227,target,"[(657, 570), (1163, 913)]",[],"[0, 1]",[0.5166666666666666],vertical,"(390.0, 262.0)",1.35,0.473,1,5790.135,1
0,228,target,"[(612, 588), (547, 482), (1153, 901)]",[],"[0, 0, 1]",[],horizontal,"(390.0, 762.0)",,"('cti', 1.203)",0,5797.276,0
0,229,target,"[(1163, 919)]",[],[1],[0.2833333333333333],vertical,"(890.0, 762.0)",1.0833333333333333,0.246,1,5805.547,1
0,230,target,"[(1163, 897)]",[],[1],[0.7],vertical,"(390.0, 262.0)",0.85,0.664,1,5813.042,1
0,231,target,"[(1158, 875)]",[],[1],[0.5],vertical,"(390.0, 262.0)",0.8,0.456,1,5818.081,1
0,232,target,"[(1158, 903)]",[],[1],[0.85],horizontal,"(890.0, 762.0)",1.6,"('cti', 1.617),nan",0,5823.91,0
0,233,target,"[(1143, 901)]",[],[1],[0.85],horizontal,"(890.0, 262.0)",0.8166666666666667,nan,0,5830.26,0
0,234,target,"[(1143, 904)]",[],[1],[0.85],horizontal,"(390.0, 762.0)",0.8666666666666667,nan,0,5835.855,0
0,235,target,"[(1163, 949), (1133, 901)]",[],"[0, 1]",[0.65],horizontal,"(390.0, 762.0)",1.05,0.608,1,5840.992,1
0,236,target,"[(1163, 896)]",[],[1],[],horizontal,"(890.0, 262.0)",,"('cti', 0.147)",0,5852.759,0
0,237,target,"[(1163, 914)]",[],[1],[0.5166666666666666],vertical,"(390.0, 762.0)",1.15,0.476,1,5857.12,1
0,238,target,"[(632, 558), (1158, 900)]",[],"[0, 1]",[0.5333333333333333],vertical,"(390.0, 262.0)",1.3666666666666667,0.494,1,5867.748,1
0,239,target,"[(1163, 903)]",[],[1],[0.48333333333333334],horizontal,"(390.0, 262.0)",1.45,0.444,1,5876.004,1
0,240,target,"[(1061, 858)]","[(1061, 858)]",[1],[0.06666666666666667],horizontal,"(390.0, 762.0)",,"('bar', 0.082)",0,5882.91,0
0,241,target,"[(1128, 920)]",[],[1],[],horizontal,"(890.0, 262.0)",,"('fix', 0.15)",0,5886.261,0
0,242,target,"[(1163, 912)]",[],[1],[0.3833333333333333],horizontal,"(390.0, 762.0)",1.5,0.348,1,5887.776,1
0,243,target,"[(1153, 950), (1163, 895)]",[],"[0, 1]",[],vertical,"(390.0, 262.0)",,"('cti', 0.245)",0,5893.81,0
0,244,target,"[(1162, 932)]",[],[1],[0.31666666666666665],vertical,"(390.0, 762.0)",1.6666666666666667,0.279,1,5899.594,1
0,245,target,"[(636, 910), (1152, 917)]",[],"[0, 1]",[0.6333333333333333],horizontal,"(390.0, 762.0)",0.8666666666666667,0.596,1,5906.267,1
0,246,target,"[(1163, 924)]",[],[1],[],vertical,"(390.0, 262.0)",,"('fix', 0.217)",0,5912.294,0
0,247,target,"[(608, 939), (667, 607), (1163, 931)]",[],"[0, 0, 1]",[0.4],vertical,"(890.0, 762.0)",1.3666666666666667,0.362,1,5915.393,1
0,248,target,"[(1163, 912)]",[],[1],[0.5166666666666666],horizontal,"(390.0, 762.0)",0.5166666666666666,0.478,1,5922.378,1
0,249,target,"[(1163, 913)]",[],[1],[0.5],horizontal,"(890.0, 762.0)",0.9166666666666666,0.456,1,5926.895,1
0,250,catch,"[(1152, 927)]",[],[1],[],horizontal,"(390.0, 762.0)",1.2833333333333332,nan,1,5933.19,2
0,251,target,"[(1163, 920)]",[],[1],[0.6],vertical,"(390.0, 762.0)",1.0,0.564,1,5941.557,1
0,252,target,"[(1163, 920)]",[],[1],[0.5333333333333333],horizontal,"(890.0, 262.0)",1.05,0.497,1,5946.177,1
0,253,target,"[(1163, 915)]",[],[1],[0.48333333333333334],horizontal,"(390.0, 762.0)",1.1666666666666667,0.445,1,5951.348,1
0,254,catch,"[(1163, 901)]",[],[1],[],horizontal,"(390.0, 762.0)",1.6166666666666667,nan,1,5957.339,3
0,255,target,"[(1128, 918)]",[],[1],[0.85],horizontal,"(890.0, 762.0)",0.7833333333333333,"('cti', 0.784),nan",0,5964.478,0
0,256,target,"[(1163, 894)]",[],[1],[0.4],vertical,"(390.0, 762.0)",1.3333333333333333,0.369,1,5969.739,1
0,257,target,"[(1163, 928)]",[],[1],[0.55],vertical,"(890.0, 762.0)",0.95,0.512,1,5975.027,1
0,258,target,"[(1163, 880)]",[],[1],[0.21666666666666667],horizontal,"(890.0, 762.0)",1.6666666666666667,0.183,1,5980.778,1
0,259,target,"[(1163, 898)]",[],[1],[0.35],vertical,"(890.0, 262.0)",1.6333333333333333,0.312,1,5986.215,2
0,260,target,"[(1147, 910)]",[],[1],[0.85],horizontal,"(890.0, 762.0)",1.6833333333333333,nan,0,5991.943,0
0,261,target,"[(1163, 965), (1136, 876)]",[],"[0, 1]",[0.08333333333333333],horizontal,"(890.0, 762.0)",1.2,0.053,0,5999.091,0
0,262,catch,"[(1133, 853)]",[],[1],[],vertical,"(890.0, 762.0)",1.4333333333333333,nan,1,6069.361,1
0,263,target,"[(1163, 927)]",[],[1],[0.48333333333333334],vertical,"(890.0, 262.0)",1.0166666666666666,0.443,1,6075.91,1
0,264,target,"[(1158, 920)]",[],[1],[0.55],vertical,"(890.0, 262.0)",1.2666666666666666,0.517,1,6080.978,1
0,265,target,"[(1163, 920)]",[],[1],[0.4666666666666667],horizontal,"(890.0, 262.0)",0.7166666666666667,0.424,1,6090.527,2
0,266,target,"[(1153, 894)]",[],[1],[0.48333333333333334],horizontal,"(390.0, 262.0)",1.65,0.443,1,6096.045,1
0,267,target,"[(1153, 899)]",[],[1],[0.48333333333333334],vertical,"(890.0, 762.0)",1.3833333333333333,0.442,1,6103.937,1
0,268,catch,"[(1158, 900)]",[],[1],[],vertical,"(890.0, 762.0)",1.25,nan,1,6110.44,1
0,269,catch,"[(1163, 906)]",[],[1],[],vertical,"(890.0, 762.0)",1.3,nan,1,6116.211,3
0,270,target,"[(1163, 916)]",[],[1],[0.4166666666666667],vertical,"(890.0, 262.0)",1.6,0.379,1,6123.495,1
0,271,target,"[(1133, 902)]",[],[1],[0.85],horizontal,"(890.0, 262.0)",1.15,nan,0,6130.637,0
0,272,target,"[(1163, 910)]",[],[1],[0.5333333333333333],vertical,"(390.0, 762.0)",0.65,0.503,1,6137.363,1
0,273,target,"[(1163, 917)]",[],[1],[],horizontal,"(890.0, 262.0)",,"('cti', 0.608)",0,6141.845,0
0,274,target,"[(1163, 915)]",[],[1],[0.5333333333333333],vertical,"(390.0, 262.0)",1.6333333333333333,0.501,1,6146.907,1
0,275,target,"[(1158, 894)]",[],[1],[0.85],vertical,"(390.0, 262.0)",1.5166666666666666,nan,0,6152.62,0
0,276,target,"[(1148, 909)]",[],[1],[0.85],vertical,"(890.0, 262.0)",1.2333333333333334,nan,0,6159.73,0
0,277,target,"[(1145, 886)]",[],[1],[0.85],horizontal,"(890.0, 262.0)",0.6666666666666666,nan,0,6165.645,0
0,278,catch,"[(1163, 920)]",[],[1],[],horizontal,"(390.0, 762.0)",,"('fix', 0.069),nan",0,6170.696,0
0,279,target,"[(1162, 909)]",[],[1],[0.5],horizontal,"(390.0, 762.0)",1.3166666666666667,0.459,1,6174.577,1
0,280,target,"[(1148, 894)]",[],[1],[0.85],horizontal,"(390.0, 262.0)",1.3666666666666667,nan,0,6180.62,0
0,281,target,"[(1144, 939)]",[],[1],[0.4666666666666667],horizontal,"(390.0, 762.0)",1.35,0.428,1,6187.166,1
0,282,target,"[(1163, 916)]",[],[1],[0.5],vertical,"(390.0, 762.0)",0.8333333333333334,0.462,1,6193.444,1
0,283,target,"[(1163, 914)]",[],[1],[0.4666666666666667],horizontal,"(390.0, 262.0)",0.6666666666666666,0.424,1,6200.761,1
0,284,target,"[(1153, 860)]",[],[1],[0.5],vertical,"(890.0, 762.0)",1.15,0.466,1,6206.106,2
0,285,target,"[(1163, 885)]",[],[1],[0.5166666666666666],vertical,"(390.0, 262.0)",0.8166666666666667,0.485,1,6212.257,1
0,286,target,"[(1163, 886)]",[],[1],[0.5833333333333334],vertical,"(390.0, 762.0)",0.8,0.541,1,6218.085,1
0,287,target,"[(1163, 899)]",[],[1],[0.5666666666666667],horizontal,"(390.0, 762.0)",0.8,0.526,1,6223.234,1
0,288,catch,"[(1163, 902)]",[],[1],[],vertical,"(390.0, 262.0)",1.4,nan,1,6231.03,3
0,289,target,"[(1163, 910)]",[],[1],[],horizontal,"(890.0, 262.0)",,"('cti', 1.072)",0,6237.537,0
0,290,target,"[(1163, 905)]",[],[1],[0.55],horizontal,"(390.0, 762.0)",1.0333333333333332,0.509,1,6245.687,1
0,291,target,"[(1163, 890)]",[],[1],[0.48333333333333334],horizontal,"(390.0, 262.0)",1.3833333333333333,0.439,1,6250.675,1
0,292,target,"[(1163, 893)]",[],[1],[0.5333333333333333],horizontal,"(890.0, 262.0)",0.5333333333333333,0.499,1,6257.413,1
0,293,target,"[(1163, 903)]",[],[1],[0.5666666666666667],vertical,"(890.0, 262.0)",0.7333333333333333,0.527,1,6263.752,2
0,294,target,"[(1163, 891)]",[],[1],[0.5166666666666666],horizontal,"(890.0, 762.0)",1.0833333333333333,0.474,1,6270.059,1
0,295,target,"[(1137, 944)]",[],[1],[0.45],vertical,"(890.0, 762.0)",1.3,0.406,1,6275.928,1
0,296,target,"[(1136, 992), (1163, 899)]",[],"[0, 1]",[0.55],vertical,"(390.0, 262.0)",1.15,0.51,1,6282.928,1
0,297,target,"[(1143, 885)]",[],[1],[0.85],horizontal,"(890.0, 762.0)",1.3666666666666667,nan,0,6290.263,0
0,298,target,"[(1162, 894)]",[],[1],[0.55],horizontal,"(390.0, 762.0)",0.6666666666666666,0.51,1,6296.377,1
0,299,target,"[(1163, 887)]",[],[1],[0.5166666666666666],vertical,"(390.0, 262.0)",1.0333333333333332,0.476,1,6302.246,1
0,300,target,"[(1163, 881)]",[],[1],[0.5],horizontal,"(890.0, 262.0)",0.9166666666666666,0.46,1,6307.114,1
0,301,target,"[(1163, 874)]",[],[1],[0.7166666666666667],horizontal,"(390.0, 262.0)",0.5333333333333333,0.674,1,6312.92,2
0,302,target,"[(1158, 885)]",[],[1],[0.85],vertical,"(390.0, 762.0)",1.0666666666666667,nan,0,6318.747,0
0,303,target,"[(1148, 902)]",[],[1],[0.85],horizontal,"(890.0, 762.0)",0.8,nan,0,6325.174,0
0,304,target,"[(1163, 909)]",[],[1],[0.5833333333333334],horizontal,"(390.0, 762.0)",0.7833333333333333,0.545,1,6330.93,1
0,305,catch,"[(1153, 885)]",[],[1],[],horizontal,"(390.0, 762.0)",1.4666666666666666,nan,1,6335.885,1
0,306,target,"[(1133, 908)]",[],[1],[0.85],horizontal,"(390.0, 262.0)",1.5666666666666667,nan,0,6341.945,0
0,307,target,"[(1163, 872)]",[],[1],[0.55],vertical,"(890.0, 762.0)",0.5333333333333333,0.507,1,6348.836,1
0,308,target,"[(1148, 889)]",[],[1],[0.85],vertical,"(890.0, 762.0)",1.1833333333333333,nan,0,6353.964,0
0,309,target,"[(1148, 901)]",[],[1],[0.85],vertical,"(890.0, 762.0)",1.2666666666666666,nan,0,6359.6,0
0,310,target,"[(1129, 864)]",[],[1],[0.6833333333333333],horizontal,"(890.0, 262.0)",1.4333333333333333,0.635,1,6366.395,1
0,311,target,"[(1158, 891)]",[],[1],[0.2833333333333333],horizontal,"(890.0, 262.0)",1.6333333333333333,0.249,1,6372.313,1
0,312,target,"[(1163, 931)]","[(1163, 953)]",[1],[0.9666666666666667],vertical,"(890.0, 762.0)",,"('bar', 0.968)",0,6379.16,0
0,313,target,"[(1163, 872)]",[],[1],[],horizontal,"(390.0, 262.0)",,"('fix', 0.648)",0,6384.375,0
0,314,catch,"[(1163, 919)]",[],[1],[],horizontal,"(890.0, 262.0)",1.1833333333333333,nan,1,6387.538,1
0,315,target,"[(1133, 853)]",[],[1],[],vertical,"(890.0, 762.0)",,"('cti', 0.249)",0,6455.348,0
0,316,target,"[(1163, 920)]",[],[1],[0.5333333333333333],horizontal,"(890.0, 262.0)",1.0,0.489,1,6460.381,1
0,317,target,"[(1163, 929)]",[],[1],[],horizontal,"(390.0, 262.0)",,"('cti', 0.36)",0,6465.858,0
0,318,target,"[(562, 475), (1073, 956), (1047, 881)]",[],"[0, 0, 1]",[],vertical,"(390.0, 762.0)",,"('fix', 0.584)",0,6470.298,0
0,319,target,"[(507, 703), (1162, 918)]",[],"[0, 1]",[],vertical,"(890.0, 762.0)",,"('fix', 0.169)",0,6475.278,0
0,320,target,"[(1134, 992), (1132, 887)]",[],"[0, 1]",[0.5833333333333334],horizontal,"(890.0, 762.0)",1.0666666666666667,0.546,1,6478.291,1
0,321,target,"[(1163, 895)]",[],[1],[0.06666666666666667],horizontal,"(890.0, 262.0)",0.9666666666666667,0.036,0,6485.231,0
0,322,target,"[(1149, 898)]",[],[1],[0.5833333333333334],vertical,"(890.0, 762.0)",1.3,0.548,1,6491.966,1
0,323,target,"[(1163, 893)]",[],[1],[0.55],horizontal,"(390.0, 262.0)",0.9333333333333333,0.509,1,6499.202,1
0,324,target,"[(1163, 888)]",[],[1],[0.5666666666666667],horizontal,"(890.0, 762.0)",0.9666666666666667,0.527,1,6504.775,1
0,325,target,"[(1163, 916)]",[],[1],[0.5],vertical,"(390.0, 262.0)",0.6,0.461,1,6509.811,2
0,326,target,"[(1128, 903)]",[],[1],[0.85],vertical,"(390.0, 262.0)",1.6333333333333333,nan,0,6515.017,0
0,327,target,"[(1139, 992), (1153, 905)]",[],"[0, 1]",[],horizontal,"(890.0, 262.0)",,"('cti', 1.199)",0,6521.976,0
0,328,target,"[(1163, 897)]",[],[1],[0.5666666666666667],horizontal,"(390.0, 262.0)",0.8,0.531,1,6529.055,1
0,329,target,"[(1163, 895)]",[],[1],[0.31666666666666665],horizontal,"(390.0, 762.0)",1.3333333333333333,0.277,1,6536.209,1
0,330,target,"[(1137, 886)]",[],[1],[0.85],vertical,"(890.0, 262.0)",0.8333333333333334,nan,0,6542.714,0
0,331,target,"[(1163, 903)]",[],[1],[],horizontal,"(890.0, 762.0)",,"('cti', 0.018)",0,6548.858,0
0,332,target,"[(1158, 901)]",[],[1],[],horizontal,"(390.0, 762.0)",,"('fix', 0.135)",0,6553.765,0
0,333,target,"[(652, 465), (1163, 924)]",[],"[0, 1]",[],vertical,"(890.0, 262.0)",,"('cti', 0.56)",0,6557.739,0
0,334,catch,"[(1153, 958), (464, 526), (1162, 906)]",[],"[0, 0, 1]",[],horizontal,"(390.0, 762.0)",1.1666666666666667,nan,1,6563.701,1
0,335,target,"[(1163, 899)]",[],[1],[0.5166666666666666],vertical,"(390.0, 262.0)",0.9166666666666666,0.474,1,6573.821,1
0,336,target,"[(1163, 896)]",[],[1],[0.23333333333333334],horizontal,"(390.0, 762.0)",1.3833333333333333,0.198,1,6579.948,1
0,337,target,"[(1163, 890)]",[],[1],[0.43333333333333335],horizontal,"(390.0, 262.0)",0.9666666666666667,0.392,1,6587.502,2
0,338,target,"[(1148, 914)]",[],[1],[0.85],horizontal,"(390.0, 262.0)",0.6,nan,0,6592.925,0
0,339,target,"[(1163, 915)]",[],[1],[],vertical,"(390.0, 262.0)",,"('fix', 0.202)",0,6598.915,0
0,340,catch,"[(1163, 924)]",[],[1],[],vertical,"(890.0, 262.0)",1.3666666666666667,nan,1,6601.048,1
0,341,target,"[(1163, 893)]",[],[1],[0.25],vertical,"(890.0, 262.0)",1.5833333333333333,0.22,1,6605.538,1
0,342,target,"[(1163, 910)]",[],[1],[0.5166666666666666],horizontal,"(390.0, 762.0)",0.5333333333333333,0.477,1,6612.548,1
0,343,target,"[(1158, 859)]",[],[1],[0.3],horizontal,"(390.0, 762.0)",1.4666666666666666,0.264,1,6619.226,2
0,344,target,"[(1138, 958), (1138, 958), (1058, 906)]",[],"[0, 0, 1]",[],horizontal,"(890.0, 262.0)",,"('fix', 0.432)",0,6628.23,0
0,345,target,"[(1163, 898)]","[(1163, 911)]",[1],[0.6333333333333333],vertical,"(890.0, 262.0)",,"('bar', 0.651)",0,6631.986,0
0,346,target,"[(1082, 881)]",[],[1],[0.45],vertical,"(890.0, 262.0)",0.7333333333333333,0.414,1,6635.782,1
0,347,target,"[(1163, 891)]",[],[1],[0.36666666666666664],vertical,"(890.0, 762.0)",1.1,0.33,1,6641.716,1
0,348,target,"[(1162, 915)]",[],[1],[],horizontal,"(390.0, 262.0)",,"('cti', 1.562)",0,6648.45,0
0,349,target,"[(1163, 898)]",[],[1],[0.35],vertical,"(890.0, 762.0)",1.2,0.316,1,6655.514,1
0,350,target,"[(1163, 891)]",[],[1],[0.21666666666666667],horizontal,"(890.0, 762.0)",1.4333333333333333,0.184,1,6661.534,1
0,351,target,"[(1163, 881)]",[],[1],[0.3833333333333333],vertical,"(390.0, 762.0)",1.1833333333333333,0.354,1,6667.659,1
0,352,target,"[(1131, 776)]","[(1097, 873)]",[1],[0.31666666666666665],vertical,"(390.0, 262.0)",,"('bar', 0.324)",0,6672.644,0
0,353,target,"[(1162, 918)]",[],[1],[0.65],vertical,"(890.0, 262.0)",0.6,0.616,1,6677.754,1
0,354,target,"[(1138, 992), (1163, 922)]","[(1163, 930)]","[0, 1]",[0.9833333333333333],vertical,"(390.0, 762.0)",,"('bar', 0.982)",0,6684.85,0
0,355,target,"[(1163, 894)]",[],[1],[0.5833333333333334],horizontal,"(890.0, 762.0)",1.0,0.547,1,6689.795,1
0,356,target,"[(1138, 897)]",[],[1],[],vertical,"(390.0, 762.0)",,"('fix', 0.418)",0,6695.417,0
0,357,target,"[(1163, 899)]",[],[1],[0.5],vertical,"(390.0, 262.0)",1.15,0.458,1,6699.081,1
0,358,target,"[(1163, 897)]",[],[1],[0.18333333333333332],vertical,"(890.0, 762.0)",1.0,0.151,1,6705.185,1
0,359,target,"[(1148, 890)]",[],[1],[0.85],horizontal,"(890.0, 262.0)",0.5833333333333334,nan,0,6713.565,0
0,360,target,"[(1138, 891)]",[],[1],[],horizontal,"(390.0, 262.0)",,"('cti', 0.082)",0,6719.982,0
0,361,catch,"[(1158, 929)]",[],[1],[],vertical,"(890.0, 762.0)",,"('cti', 1.431),nan",0,6724.866,0
0,362,target,"[(1148, 909)]",[],[1],[0.85],vertical,"(390.0, 262.0)",1.6833333333333333,nan,0,6733.882,0
0,363,target,"[(1163, 907)]",[],[1],[0.48333333333333334],vertical,"(390.0, 262.0)",1.2666666666666666,0.441,1,6739.901,1
0,364,target,"[(1163, 926)]",[],[1],[0.5666666666666667],horizontal,"(390.0, 262.0)",0.7833333333333333,0.535,1,6745.911,1
0,365,target,"[(1163, 912)]",[],[1],[0.85],horizontal,"(390.0, 762.0)",1.3666666666666667,nan,0,6752.388,0
0,366,target,"[(1143, 909)]",[],[1],[0.85],vertical,"(390.0, 262.0)",0.7,nan,0,6758.882,0
0,367,target,"[(1163, 898)]",[],[1],[0.55],horizontal,"(890.0, 762.0)",0.7333333333333333,0.507,1,6764.166,1
0,368,catch,"[(1163, 899)]",[],[1],[],vertical,"(390.0, 762.0)",1.25,nan,1,6775.622,1
0,369,target,"[(1162, 923)]",[],[1],[0.4666666666666667],vertical,"(890.0, 762.0)",1.0166666666666666,0.432,1,6781.05,1
0,370,target,"[(1163, 892)]",[],[1],[0.5166666666666666],horizontal,"(890.0, 762.0)",0.8,0.48,1,6789.903,2
0,371,target,"[(1138, 928)]",[],[1],[0.85],vertical,"(390.0, 262.0)",1.1666666666666667,"('cti', 1.164),nan",0,6795.4,0
0,372,target,"[(1153, 915)]",[],[1],[0.6166666666666667],vertical,"(390.0, 762.0)",0.6166666666666667,0.58,1,6801.368,1
0,373,target,"[(1138, 987), (1158, 909)]",[],"[0, 1]",[0.5833333333333334],horizontal,"(890.0, 262.0)",0.55,0.543,1,6806.933,1
0,374,target,"[(1153, 992), (1153, 909)]",[],"[0, 1]",[0.5],vertical,"(890.0, 262.0)",1.2166666666666666,0.464,1,6813.41,1
0,375,target,"[(1153, 920)]",[],[1],[0.55],vertical,"(390.0, 762.0)",0.95,0.51,1,6845.2,2
0,376,target,"[(1163, 912)]",[],[1],[0.4],horizontal,"(390.0, 262.0)",1.0166666666666666,0.362,1,6853.676,1
0,377,catch,"[(1163, 909)]",[],[1],[],vertical,"(390.0, 262.0)",1.3,nan,1,6861.016,1
0,378,target,"[(1163, 914)]",[],[1],[0.7333333333333333],vertical,"(890.0, 762.0)",0.7,0.691,1,6866.936,1
0,379,target,"[(1163, 919)]",[],[1],[0.31666666666666665],horizontal,"(890.0, 262.0)",1.1833333333333333,0.279,1,6872.996,3
0,380,catch,"[(1163, 911)]",[],[1],[],horizontal,"(890.0, 762.0)",1.45,nan,1,6881.526,1
0,381,catch,"[(1153, 880)]","[(1153, 887)]",[1],[0.9333333333333333],vertical,"(890.0, 762.0)",,"('bar', 0.945),nan",0,6888.856,0
0,382,target,"[(516, 459), (1163, 898)]",[],"[0, 1]",[0.5333333333333333],vertical,"(390.0, 762.0)",0.95,0.488,1,6898.233,1
0,383,target,"[(1163, 885)]",[],[1],[0.85],horizontal,"(890.0, 262.0)",0.5666666666666667,nan,0,6903.792,0
0,384,target,"[(1163, 877)]",[],[1],[],horizontal,"(390.0, 762.0)",,"('cti', 1.439)",0,6909.441,0
0,385,target,"[(1132, 874)]",[],[1],[0.5166666666666666],horizontal,"(390.0, 262.0)",0.9833333333333333,0.484,1,6914.583,1
0,386,target,"[(1158, 883)]",[],[1],[0.85],horizontal,"(890.0, 762.0)",1.3,nan,0,6920.884,0
0,387,target,"[(1137, 906)]",[],[1],[0.85],horizontal,"(390.0, 262.0)",0.8166666666666667,nan,0,6926.95,0
0,388,target,"[(1163, 920)]",[],[1],[],vertical,"(890.0, 762.0)",,"('fix', 0.232)",0,6932.835,0
0,389,target,"[(1063, 867)]",[],[1],[0.85],horizontal,"(390.0, 262.0)",0.7333333333333333,nan,0,6935.768,0
0,390,target,"[(1162, 890)]",[],[1],[0.85],horizontal,"(890.0, 262.0)",1.5666666666666667,"('cti', 1.562),nan",0,6941.547,0
0,391,target,"[(1140, 992), (1163, 895)]",[],"[0, 1]",[],vertical,"(890.0, 262.0)",,"('fix', 0.133)",0,6948.15,0
0,392,catch,"[(1158, 881)]",[],[1],[],vertical,"(890.0, 262.0)",,"('fix', 0.168),nan",0,6950.835,0
0,393,catch,"[(1163, 920)]",[],[1],[],vertical,"(390.0, 762.0)",1.6,nan,1,6953.818,1
0,394,target,"[(1158, 859)]",[],[1],[],vertical,"(390.0, 262.0)",,"('fix', 0.245)",0,6963.734,0
0,395,target,"[(511, 459), (1163, 922)]",[],"[0, 1]",[],horizontal,"(390.0, 262.0)",,"('fix', 0.218)",0,6967.287,0
0,396,target,"[(470, 909), (1163, 894)]",[],"[0, 1]",[0.6],horizontal,"(390.0, 262.0)",0.95,0.562,1,6969.918,1
0,397,target,"[(1158, 929)]",[],[1],[],vertical,"(890.0, 262.0)",,"('fix', 0.117)",0,6975.796,0
0,398,target,"[(1158, 898)]",[],[1],[0.08333333333333333],horizontal,"(890.0, 762.0)",1.4166666666666667,0.052,0,6980.167,0
0,399,target,"[(1162, 905)]",[],[1],[0.48333333333333334],vertical,"(390.0, 262.0)",1.1666666666666667,0.444,1,6988.033,1
0,400,target,"[(1163, 909)]",[],[1],[0.2833333333333333],vertical,"(890.0, 262.0)",1.25,0.246,1,6993.516,1
0,401,target,"[(1163, 895)]",[],[1],[0.18333333333333332],horizontal,"(890.0, 262.0)",1.2666666666666666,0.151,1,7000.301,1
0,402,target,"[(1163, 886)]",[],[1],[0.5],vertical,"(890.0, 262.0)",1.1666666666666667,0.461,1,7006.867,2
0,403,target,"[(1134, 848)]","[(1128, 869)]",[1],[0.5833333333333334],horizontal,"(890.0, 262.0)",,"('bar', 0.591)",0,7013.334,0
0,404,target,"[(1137, 970), (1163, 889)]",[],"[0, 1]",[0.48333333333333334],horizontal,"(890.0, 262.0)",0.7,0.443,1,7017.751,1
0,405,target,"[(1128, 869)]",[],[1],[],vertical,"(390.0, 262.0)",,"('fix', 0.068)",0,7023.918,0
0,406,target,"[(1158, 924)]",[],[1],[0.3],horizontal,"(890.0, 262.0)",1.5666666666666667,0.265,1,7028.87,1
0,407,target,"[(1163, 931)]",[],[1],[0.5333333333333333],horizontal,"(390.0, 262.0)",0.7666666666666666,0.493,1,7034.009,1
0,408,target,"[(1145, 909)]",[],[1],[0.48333333333333334],vertical,"(390.0, 762.0)",0.9666666666666667,0.445,1,7040.291,1
0,409,target,"[(1146, 958), (1163, 914)]",[],"[0, 1]",[0.3],horizontal,"(890.0, 262.0)",1.4166666666666667,0.261,1,7050.767,2
0,410,target,"[(1163, 900)]",[],[1],[0.48333333333333334],horizontal,"(890.0, 262.0)",0.65,0.447,1,7059.419,1
0,411,target,"[(1163, 874)]",[],[1],[0.85],vertical,"(390.0, 762.0)",0.65,nan,0,7064.844,0
0,412,target,"[(1163, 881)]",[],[1],[0.6833333333333333],horizontal,"(390.0, 262.0)",0.85,0.639,1,7070.185,1
0,413,target,"[(1153, 865)]",[],[1],[],vertical,"(890.0, 262.0)",,"('fix', 0.052)",0,7076.996,0
0,414,target,"[(572, 403), (1162, 887)]",[],"[0, 1]",[0.21666666666666667],horizontal,"(890.0, 262.0)",1.4,0.184,1,7083.118,1
0,415,target,"[(1141, 859)]",[],[1],[0.55],vertical,"(890.0, 762.0)",0.8333333333333334,0.508,1,7089.458,1
0,416,target,"[(1163, 900)]",[],[1],[0.6333333333333333],vertical,"(890.0, 762.0)",0.75,0.593,1,7097.336,1
0,417,catch,"[(1163, 905)]",[],[1],[],vertical,"(890.0, 262.0)",1.2833333333333332,nan,1,7102.114,2
0,418,target,"[(1163, 870)]",[],[1],[0.5333333333333333],vertical,"(890.0, 262.0)",0.7333333333333333,0.49,1,7109.268,1
0,419,target,"[(1153, 859)]",[],[1],[],horizontal,"(890.0, 262.0)",,"('fix', 0.068)",0,7115.968,0
0,420,target,"[(1163, 922)]",[],[1],[0.31666666666666665],vertical,"(390.0, 262.0)",1.35,0.281,1,7119.475,1
0,421,target,"[(1128, 826)]",[],[1],[],horizontal,"(890.0, 262.0)",,"('fix', 0.099)",0,7124.405,0
0,422,target,"[(1163, 906)]",[],[1],[0.08333333333333333],horizontal,"(890.0, 762.0)",1.5,0.05,0,7127.129,0
0,423,target,"[(1133, 953), (1158, 862)]",[],"[0, 1]",[],vertical,"(390.0, 262.0)",,"('fix', 0.232)",0,7133.43,0
0,424,target,"[(1163, 916)]",[],[1],[0.21666666666666667],vertical,"(890.0, 762.0)",0.9333333333333333,0.182,1,7137.152,1
0,425,target,"[(1154, 913)]",[],[1],[0.5],vertical,"(890.0, 262.0)",1.0333333333333332,0.461,1,7141.418,1
0,426,target,"[(1128, 992), (1134, 958), (1133, 877)]","[(1133, 877)]","[0, 0, 1]",[0.48333333333333334],vertical,"(390.0, 762.0)",,"('bar', 0.499)",0,7147.024,0
0,427,target,"[(1163, 916)]",[],[1],[0.05],vertical,"(390.0, 762.0)",1.3333333333333333,0.018,0,7165.377,0
0,428,target,"[(1163, 927)]",[],[1],[],vertical,"(890.0, 762.0)",,"('fix', 0.2)",0,7171.747,0
0,429,target,"[(1063, 936)]",[],[1],[0.3833333333333333],vertical,"(890.0, 262.0)",1.55,0.348,1,7177.286,1
0,430,target,"[(1163, 906)]",[],[1],[0.5166666666666666],horizontal,"(890.0, 262.0)",1.25,0.481,1,7194.002,1
0,431,catch,"[(1163, 924)]",[],[1],[],horizontal,"(390.0, 762.0)",,"('fix', 0.199),nan",0,7200.352,0
0,432,target,"[(1163, 897)]",[],[1],[0.4666666666666667],vertical,"(390.0, 262.0)",0.65,0.433,1,7207.185,1
0,433,target,"[(1163, 893)]",[],[1],[0.45],horizontal,"(390.0, 262.0)",1.1666666666666667,0.411,1,7211.672,1
0,434,target,"[(1145, 941)]",[],[1],[0.6833333333333333],horizontal,"(390.0, 262.0)",0.9166666666666666,0.639,1,7219.794,1
0,435,target,"[(1163, 883)]",[],[1],[],horizontal,"(390.0, 262.0)",,"('cti', 1.577)",0,7226.26,0
0,436,catch,"[(1163, 886)]",[],[1],[],horizontal,"(890.0, 762.0)",1.1666666666666667,nan,1,7231.415,1
0,437,target,"[(1147, 830)]",[],[1],[0.15],vertical,"(390.0, 262.0)",1.6333333333333333,0.117,0,7237.237,0
0,438,target,"[(1140, 903)]",[],[1],[0.5833333333333334],horizontal,"(890.0, 262.0)",0.8333333333333334,0.537,1,7243.893,1
0,439,target,"[(1153, 986), (1163, 894)]",[],"[0, 1]",[],horizontal,"(390.0, 762.0)",,"('cti', 0.197)",0,7249.086,0
0,440,target,"[(1155, 886)]",[],[1],[],vertical,"(890.0, 262.0)",,"('cti', 1.522)",0,7255.235,0
0,441,target,"[(1163, 874)]",[],[1],[],horizontal,"(890.0, 262.0)",,"('cti', 1.162)",0,7261.899,0
0,442,target,"[(1158, 888)]",[],[1],[],vertical,"(390.0, 762.0)",,"('cti', 1.574)",0,7267.937,0
0,443,target,"[(1163, 883)]",[],[1],[0.48333333333333334],horizontal,"(390.0, 262.0)",0.9333333333333333,0.45,1,7273.617,1
0,444,target,"[(1158, 897)]",[],[1],[],horizontal,"(890.0, 762.0)",,"('cti', 1.468)",0,7281.552,0
0,445,target,"[(1153, 859)]",[],[1],[0.6],vertical,"(890.0, 762.0)",1.0333333333333332,0.56,1,7287.256,1
0,446,target,"[(1148, 959), (1163, 880)]",[],"[0, 1]",[0.5666666666666667],horizontal,"(890.0, 262.0)",0.75,0.529,1,7293.291,1
0,447,target,"[(1163, 888)]",[],[1],[0.5333333333333333],horizontal,"(390.0, 762.0)",0.6,0.492,1,7301.906,1
0,448,target,"[(1163, 910)]",[],[1],[0.6166666666666667],vertical,"(390.0, 762.0)",1.0333333333333332,0.577,1,7308.203,2
0,449,target,"[(1163, 880)]",[],[1],[0.06666666666666667],vertical,"(390.0, 762.0)",1.3666666666666667,0.036,0,7315.492,0
0,450,target,"[(1146, 975), (1163, 878)]",[],"[0, 1]",[0.6166666666666667],vertical,"(890.0, 762.0)",0.7333333333333333,0.577,1,7320.57,1
0,451,target,"[(1158, 890)]",[],[1],[0.5333333333333333],vertical,"(890.0, 762.0)",1.0333333333333332,0.492,1,7327.414,1
0,452,target,"[(1163, 916)]",[],[1],[0.5333333333333333],vertical,"(390.0, 262.0)",1.0166666666666666,0.499,1,7366.703,1
0,453,target,"[(1163, 869)]",[],[1],[0.48333333333333334],horizontal,"(890.0, 262.0)",1.5166666666666666,0.445,1,7372.42,2
0,454,target,"[(1163, 914)]",[],[1],[0.5],vertical,"(390.0, 262.0)",1.35,0.46,1,7381.855,1
0,455,target,"[(1158, 924)]",[],[1],[0.7333333333333333],vertical,"(390.0, 762.0)",0.7333333333333333,0.688,1,7388.505,1
0,456,target,"[(1137, 992), (1163, 894)]",[],"[0, 1]",[0.5166666666666666],vertical,"(390.0, 262.0)",0.85,0.473,1,7395.209,1
0,457,target,"[(1163, 911)]",[],[1],[0.6166666666666667],vertical,"(890.0, 762.0)",0.8666666666666667,0.576,1,7402.865,3
0,458,target,"[(1163, 895)]",[],[1],[],vertical,"(390.0, 262.0)",,"('fix', 0.419)",0,7411.07,0
0,459,target,"[(1140, 889)]",[],[1],[],vertical,"(890.0, 262.0)",,"('fix', 0.067)",0,7417.304,0
0,460,target,"[(1129, 905)]",[],[1],[],vertical,"(390.0, 262.0)",,"('fix', 0.134)",0,7425.461,0
0,461,target,"[(1163, 957), (1153, 925)]",[],"[0, 1]",[],vertical,"(390.0, 262.0)",,"('cti', 1.002)",0,7427.325,0
0,462,target,"[(1144, 921)]",[],[1],[0.3833333333333333],horizontal,"(890.0, 262.0)",1.4,0.348,1,7435.845,1
0,463,target,"[(1163, 914)]",[],[1],[],horizontal,"(890.0, 262.0)",,"('fix', 0.439)",0,7441.883,0
0,464,target,"[(1163, 887)]",[],[1],[0.5333333333333333],horizontal,"(890.0, 762.0)",1.0833333333333333,0.493,1,7445.205,1
0,465,target,"[(1163, 890)]",[],[1],[0.5166666666666666],horizontal,"(890.0, 762.0)",1.2333333333333334,0.479,1,7453.787,1
0,466,target,"[(1158, 898)]",[],[1],[],vertical,"(390.0, 262.0)",,"('cti', 1.265)",0,7460.72,0
0,467,target,"[(1082, 941)]",[],[1],[],vertical,"(890.0, 762.0)",,"('fix', 0.15)",0,7465.77,0
0,468,target,"[(1128, 992), (1047, 914)]","[(1047, 914)]","[0, 1]",[0.016666666666666666],vertical,"(390.0, 762.0)",,"('bar', 0.036)",0,7469.437,0
0,469,target,"[(1163, 902)]",[],[1],[0.5166666666666666],vertical,"(890.0, 262.0)",1.0666666666666667,0.479,1,7472.878,1
0,470,target,"[(1133, 992), (1128, 886)]",[],"[0, 1]",[],vertical,"(890.0, 262.0)",,"('cti', 0.064)",0,7480.038,0
0,471,catch,"[(1163, 946), (1163, 874)]",[],"[0, 1]",[],vertical,"(890.0, 262.0)",,"('fix', 0.214),nan",0,7485.288,0
0,472,target,"[(1150, 872)]",[],[1],[0.06666666666666667],vertical,"(390.0, 262.0)",1.5166666666666666,0.035,0,8787.389,0
0,473,target,"[(1048, 911)]","[(1048, 911)]",[1],[0.5666666666666667],vertical,"(390.0, 762.0)",,"('bar', 0.575)",0,8793.52,0
0,474,catch,"[(1163, 919)]",[],[1],[],vertical,"(890.0, 262.0)",1.1666666666666667,nan,1,8798.703,1
0,475,target,"[(1052, 886)]",[],[1],[],horizontal,"(890.0, 262.0)",,"('cti', 0.113)",0,8812.731,0
0,476,target,"[(1153, 939)]",[],[1],[0.6333333333333333],horizontal,"(390.0, 762.0)",0.6833333333333333,0.584,1,8816.699,1
0,477,target,"[(1153, 924)]",[],[1],[0.85],vertical,"(390.0, 262.0)",1.3166666666666667,nan,0,8836.765,0
0,478,target,"[(1136, 887)]",[],[1],[0.85],vertical,"(890.0, 262.0)",1.15,nan,0,8843.573,0
0,479,target,"[(1147, 895)]",[],[1],[0.85],horizontal,"(890.0, 762.0)",0.8166666666666667,nan,0,8848.971,0
0,480,target,"[(1163, 881)]",[],[1],[0.5333333333333333],horizontal,"(390.0, 762.0)",1.4,0.491,1,8854.048,1
0,481,target,"[(1063, 867)]",[],[1],[0.55],horizontal,"(890.0, 762.0)",1.1666666666666667,0.511,1,8860.048,1
0,482,target,"[(1163, 899)]",[],[1],[0.5666666666666667],vertical,"(890.0, 262.0)",0.55,0.526,1,8865.752,1
0,483,target,"[(1162, 890)]",[],[1],[0.31666666666666665],vertical,"(890.0, 262.0)",1.6833333333333333,0.278,1,8871.563,2
0,484,target,"[(1163, 936)]",[],[1],[],horizontal,"(390.0, 762.0)",,"('cti', 0.145)",0,8877.763,0
0,485,catch,"[(1103, 864)]",[],[1],[],vertical,"(890.0, 762.0)",,"('cti', 1.311),nan",0,8884.468,0
0,486,target,"[(1163, 890)]",[],[1],[0.5833333333333334],vertical,"(890.0, 762.0)",1.5166666666666666,0.536,1,8891.815,1
0,487,target,"[(1153, 932)]",[],[1],[0.5166666666666666],horizontal,"(390.0, 262.0)",1.1666666666666667,0.478,1,8897.909,1
0,488,target,"[(1158, 921)]",[],[1],[0.5],vertical,"(390.0, 262.0)",1.1833333333333333,0.463,1,8912.357,1
0,489,target,"[(1163, 915)]",[],[1],[0.7],vertical,"(890.0, 262.0)",0.6166666666666667,0.658,1,8930.539,2
0,490,target,"[(1153, 925)]",[],[1],[0.48333333333333334],horizontal,"(390.0, 262.0)",0.9166666666666666,0.446,1,8936.283,1
0,491,target,"[(1137, 842)]",[],[1],[0.5666666666666667],vertical,"(390.0, 262.0)",0.7333333333333333,0.523,1,8943.98,1
0,492,catch,"[(1133, 848)]",[],[1],[],vertical,"(890.0, 762.0)",,"('fix', 0.463),nan",0,8949.392,0
0,493,catch,"[(1163, 902)]",[],[1],[],vertical,"(890.0, 262.0)",1.55,nan,1,8953.919,1
0,494,target,"[(1154, 905)]",[],[1],[0.85],vertical,"(390.0, 762.0)",0.65,nan,0,8965.564,0
0,495,target,"[(1163, 909)]",[],[1],[],horizontal,"(890.0, 762.0)",,"('fix', 0.146)",0,8971.122,0
0,496,target,"[(1142, 870)]",[],[1],[],horizontal,"(390.0, 762.0)",,"('cti', 1.073)",0,8973.481,0
0,497,target,"[(1163, 912)]",[],[1],[0.18333333333333332],horizontal,"(390.0, 262.0)",1.2166666666666666,0.147,0,8982.664,0
0,498,target,"[(1163, 913)]",[],[1],[0.3833333333333333],horizontal,"(390.0, 762.0)",1.45,0.344,1,8988.564,1
0,499,target,"[(1088, 899)]",[],[1],[],vertical,"(390.0, 262.0)",,"('fix', 0.246)",0,8994.497,0
0,500,target,"[(1163, 901)]",[],[1],[0.5666666666666667],vertical,"(390.0, 262.0)",1.3166666666666667,0.523,1,8997.08,1
0,501,target,"[(1073, 920)]",[],[1],[0.5],vertical,"(890.0, 762.0)",1.25,0.455,1,9002.242,1
0,502,target,"[(1163, 901)]",[],[1],[0.65],vertical,"(390.0, 262.0)",1.0833333333333333,0.603,1,9022.18,1
0,503,target,"[(1163, 916)]",[],[1],[0.5],vertical,"(890.0, 762.0)",1.1333333333333333,0.459,1,9027.187,2
0,504,target,"[(1163, 911)]",[],[1],[0.55],horizontal,"(890.0, 262.0)",0.95,0.505,1,9032.92,1
0,505,target,"[(1163, 908)]",[],[1],[0.6333333333333333],vertical,"(890.0, 262.0)",0.7333333333333333,0.596,1,9038.102,1
0,506,target,"[(1153, 848)]",[],[1],[],vertical,"(390.0, 262.0)",,"('fix', 0.051)",0,9043.794,0
0,507,target,"[(1163, 918)]",[],[1],[0.5666666666666667],horizontal,"(890.0, 762.0)",1.65,0.52,1,9046.653,1
0,508,target,"[(1163, 899)]",[],[1],[0.08333333333333333],vertical,"(390.0, 262.0)",1.1333333333333333,0.05,0,9052.197,0
0,509,target,"[(1163, 867)]",[],[1],[0.2],vertical,"(890.0, 762.0)",1.45,0.167,1,9058.199,1
0,510,target,"[(1143, 878)]",[],[1],[0.85],horizontal,"(390.0, 262.0)",0.5833333333333334,nan,0,9065.438,0
0,511,target,"[(1163, 887)]",[],[1],[],horizontal,"(890.0, 762.0)",,"('fix', 0.345)",0,9070.458,0
0,512,target,"[(1081, 925)]","[(1081, 925)]",[1],[0.55],vertical,"(390.0, 762.0)",,"('bar', 0.559)",0,9073.488,0
0,513,target,"[(1163, 891)]",[],[1],[0.55],horizontal,"(890.0, 762.0)",1.1833333333333333,0.506,1,9081.455,1
0,514,target,"[(1134, 858)]",[],[1],[],vertical,"(390.0, 762.0)",,"('cti', 1.077)",0,9086.832,0
0,515,target,"[(1163, 897)]",[],[1],[0.5166666666666666],vertical,"(390.0, 262.0)",1.2833333333333332,0.475,1,9092.933,1
0,516,target,"[(1148, 986), (1132, 953), (1039, 960), (1064, 996), (1163, 891)]",[],"[0, 0, 0, 0, 1]",[0.85],horizontal,"(890.0, 262.0)",1.2,nan,0,9100.449,0
0,517,target,"[(1163, 895)]",[],[1],[0.5333333333333333],horizontal,"(390.0, 762.0)",1.0,0.494,1,9109.916,1
0,518,catch,"[(1163, 903)]",[],[1],[],vertical,"(890.0, 762.0)",1.4666666666666666,nan,1,9115.844,1
0,519,target,"[(1163, 898)]",[],[1],[0.5],vertical,"(890.0, 262.0)",1.2166666666666666,0.462,1,9122.433,1
0,520,target,"[(1163, 881)]",[],[1],[],horizontal,"(390.0, 762.0)",,"('cti', 1.113)",0,9128.927,0
0,521,target,"[(1163, 866)]",[],[1],[],vertical,"(390.0, 762.0)",,"('cti', 1.48)",0,9135.349,0
0,522,target,"[(1158, 924)]",[],[1],[0.5666666666666667],vertical,"(390.0, 262.0)",1.5833333333333333,0.523,1,9140.863,1
0,523,target,"[(1163, 933)]",[],[1],[0.5],vertical,"(890.0, 762.0)",1.1833333333333333,0.456,1,9149.565,1
0,524,target,"[(1128, 838)]",[],[1],[0.5833333333333334],vertical,"(390.0, 262.0)",1.5833333333333333,0.541,1,9156.248,1
0,525,target,"[(1163, 893)]",[],[1],[0.5666666666666667],horizontal,"(890.0, 762.0)",0.55,0.527,1,9163.065,2
0,526,target,"[(1163, 899)]",[],[1],[0.5666666666666667],horizontal,"(890.0, 762.0)",0.55,0.524,1,9169.658,1
0,527,target,"[(1162, 911)]",[],[1],[0.6],vertical,"(390.0, 762.0)",1.1,0.557,1,9175.47,1
0,528,target,"[(1163, 855)]",[],[1],[0.5666666666666667],vertical,"(890.0, 762.0)",1.1333333333333333,0.521,1,9182.133,1
0,529,target,"[(1163, 867)]",[],[1],[0.5333333333333333],horizontal,"(890.0, 262.0)",1.2166666666666666,0.491,1,9188.199,3
0,530,target,"[(1163, 885)]",[],[1],[0.6333333333333333],horizontal,"(390.0, 762.0)",1.0,0.589,1,9194.3,1
0,531,target,"[(1163, 888)]",[],[1],[0.5333333333333333],horizontal,"(890.0, 262.0)",0.5666666666666667,0.492,1,9202.099,1
0,532,target,"[(1154, 893)]",[],[1],[0.55],vertical,"(390.0, 262.0)",0.9,0.504,1,9209.049,1
0,533,target,"[(1163, 905)]",[],[1],[0.3333333333333333],horizontal,"(390.0, 762.0)",1.6,0.295,1,9215.514,2
0,534,catch,"[(1134, 987), (1143, 965), (1130, 885)]",[],"[0, 0, 1]",[],vertical,"(890.0, 762.0)",1.5,nan,1,9222.149,1
0,535,target,"[(1134, 980), (1149, 884)]",[],"[0, 1]",[0.6666666666666666],vertical,"(390.0, 762.0)",1.0333333333333332,0.62,1,9232.55,1
0,536,target,"[(1137, 970), (1158, 903)]",[],"[0, 1]",[0.5166666666666666],vertical,"(890.0, 762.0)",0.8666666666666667,0.473,1,9239.222,1
0,537,target,"[(1163, 898)]",[],[1],[0.5],vertical,"(890.0, 262.0)",1.2333333333333334,0.46,1,9247.6,3
0,538,target,"[(1163, 892)]",[],[1],[0.55],horizontal,"(890.0, 262.0)",0.8333333333333334,0.508,1,9254.431,1
0,539,target,"[(1163, 886)]",[],[1],[0.26666666666666666],horizontal,"(390.0, 262.0)",1.55,0.227,1,9260.368,1
0,540,target,"[(1163, 964), (1148, 881)]",[],"[0, 1]",[],horizontal,"(890.0, 762.0)",,"('cti', 0.117)",0,9266.107,0
0,541,target,"[(1163, 889)]",[],[1],[0.6166666666666667],vertical,"(390.0, 762.0)",0.55,0.572,1,9271.379,1
0,542,target,"[(1163, 886)]",[],[1],[0.5833333333333334],horizontal,"(390.0, 762.0)",1.1,0.534,1,9277.022,1
0,543,target,"[(1162, 886)]",[],[1],[0.5333333333333333],vertical,"(390.0, 262.0)",0.6666666666666666,0.491,1,9283.583,1
0,544,target,"[(1134, 986), (1162, 910)]",[],"[0, 1]",[0.5333333333333333],vertical,"(390.0, 262.0)",0.7333333333333333,0.501,1,9288.834,2
0,545,catch,"[(1163, 884)]",[],[1],[],vertical,"(390.0, 762.0)",1.6166666666666667,nan,1,9297.767,1
0,546,target,"[(1163, 893)]",[],[1],[0.6333333333333333],vertical,"(390.0, 762.0)",0.5666666666666667,0.587,1,9311.534,1
0,547,target,"[(1163, 915)]",[],[1],[0.5166666666666666],horizontal,"(390.0, 262.0)",0.9833333333333333,0.472,1,9317.065,1
0,548,target,"[(1133, 980), (1163, 899)]",[],"[0, 1]",[0.5833333333333334],vertical,"(390.0, 762.0)",0.9833333333333333,0.532,1,9322.966,3
0,549,target,"[(1151, 981), (1148, 892)]",[],"[0, 1]",[0.2],vertical,"(890.0, 762.0)",1.45,0.163,1,9330.307,1
0,550,target,"[(1133, 958), (1162, 907)]",[],"[0, 1]",[0.5333333333333333],horizontal,"(390.0, 762.0)",1.1666666666666667,0.49,1,9338.195,1
0,551,target,"[(1141, 970), (1163, 894)]",[],"[0, 1]",[0.3833333333333333],horizontal,"(390.0, 762.0)",1.4833333333333334,0.337,1,9345.372,1
0,552,target,"[(1146, 884)]",[],[1],[0.5333333333333333],vertical,"(390.0, 262.0)",0.6166666666666667,0.493,1,9351.684,2
0,553,target,"[(1163, 901)]",[],[1],[0.5666666666666667],vertical,"(890.0, 262.0)",0.8833333333333333,0.525,1,9357.142,1
0,554,target,"[(1163, 893)]",[],[1],[0.65],vertical,"(390.0, 262.0)",0.9833333333333333,0.605,1,9363.034,1
0,555,target,"[(1163, 909)]",[],[1],[0.3833333333333333],horizontal,"(390.0, 262.0)",1.45,0.347,1,9369.313,1
0,556,target,"[(1163, 896)]",[],[1],[0.85],horizontal,"(390.0, 762.0)",1.1333333333333333,nan,0,9376.433,0
0,557,target,"[(1128, 898)]",[],[1],[0.48333333333333334],horizontal,"(390.0, 762.0)",1.55,0.444,1,9382.933,1
0,558,target,"[(1163, 892)]",[],[1],[0.48333333333333334],horizontal,"(890.0, 262.0)",1.2666666666666666,0.44,1,9392.777,1
0,559,target,"[(1163, 884)]",[],[1],[0.48333333333333334],vertical,"(890.0, 762.0)",1.3,0.441,1,9399.758,1
0,560,catch,"[(1163, 903)]",[],[1],[],vertical,"(390.0, 762.0)",1.6666666666666667,nan,1,9406.16,2
0,561,target,"[(1163, 891)]",[],[1],[0.25],vertical,"(890.0, 762.0)",1.3333333333333333,0.22,1,9413.241,1
0,562,target,"[(1163, 872)]",[],[1],[0.4666666666666667],horizontal,"(890.0, 262.0)",1.5833333333333333,0.427,1,9419.228,1
0,563,target,"[(1163, 905)]",[],[1],[0.7166666666666667],vertical,"(890.0, 762.0)",0.85,0.674,1,9426.268,1
0,564,catch,"[(1163, 886)]",[],[1],[],horizontal,"(390.0, 262.0)",1.1666666666666667,nan,1,9431.95,3
0,565,target,"[(1153, 892)]",[],[1],[0.85],horizontal,"(390.0, 262.0)",1.15,nan,0,9438.114,0
0,566,catch,"[(1128, 986), (1162, 903)]",[],"[0, 1]",[],vertical,"(390.0, 262.0)",1.25,nan,1,9444.384,1
0,567,target,"[(1163, 903)]",[],[1],[0.5],horizontal,"(390.0, 762.0)",1.2,0.456,1,9449.916,1
0,568,catch,"[(1133, 975), (1152, 903)]",[],"[0, 1]",[],vertical,"(890.0, 262.0)",1.55,nan,1,9456.21,1
0,569,target,"[(1163, 881)]",[],[1],[0.5],horizontal,"(390.0, 262.0)",0.8666666666666667,0.456,1,9463.971,2
0,570,target,"[(1162, 860)]",[],[1],[0.35],vertical,"(390.0, 762.0)",1.1833333333333333,0.311,1,9470.351,1
0,571,target,"[(1163, 889)]",[],[1],[0.23333333333333334],vertical,"(890.0, 762.0)",1.3166666666666667,0.204,1,9477.32,1
0,572,target,"[(1163, 899)]",[],[1],[0.3833333333333333],horizontal,"(890.0, 762.0)",1.55,0.343,1,9483.451,1
0,573,target,"[(1163, 886)]",[],[1],[0.31666666666666665],horizontal,"(390.0, 262.0)",1.65,0.282,1,9489.788,3
0,574,target,"[(1163, 903)]",[],[1],[0.15],horizontal,"(390.0, 262.0)",1.5166666666666666,0.12,0,9495.735,0
0,575,target,"[(672, 528), (1163, 930)]",[],"[0, 1]",[0.55],vertical,"(390.0, 262.0)",1.2,0.51,1,9510.854,1
0,576,target,"[(1158, 932)]",[],[1],[0.85],horizontal,"(890.0, 762.0)",0.5,nan,0,9516.762,0
0,577,target,"[(1163, 867)]",[],[1],[0.4],horizontal,"(890.0, 762.0)",1.1166666666666667,0.364,1,9523.819,1
0,578,target,"[(1163, 893)]",[],[1],[0.5],horizontal,"(890.0, 262.0)",0.5833333333333334,0.456,1,9529.184,1
0,579,catch,"[(1162, 907)]",[],[1],[],horizontal,"(390.0, 262.0)",1.15,nan,1,9534.001,1
0,580,target,"[(1128, 980), (1163, 912)]",[],"[0, 1]",[0.3333333333333333],vertical,"(390.0, 762.0)",1.3166666666666667,0.296,1,9540.389,2
0,581,target,"[(1163, 920)]",[],[1],[0.31666666666666665],horizontal,"(890.0, 762.0)",1.6166666666666667,0.281,1,9546.653,1
0,582,target,"[(1163, 881)]",[],[1],[0.85],vertical,"(390.0, 762.0)",0.5833333333333334,nan,0,9552.852,0
0,583,target,"[(1163, 898)]",[],[1],[0.5666666666666667],horizontal,"(390.0, 762.0)",0.7666666666666666,0.527,1,9557.269,1
0,584,target,"[(1128, 953), (1152, 885)]",[],"[0, 1]",[0.21666666666666667],horizontal,"(390.0, 762.0)",1.65,0.182,1,9562.59,1
0,585,target,"[(1138, 964), (1137, 964), (1163, 885)]",[],"[0, 0, 1]",[0.6333333333333333],horizontal,"(390.0, 762.0)",0.7833333333333333,0.585,1,9569.533,1
0,586,target,"[(1163, 880)]",[],[1],[0.48333333333333334],horizontal,"(890.0, 262.0)",0.8,0.447,1,9576.569,2
0,587,catch,"[(1154, 900)]",[],[1],[],vertical,"(890.0, 262.0)",,"('cti', 1.565),nan",0,9582.822,0
0,588,target,"[(1163, 895)]",[],[1],[0.5833333333333334],horizontal,"(390.0, 262.0)",0.6166666666666667,0.539,1,9589.252,1
0,589,target,"[(1163, 925)]",[],[1],[0.85],vertical,"(390.0, 262.0)",1.3,nan,0,9594.786,0
0,590,target,"[(1147, 900)]",[],[1],[0.16666666666666666],vertical,"(390.0, 762.0)",1.6333333333333333,0.133,0,9603.122,0
0,591,target,"[(1153, 864)]",[],[1],[],horizontal,"(390.0, 262.0)",,"('fix', 0.069)",0,9609.656,0
0,592,target,"[(1163, 892)]",[],[1],[0.4666666666666667],vertical,"(890.0, 762.0)",1.4333333333333333,0.425,1,9612.103,1
0,593,target,"[(1163, 890)]",[],[1],[0.55],vertical,"(390.0, 262.0)",1.0333333333333332,0.506,1,9618.986,1
0,594,target,"[(1163, 912)]",[],[1],[0.4666666666666667],horizontal,"(390.0, 262.0)",1.5333333333333332,0.436,1,9625.002,1
0,595,target,"[(1158, 903)]",[],[1],[0.55],vertical,"(390.0, 762.0)",1.3,0.506,1,9631.516,2
0,596,catch,"[(1153, 853)]",[],[1],[],horizontal,"(890.0, 762.0)",,"('cti', 0.116),nan",0,9644.585,0
0,597,target,"[(1128, 992), (1138, 898)]",[],"[0, 1]",[0.4666666666666667],vertical,"(890.0, 262.0)",1.5166666666666666,0.422,1,9648.961,1
0,598,target,"[(1158, 902)]",[],[1],[0.48333333333333334],horizontal,"(890.0, 762.0)",1.1166666666666667,0.443,1,9655.314,1
0,599,target,"[(1138, 909)]",[],[1],[],vertical,"(390.0, 262.0)",,"('fix', 0.284)",0,9660.719,0
0,600,target,"[(1163, 921)]",[],[1],[0.25],vertical,"(890.0, 762.0)",1.4666666666666666,0.219,1,9663.577,1
0,601,target,"[(1163, 860)]",[],[1],[0.5],horizontal,"(890.0, 762.0)",0.9833333333333333,0.456,1,9668.869,1
0,602,target,"[(1163, 910)]",[],[1],[0.5333333333333333],horizontal,"(390.0, 262.0)",1.0166666666666666,0.491,1,9673.553,1
0,603,target,"[(1138, 986), (1133, 919)]",[],"[0, 1]",[],vertical,"(390.0, 262.0)",,"('fix', 0.197)",0,9679.842,0
0,604,target,"[(1163, 890)]",[],[1],[0.55],horizontal,"(890.0, 762.0)",0.9666666666666667,0.513,1,9683.72,1
0,605,target,"[(1163, 888)]",[],[1],[0.4666666666666667],vertical,"(890.0, 262.0)",1.6833333333333333,0.429,1,9689.967,1
0,606,target,"[(1163, 882)]",[],[1],[0.36666666666666664],horizontal,"(890.0, 262.0)",1.2666666666666666,0.329,1,9696.369,1
0,607,target,"[(1163, 888)]",[],[1],[0.65],horizontal,"(890.0, 762.0)",0.7166666666666667,0.604,1,9702.336,2
0,608,target,"[(1163, 889)]",[],[1],[0.55],horizontal,"(390.0, 762.0)",0.65,0.504,1,9707.336,1
0,609,target,"[(1163, 890)]",[],[1],[],vertical,"(890.0, 762.0)",,"('fix', 0.2)",0,9712.702,0
0,610,target,"[(1132, 1002), (1163, 925)]",[],"[0, 1]",[0.5333333333333333],vertical,"(890.0, 762.0)",1.0,0.493,1,9716.22,1
0,611,target,"[(1163, 889)]",[],[1],[0.6666666666666666],horizontal,"(890.0, 762.0)",0.7333333333333333,0.623,1,9723.385,1
0,612,target,"[(1162, 908)]",[],[1],[0.5833333333333334],horizontal,"(390.0, 262.0)",0.5666666666666667,0.537,1,9728.552,1
0,613,target,"[(1163, 912)]",[],[1],[0.85],horizontal,"(890.0, 762.0)",0.65,nan,0,9734.319,0
0,614,target,"[(1163, 906)]",[],[1],[0.5],vertical,"(890.0, 762.0)",1.35,0.459,1,9739.77,1
0,615,catch,"[(1138, 986), (1163, 924)]",[],"[0, 1]",[],vertical,"(890.0, 262.0)",1.6833333333333333,nan,1,9744.705,1
0,616,target,"[(1163, 904)]",[],[1],[0.5],horizontal,"(390.0, 762.0)",1.2,0.463,1,9752.341,1
0,617,target,"[(1143, 986), (1163, 906)]",[],"[0, 1]",[0.4666666666666667],horizontal,"(890.0, 262.0)",0.7833333333333333,0.425,1,9758.887,2
0,618,target,"[(1163, 882)]",[],[1],[0.55],vertical,"(390.0, 762.0)",1.3666666666666667,0.505,1,9767.365,1
0,619,target,"[(1128, 970), (1163, 840)]",[],"[0, 1]",[0.48333333333333334],vertical,"(890.0, 262.0)",0.8166666666666667,0.444,1,9772.952,1
0,620,target,"[(1163, 892)]",[],[1],[0.36666666666666664],vertical,"(890.0, 762.0)",1.25,0.331,1,9779.478,1
0,621,target,"[(1163, 910)]",[],[1],[0.5333333333333333],vertical,"(890.0, 762.0)",1.1166666666666667,0.489,1,9785.407,3
0,622,target,"[(1163, 886)]",[],[1],[0.6166666666666667],horizontal,"(890.0, 262.0)",0.7,0.575,1,9793.187,1
0,623,target,"[(1163, 880)]",[],[1],[0.3333333333333333],vertical,"(890.0, 762.0)",1.5333333333333332,0.299,1,9799.586,1
0,624,target,"[(1158, 883)]",[],[1],[0.6833333333333333],horizontal,"(890.0, 762.0)",0.6833333333333333,0.637,1,9805.647,1
0,625,target,"[(1163, 880)]",[],[1],[0.5166666666666666],horizontal,"(390.0, 262.0)",1.2666666666666666,0.468,1,9812.347,2
0,626,target,"[(1153, 953), (1163, 935)]",[],"[0, 1]",[],vertical,"(890.0, 762.0)",,"('cti', 1.56)",0,9817.927,0
0,627,target,"[(1163, 911)]",[],[1],[0.26666666666666666],horizontal,"(390.0, 762.0)",1.4166666666666667,0.233,1,9825.321,1
0,628,target,"[(1163, 850)]",[],[1],[0.45],vertical,"(890.0, 762.0)",1.2666666666666666,0.41,1,9829.971,1
0,629,target,"[(1163, 880)]",[],[1],[0.5333333333333333],horizontal,"(390.0, 762.0)",0.75,0.491,1,9836.492,1
0,630,target,"[(1163, 874)]",[],[1],[0.5333333333333333],vertical,"(390.0, 762.0)",1.1333333333333333,0.489,1,9842.837,2
0,631,target,"[(1143, 881)]",[],[1],[0.85],horizontal,"(890.0, 762.0)",1.4666666666666666,nan,0,9848.835,0
0,632,target,"[(1133, 986), (1158, 901)]",[],"[0, 1]",[0.5],horizontal,"(890.0, 762.0)",1.2666666666666666,0.459,1,9855.505,1
0,633,target,"[(1163, 904)]",[],[1],[0.5166666666666666],horizontal,"(890.0, 762.0)",1.4666666666666666,0.475,1,9862.987,1
0,634,target,"[(1163, 891)]",[],[1],[],horizontal,"(390.0, 262.0)",,"('fix', 0.217)",0,9868.85,0
0,635,target,"[(1163, 927)]",[],[1],[0.6],horizontal,"(890.0, 262.0)",1.2166666666666666,0.554,1,9872.142,1
0,636,target,"[(1143, 894)]",[],[1],[0.85],vertical,"(890.0, 262.0)",0.5,nan,0,9878.536,0
0,637,target,"[(1163, 898)]",[],[1],[0.5333333333333333],horizontal,"(390.0, 262.0)",1.4833333333333334,0.489,1,9884.797,1
0,638,target,"[(1163, 900)]",[],[1],[0.5166666666666666],horizontal,"(390.0, 762.0)",1.1333333333333333,0.482,1,9891.448,1
0,639,target,"[(1133, 885)]",[],[1],[0.85],vertical,"(890.0, 262.0)",1.2,nan,0,9897.875,0
0,640,target,"[(1148, 980), (1162, 905)]",[],"[0, 1]",[0.55],horizontal,"(890.0, 262.0)",0.6666666666666666,0.505,1,9904.656,1
0,641,target,"[(1163, 872)]",[],[1],[0.5166666666666666],vertical,"(390.0, 262.0)",1.2166666666666666,0.476,1,9910.687,1
0,642,target,"[(1163, 903)]",[],[1],[0.5333333333333333],horizontal,"(890.0, 762.0)",1.5166666666666666,0.491,1,9915.517,1
0,643,target,"[(1133, 958), (1153, 881)]",[],"[0, 1]",[0.5333333333333333],horizontal,"(390.0, 762.0)",0.8833333333333333,0.49,1,9922.192,2
0,644,target,"[(1153, 892)]",[],[1],[0.85],vertical,"(390.0, 762.0)",1.0833333333333333,nan,0,9929.07,0
0,645,target,"[(1163, 884)]",[],[1],[0.65],vertical,"(390.0, 262.0)",1.0166666666666666,0.605,1,9935.439,1
0,646,target,"[(1163, 893)]",[],[1],[0.5],vertical,"(890.0, 262.0)",1.0,0.459,1,9941.838,1
0,647,target,"[(1163, 883)]",[],[1],[0.48333333333333334],horizontal,"(390.0, 262.0)",0.95,0.443,1,9948.297,1
0,648,target,"[(1163, 904)]",[],[1],[0.3333333333333333],horizontal,"(390.0, 262.0)",1.3333333333333333,0.295,1,9953.355,2
0,649,target,"[(1163, 884)]",[],[1],[0.48333333333333334],vertical,"(890.0, 262.0)",1.2166666666666666,0.445,1,9959.555,1
0,650,target,"[(1163, 889)]",[],[1],[0.6333333333333333],vertical,"(390.0, 762.0)",1.05,0.585,1,9964.24,1
0,651,target,"[(1163, 901)]",[],[1],[0.18333333333333332],vertical,"(890.0, 262.0)",1.6333333333333333,0.151,1,9969.988,1
0,652,catch,"[(1163, 890)]",[],[1],[],horizontal,"(890.0, 262.0)",1.4166666666666667,nan,1,9976.492,3
0,653,target,"[(1163, 914)]",[],[1],[0.7666666666666666],vertical,"(890.0, 762.0)",0.8833333333333333,0.72,1,9983.305,1
0,654,target,"[(1163, 914)]","[(1156, 935)]",[1],[0.65],vertical,"(890.0, 762.0)",,"('bar', 0.663)",0,9989.283,0
0,655,target,"[(1143, 843)]",[],[1],[],horizontal,"(390.0, 762.0)",,"('fix', 0.263)",0,9994.034,0
0,656,target,"[(1163, 907)]",[],[1],[],horizontal,"(890.0, 762.0)",,"('fix', 0.216)",0,9997.343,0
0,657,catch,"[(1158, 953), (1158, 917)]",[],"[0, 1]",[],horizontal,"(390.0, 262.0)",1.2166666666666666,nan,1,9999.804,1
0,658,target,"[(1163, 902)]",[],[1],[0.5],horizontal,"(390.0, 762.0)",0.95,0.455,1,10010.357,1
0,659,target,"[(1163, 932)]",[],[1],[],vertical,"(890.0, 262.0)",,"('fix', 0.263)",0,10016.071,0
0,660,target,"[(1163, 890)]",[],[1],[0.45],horizontal,"(890.0, 262.0)",0.6166666666666667,0.411,1,10019.82,1
0,661,target,"[(1163, 909)]",[],[1],[0.5],horizontal,"(890.0, 262.0)",0.6666666666666666,0.459,1,10026.039,1
0,662,target,"[(1163, 899)]",[],[1],[0.85],horizontal,"(890.0, 762.0)",1.6166666666666667,"('cti', 1.597),nan",0,10031.113,0
0,663,catch,"[(1163, 893)]",[],[1],[],vertical,"(390.0, 762.0)",1.6333333333333333,nan,1,10037.621,1
0,664,target,"[(1138, 980), (1149, 892)]",[],"[0, 1]",[0.5833333333333334],vertical,"(890.0, 262.0)",1.1666666666666667,0.558,1,10044.538,1
0,665,target,"[(1163, 904)]",[],[1],[0.45],horizontal,"(390.0, 262.0)",1.4,0.411,1,10051.584,1
0,666,target,"[(1163, 882)]",[],[1],[0.48333333333333334],vertical,"(390.0, 262.0)",1.1,0.442,1,10057.356,2
0,667,target,"[(1163, 918)]",[],[1],[0.48333333333333334],vertical,"(890.0, 762.0)",1.35,0.444,1,10063.181,1
0,668,target,"[(1163, 914)]",[],[1],[0.36666666666666664],horizontal,"(390.0, 262.0)",1.4833333333333334,0.329,1,10070.014,1
0,669,target,"[(1163, 880)]",[],[1],[0.55],horizontal,"(890.0, 262.0)",1.3666666666666667,0.509,1,10076.618,1
0,670,target,"[(1158, 898)]",[],[1],[0.5166666666666666],vertical,"(890.0, 262.0)",1.2833333333333332,0.481,1,10082.522,3
0,671,target,"[(1163, 912)]",[],[1],[0.5333333333333333],vertical,"(890.0, 262.0)",1.3833333333333333,0.495,1,10090.455,1
0,672,target,"[(1158, 892)]",[],[1],[0.5833333333333334],horizontal,"(390.0, 762.0)",0.6333333333333333,0.542,1,10096.026,1
0,673,target,"[(1163, 914)]",[],[1],[],vertical,"(890.0, 762.0)",,"('fix', 0.332)",0,10101.786,0
0,674,target,"[(1158, 924)]",[],[1],[0.5333333333333333],vertical,"(390.0, 262.0)",1.1666666666666667,0.499,1,10104.422,1
0,675,target,"[(1163, 911)]",[],[1],[],vertical,"(390.0, 262.0)",,"('fix', 0.152)",0,10109.603,0
0,676,target,"[(1158, 932)]",[],[1],[0.6333333333333333],vertical,"(890.0, 762.0)",0.55,0.585,1,10111.888,1
0,677,catch,"[(1154, 910)]",[],[1],[],vertical,"(890.0, 262.0)",1.5666666666666667,nan,1,10116.163,1
0,678,catch,"[(1163, 903)]",[],[1],[],vertical,"(890.0, 262.0)",1.3166666666666667,nan,1,10122.432,1
0,679,target,"[(1143, 915)]",[],[1],[0.48333333333333334],horizontal,"(390.0, 262.0)",1.3833333333333333,0.445,1,10127.828,2
0,680,target,"[(1163, 885)]",[],[1],[0.25],vertical,"(390.0, 762.0)",1.65,0.215,1,10135.787,1
0,681,catch,"[(1163, 887)]",[],[1],[],vertical,"(890.0, 762.0)",1.5333333333333332,nan,1,10142.405,1
0,682,target,"[(1163, 889)]",[],[1],[0.85],horizontal,"(390.0, 262.0)",0.5333333333333333,nan,0,10148.823,0
0,683,target,"[(1163, 890)]",[],[1],[0.48333333333333334],horizontal,"(890.0, 262.0)",0.95,0.444,1,10153.229,1
0,684,target,"[(1163, 898)]",[],[1],[0.13333333333333333],vertical,"(390.0, 762.0)",1.45,0.102,0,10158.092,0
0,685,target,"[(1163, 861)]",[],[1],[0.5166666666666666],horizontal,"(890.0, 262.0)",1.0666666666666667,0.475,1,10163.125,1
0,686,target,"[(1163, 891)]",[],[1],[0.05],horizontal,"(890.0, 262.0)",1.6666666666666667,0.019,0,10169.787,0
0,687,target,"[(1145, 848)]","[(1141, 871)]",[1],[0.75],vertical,"(390.0, 262.0)",,"('bar', 0.767)",0,10175.237,0
0,688,target,"[(837, 564), (832, 575), (994, 570), (1163, 959), (1163, 951), (1163, 926)]",[],"[0, 0, 0, 0, 0, 1]",[0.5],horizontal,"(390.0, 262.0)",1.3333333333333333,0.464,1,10180.189,1
0,689,target,"[(1163, 910)]",[],[1],[0.36666666666666664],horizontal,"(890.0, 262.0)",1.2166666666666666,0.332,1,11980.151,1
0,690,target,"[(1163, 921)]",[],[1],[0.4],horizontal,"(390.0, 262.0)",1.2333333333333334,0.36,1,11985.428,1
0,691,target,"[(1163, 924)]",[],[1],[0.1],horizontal,"(390.0, 262.0)",1.5,0.065,0,11992.151,0
0,692,target,"[(1163, 929)]",[],[1],[0.4666666666666667],vertical,"(890.0, 262.0)",0.6166666666666667,0.426,1,11997.163,1
0,693,target,"[(1163, 887)]",[],[1],[0.5666666666666667],vertical,"(890.0, 762.0)",0.95,0.526,1,12004.599,1
0,694,target,"[(1158, 887)]",[],[1],[0.43333333333333335],horizontal,"(390.0, 762.0)",0.95,0.397,1,12010.422,1
0,695,target,"[(1163, 907)]",[],[1],[0.5],horizontal,"(890.0, 262.0)",0.9333333333333333,0.464,1,12015.411,2
0,696,target,"[(1158, 885)]",[],[1],[0.5333333333333333],vertical,"(390.0, 762.0)",1.0666666666666667,0.491,1,12020.869,1
0,697,target,"[(1142, 967), (1158, 935)]",[],"[0, 1]",[0.5],horizontal,"(390.0, 262.0)",0.7333333333333333,0.462,1,12026.467,1
0,698,target,"[(1158, 902)]",[],[1],[0.55],vertical,"(890.0, 762.0)",0.95,0.505,1,12082.386,1
0,699,target,"[(1163, 900)]",[],[1],[0.4666666666666667],vertical,"(390.0, 262.0)",1.2333333333333334,0.435,1,12088.135,3
0,700,target,"[(1163, 898)]",[],[1],[0.5],vertical,"(890.0, 762.0)",1.25,0.462,1,12094.737,1
0,701,target,"[(1163, 914)]",[],[1],[0.5166666666666666],vertical,"(390.0, 262.0)",0.55,0.484,1,12100.246,1
0,702,target,"[(1163, 918)]",[],[1],[0.45],vertical,"(390.0, 762.0)",1.2833333333333332,0.412,1,12106.156,1
0,703,target,"[(1163, 918)]",[],[1],[0.3],horizontal,"(890.0, 762.0)",1.45,0.264,1,12111.886,2
0,704,target,"[(1153, 916)]",[],[1],[0.85],vertical,"(390.0, 762.0)",0.5,nan,0,12118.56,0
0,705,target,"[(1163, 877)]",[],[1],[0.5833333333333334],horizontal,"(390.0, 262.0)",1.1333333333333333,0.544,1,12123.476,1
0,706,target,"[(1100, 886)]",[],[1],[],horizontal,"(890.0, 262.0)",,"('fix', 0.28)",0,12128.952,0
0,707,target,"[(1124, 932)]",[],[1],[0.6166666666666667],vertical,"(890.0, 262.0)",0.8666666666666667,0.578,1,12131.335,1
0,708,target,"[(1158, 907)]",[],[1],[0.26666666666666666],horizontal,"(890.0, 762.0)",1.5333333333333332,0.236,1,12136.686,1
0,709,target,"[(1163, 903)]",[],[1],[0.5333333333333333],horizontal,"(390.0, 262.0)",1.65,0.5,1,12142.106,1
0,710,target,"[(1163, 878)]",[],[1],[0.6],vertical,"(890.0, 762.0)",1.1333333333333333,0.558,1,12148.803,2
0,711,target,"[(1158, 868)]",[],[1],[0.6166666666666667],horizontal,"(390.0, 262.0)",0.9833333333333333,0.572,1,12154.619,1
0,712,target,"[(1158, 891)]",[],[1],[0.4],vertical,"(390.0, 762.0)",1.4833333333333334,0.362,1,12159.491,1
0,713,target,"[(1153, 880)]",[],[1],[0.55],horizontal,"(390.0, 262.0)",0.5666666666666667,0.51,1,12165.868,1
0,714,target,"[(1163, 887)]",[],[1],[0.4666666666666667],horizontal,"(390.0, 262.0)",1.2666666666666666,0.421,1,12171.163,3
0,715,target,"[(1163, 921)]",[],[1],[0.25],vertical,"(890.0, 762.0)",1.6666666666666667,0.221,1,12177.205,1
0,716,target,"[(1163, 885)]",[],[1],[0.13333333333333333],horizontal,"(390.0, 262.0)",1.65,0.101,0,12182.734,0
0,717,target,"[(1158, 912)]",[],[1],[0.5833333333333334],horizontal,"(390.0, 262.0)",1.4166666666666667,0.539,1,12187.519,1
0,718,target,"[(1163, 880)]",[],[1],[0.6],vertical,"(390.0, 762.0)",1.0333333333333332,0.556,1,12193.78,1
0,719,target,"[(1163, 893)]",[],[1],[0.5166666666666666],horizontal,"(890.0, 762.0)",0.8166666666666667,0.474,1,12198.535,1
0,720,target,"[(1163, 881)]",[],[1],[0.2833333333333333],horizontal,"(890.0, 262.0)",1.5,0.247,1,12203.615,2
0,721,target,"[(1153, 909)]",[],[1],[0.4],horizontal,"(890.0, 262.0)",1.5833333333333333,0.361,1,12209.496,1
0,722,target,"[(1153, 916)]",[],[1],[0.5333333333333333],horizontal,"(390.0, 762.0)",1.1166666666666667,0.497,1,12215.252,1
0,723,target,"[(1158, 891)]",[],[1],[0.5666666666666667],horizontal,"(890.0, 762.0)",0.6166666666666667,0.526,1,12220.586,1
0,724,target,"[(1163, 900)]",[],[1],[0.7833333333333333],vertical,"(890.0, 262.0)",0.5,0.737,1,12225.219,3
0,725,target,"[(1153, 885)]",[],[1],[0.55],horizontal,"(390.0, 262.0)",0.65,0.509,1,12232.494,1
0,726,target,"[(1139, 898)]",[],[1],[0.48333333333333334],horizontal,"(390.0, 262.0)",0.8666666666666667,0.44,1,12237.668,1
0,727,target,"[(1163, 886)]",[],[1],[0.23333333333333334],vertical,"(390.0, 262.0)",1.5833333333333333,0.198,1,12243.595,1
0,728,target,"[(1153, 873)]",[],[1],[0.5666666666666667],vertical,"(390.0, 762.0)",1.3833333333333333,0.52,1,12249.202,2
0,729,target,"[(1158, 904)]",[],[1],[0.25],horizontal,"(890.0, 762.0)",1.6666666666666667,0.22,1,12254.679,1
0,730,target,"[(1163, 872)]",[],[1],[0.6333333333333333],vertical,"(390.0, 762.0)",0.7833333333333333,0.589,1,12260.104,1
0,731,target,"[(1158, 884)]",[],[1],[0.85],vertical,"(390.0, 762.0)",1.0,nan,0,12265.008,0
0,732,target,"[(1163, 913)]",[],[1],[0.5],vertical,"(890.0, 262.0)",0.7166666666666667,0.458,1,12269.829,1
0,733,target,"[(1148, 878)]",[],[1],[0.48333333333333334],horizontal,"(390.0, 262.0)",1.5666666666666667,0.444,1,12274.721,1
0,734,target,"[(1163, 872)]",[],[1],[0.5666666666666667],horizontal,"(890.0, 262.0)",0.5166666666666666,0.528,1,12280.545,1
0,735,target,"[(1153, 884)]",[],[1],[0.48333333333333334],horizontal,"(390.0, 262.0)",0.6833333333333333,0.446,1,12285.182,2
0,736,target,"[(1163, 919)]",[],[1],[0.65],horizontal,"(390.0, 762.0)",1.5166666666666666,0.607,1,12290.386,1
0,737,target,"[(1163, 935)]",[],[1],[0.31666666666666665],vertical,"(890.0, 262.0)",1.6,0.287,1,12296.219,1
0,738,target,"[(1158, 903)]",[],[1],[0.7],vertical,"(890.0, 262.0)",0.9833333333333333,0.667,1,12301.889,1
0,739,target,"[(1158, 891)]",[],[1],[0.6],horizontal,"(390.0, 762.0)",1.45,0.562,1,12306.909,3
0,740,target,"[(1163, 900)]",[],[1],[0.7],vertical,"(890.0, 262.0)",0.5166666666666666,0.662,1,12313.071,1
0,741,target,"[(1163, 876)]",[],[1],[0.6166666666666667],horizontal,"(890.0, 762.0)",0.6,0.579,1,12317.587,1
0,742,target,"[(1163, 867)]",[],[1],[0.4666666666666667],vertical,"(890.0, 262.0)",1.0666666666666667,0.43,1,12322.255,1
0,743,target,"[(1158, 880)]",[],[1],[0.6166666666666667],vertical,"(390.0, 762.0)",1.0,0.578,1,12327.562,2
0,744,target,"[(1163, 885)]",[],[1],[0.06666666666666667],vertical,"(890.0, 762.0)",1.6666666666666667,0.038,0,12332.646,0
0,745,target,"[(1158, 904)]",[],[1],[0.5666666666666667],vertical,"(890.0, 762.0)",0.5333333333333333,0.534,1,12337.662,1
0,746,target,"[(1163, 894)]",[],[1],[0.6166666666666667],vertical,"(390.0, 262.0)",0.95,0.585,1,12343.962,1
0,747,target,"[(1142, 851)]",[],[1],[0.15],horizontal,"(890.0, 262.0)",1.65,0.121,0,12348.811,0
0,748,target,"[(1163, 907)]",[],[1],[0.5],horizontal,"(390.0, 262.0)",1.4833333333333334,0.46,1,12354.137,1
0,749,target,"[(1163, 879)]",[],[1],[0.55],vertical,"(390.0, 262.0)",0.6666666666666666,0.513,1,12359.637,1
0,750,target,"[(1138, 980), (1163, 929)]",[],"[0, 1]",[0.5],horizontal,"(890.0, 262.0)",1.35,0.465,1,12364.937,1
0,751,target,"[(1163, 875)]",[],[1],[0.5333333333333333],vertical,"(890.0, 762.0)",0.65,0.493,1,12371.97,2
0,752,target,"[(1163, 910)]",[],[1],[0.5833333333333334],horizontal,"(890.0, 762.0)",1.1,0.544,1,12377.496,1
0,753,target,"[(1162, 913)]",[],[1],[0.5833333333333334],vertical,"(390.0, 262.0)",1.3666666666666667,0.543,1,12382.753,1
0,754,target,"[(1163, 890)]",[],[1],[0.55],horizontal,"(390.0, 762.0)",1.2166666666666666,0.508,1,12389.666,1
0,755,target,"[(1162, 866)]",[],[1],[0.5],vertical,"(390.0, 762.0)",1.2666666666666666,0.46,1,12395.005,3
0,756,target,"[(1163, 908)]",[],[1],[0.6333333333333333],vertical,"(890.0, 762.0)",0.8,0.594,1,12401.37,1
0,757,target,"[(1163, 856)]",[],[1],[0.85],vertical,"(890.0, 762.0)",0.7833333333333333,nan,0,12406.799,0
0,758,target,"[(1163, 906)]",[],[1],[0.5666666666666667],horizontal,"(390.0, 262.0)",0.9166666666666666,0.531,1,12411.803,1
0,759,target,"[(1156, 876)]",[],[1],[0.75],vertical,"(390.0, 262.0)",1.1,0.708,1,12416.896,1
0,760,target,"[(1163, 863)]",[],[1],[0.5833333333333334],horizontal,"(890.0, 762.0)",0.5,0.546,1,12423.671,1
0,761,target,"[(1148, 870)]",[],[1],[0.55],horizontal,"(890.0, 262.0)",1.1,0.507,1,12428.245,2
0,762,target,"[(1163, 907)]",[],[1],[],vertical,"(390.0, 762.0)",,"('fix', 0.365)",0,12434.038,0
0,763,target,"[(1163, 910)]",[],[1],[0.5],vertical,"(890.0, 262.0)",0.8,0.461,1,12436.436,1
0,764,target,"[(1163, 862)]",[],[1],[0.45],vertical,"(390.0, 262.0)",1.3166666666666667,0.414,1,12440.99,1
0,765,target,"[(1163, 888)]",[],[1],[0.5],vertical,"(390.0, 762.0)",1.2,0.461,1,12446.459,1
0,766,target,"[(1163, 858)]",[],[1],[0.23333333333333334],vertical,"(390.0, 762.0)",1.6333333333333333,0.199,1,12451.913,2
0,767,target,"[(1163, 920)]",[],[1],[0.55],horizontal,"(390.0, 762.0)",1.05,0.506,1,12457.787,1
0,768,target,"[(1158, 882)]",[],[1],[0.55],horizontal,"(390.0, 262.0)",1.25,0.503,1,12463.532,1
0,769,target,"[(1150, 885)]",[],[1],[0.5166666666666666],horizontal,"(890.0, 262.0)",0.95,0.48,1,12469.994,1
0,770,target,"[(1144, 881)]",[],[1],[0.26666666666666666],vertical,"(390.0, 262.0)",1.6,0.229,1,12476.455,3
0,771,target,"[(1163, 908)]",[],[1],[0.65],vertical,"(890.0, 762.0)",0.7,0.613,1,12484.861,1
0,772,target,"[(1163, 913)]",[],[1],[0.5666666666666667],horizontal,"(390.0, 762.0)",1.0666666666666667,0.53,1,12490.055,1
0,773,target,"[(1158, 869)]",[],[1],[0.3333333333333333],vertical,"(390.0, 262.0)",1.4666666666666666,0.295,1,12496.209,1
0,774,target,"[(1163, 903)]",[],[1],[0.5],vertical,"(390.0, 262.0)",1.0666666666666667,0.459,1,12501.854,2
0,775,target,"[(1153, 915)]",[],[1],[0.55],horizontal,"(890.0, 762.0)",0.7,0.506,1,12508.634,1
0,776,target,"[(1158, 891)]",[],[1],[0.6833333333333333],vertical,"(390.0, 262.0)",0.8,0.64,1,12516.467,1
0,777,target,"[(1163, 876)]",[],[1],[0.4666666666666667],horizontal,"(890.0, 262.0)",1.3,0.426,1,12521.805,1
0,778,target,"[(1155, 880)]",[],[1],[0.48333333333333334],vertical,"(890.0, 762.0)",1.3833333333333333,0.443,1,12526.768,3
0,779,target,"[(1163, 902)]",[],[1],[0.5166666666666666],horizontal,"(390.0, 262.0)",1.4166666666666667,0.48,1,12534.231,1
0,780,target,"[(1162, 859)]",[],[1],[0.6333333333333333],horizontal,"(390.0, 262.0)",1.2333333333333334,0.594,1,12539.336,1
0,781,target,"[(1163, 935)]",[],[1],[0.5666666666666667],vertical,"(390.0, 262.0)",0.5833333333333334,0.524,1,12545.638,1
0,782,target,"[(1158, 886)]",[],[1],[0.6],horizontal,"(390.0, 762.0)",1.1833333333333333,0.561,1,12551.306,2
0,783,target,"[(1163, 889)]",[],[1],[0.85],vertical,"(890.0, 762.0)",1.1833333333333333,nan,0,12557.754,0
0,784,target,"[(1163, 872)]",[],[1],[0.6833333333333333],horizontal,"(390.0, 762.0)",0.8333333333333334,0.641,1,12562.649,1
0,785,target,"[(1163, 884)]",[],[1],[0.7333333333333333],horizontal,"(390.0, 762.0)",1.1666666666666667,0.685,1,12568.271,1
0,786,target,"[(1158, 877)]",[],[1],[0.3833333333333333],vertical,"(390.0, 262.0)",1.6166666666666667,0.347,1,12573.851,1
0,787,target,"[(1163, 894)]",[],[1],[0.6166666666666667],horizontal,"(390.0, 262.0)",1.0833333333333333,0.575,1,12579.072,2
0,788,target,"[(1163, 893)]",[],[1],[],horizontal,"(390.0, 762.0)",,"('fix', 0.184)",0,12584.689,0
0,789,target,"[(1158, 931)]",[],[1],[0.55],vertical,"(390.0, 762.0)",0.7833333333333333,0.508,1,12587.187,1
0,790,target,"[(1153, 884)]",[],[1],[0.85],horizontal,"(890.0, 762.0)",0.5833333333333334,nan,0,12591.838,0
0,791,target,"[(1163, 907)]",[],[1],[0.7166666666666667],horizontal,"(890.0, 762.0)",0.8833333333333333,0.67,1,12597.22,1
0,792,target,"[(1163, 871)]",[],[1],[0.5333333333333333],horizontal,"(890.0, 262.0)",0.8,0.499,1,12601.933,1
0,793,target,"[(1163, 880)]",[],[1],[0.6333333333333333],horizontal,"(390.0, 262.0)",0.5333333333333333,0.6,1,12606.795,1
0,794,target,"[(1163, 888)]",[],[1],[0.4666666666666667],vertical,"(890.0, 262.0)",1.5,0.423,1,12611.616,2
0,795,target,"[(1163, 896)]",[],[1],[0.5833333333333334],horizontal,"(390.0, 762.0)",0.75,0.538,1,12616.989,1
0,796,target,"[(1163, 898)]",[],[1],[0.5833333333333334],vertical,"(890.0, 262.0)",0.5333333333333333,0.543,1,12622.098,1
0,797,target,"[(1153, 898)]",[],[1],[0.3833333333333333],vertical,"(390.0, 762.0)",1.6333333333333333,0.343,1,12627.346,1
0,798,target,"[(1153, 875)]",[],[1],[0.5833333333333334],horizontal,"(390.0, 762.0)",1.1833333333333333,0.542,1,12634.354,3
0,799,target,"[(1163, 892)]",[],[1],[0.4666666666666667],horizontal,"(390.0, 262.0)",1.1166666666666667,0.435,1,12641.387,1
0,800,target,"[(1163, 883)]",[],[1],[0.5],horizontal,"(390.0, 262.0)",1.3,0.463,1,12646.434,1
0,801,target,"[(1163, 884)]",[],[1],[0.4666666666666667],vertical,"(890.0, 762.0)",1.3833333333333333,0.436,1,12651.584,1
0,802,target,"[(1163, 889)]",[],[1],[0.5166666666666666],horizontal,"(390.0, 262.0)",0.5666666666666667,0.477,1,12656.838,2
0,803,target,"[(1162, 877)]",[],[1],[0.5333333333333333],horizontal,"(390.0, 262.0)",1.15,0.495,1,12661.622,1
0,804,target,"[(1163, 884)]",[],[1],[0.4166666666666667],horizontal,"(390.0, 262.0)",1.5166666666666666,0.381,1,12668.278,1
0,805,target,"[(1163, 902)]",[],[1],[0.3333333333333333],horizontal,"(890.0, 262.0)",1.6666666666666667,0.296,1,12673.406,1
0,806,target,"[(1163, 880)]",[],[1],[0.5166666666666666],vertical,"(390.0, 262.0)",1.3833333333333333,0.482,1,12678.734,3
0,807,target,"[(1163, 927)]",[],[1],[0.08333333333333333],vertical,"(390.0, 262.0)",1.5833333333333333,0.051,0,12684.839,0
0,808,target,"[(1163, 877)]",[],[1],[0.5666666666666667],vertical,"(390.0, 262.0)",0.6166666666666667,0.536,1,12690.651,1
0,809,catch,"[(1163, 886)]",[],[1],[],horizontal,"(390.0, 262.0)",1.4166666666666667,nan,1,12695.354,1
0,810,target,"[(1163, 903)]",[],[1],[0.6],horizontal,"(390.0, 262.0)",1.2666666666666666,0.565,1,12700.605,1
0,811,target,"[(1163, 888)]",[],[1],[0.5],horizontal,"(890.0, 262.0)",1.4333333333333333,0.46,1,12706.014,2
0,812,target,"[(1162, 900)]",[],[1],[0.5],vertical,"(890.0, 762.0)",1.5166666666666666,0.458,1,12711.616,1
0,813,target,"[(1163, 909)]",[],[1],[0.5],vertical,"(890.0, 762.0)",1.4,0.464,1,12718.132,1
0,814,target,"[(1163, 866)]",[],[1],[0.5166666666666666],vertical,"(390.0, 762.0)",1.0166666666666666,0.484,1,12723.728,1
0,815,target,"[(1163, 890)]",[],[1],[0.4666666666666667],vertical,"(390.0, 762.0)",1.2666666666666666,0.426,1,12729.072,3
0,816,target,"[(1163, 927)]",[],[1],[0.3333333333333333],horizontal,"(390.0, 262.0)",0.7333333333333333,0.292,1,12735.383,1
0,817,target,"[(1163, 892)]",[],[1],[0.2],vertical,"(890.0, 762.0)",1.6,0.17,1,12741.529,1
0,818,target,"[(1163, 870)]",[],[1],[0.3833333333333333],vertical,"(390.0, 262.0)",1.5833333333333333,0.352,1,12746.614,1
0,819,target,"[(1163, 884)]",[],[1],[0.3333333333333333],vertical,"(390.0, 262.0)",1.4833333333333334,0.298,1,12751.666,2
0,820,target,"[(1153, 882)]",[],[1],[0.5666666666666667],horizontal,"(890.0, 762.0)",0.7333333333333333,0.526,1,12757.652,1
0,821,target,"[(1163, 900)]",[],[1],[0.43333333333333335],horizontal,"(890.0, 762.0)",1.1,0.39,1,12763.74,1
0,822,target,"[(1156, 878)]",[],[1],[0.5],horizontal,"(390.0, 262.0)",0.8833333333333333,0.459,1,12769.389,1
0,823,target,"[(1139, 886)]",[],[1],[0.5333333333333333],horizontal,"(890.0, 762.0)",1.1666666666666667,0.493,1,12774.206,3
0,824,target,"[(1163, 889)]",[],[1],[0.3],vertical,"(390.0, 262.0)",1.6333333333333333,0.268,1,12782.074,1
0,825,target,"[(1163, 912)]",[],[1],[0.6333333333333333],vertical,"(890.0, 262.0)",1.2166666666666666,0.588,1,12789.305,1
0,826,target,"[(1163, 898)]",[],[1],[0.5166666666666666],horizontal,"(890.0, 762.0)",1.1666666666666667,0.477,1,12795.258,1
0,827,target,"[(1163, 902)]",[],[1],[0.6166666666666667],horizontal,"(390.0, 762.0)",0.6,0.573,1,12800.507,2
0,828,target,"[(1163, 883)]",[],[1],[],horizontal,"(890.0, 262.0)",,"('cti', 1.598)",0,12807.331,0
0,829,catch,"[(1158, 872)]",[],[1],[],vertical,"(390.0, 762.0)",1.1666666666666667,nan,1,12812.252,1
0,830,target,"[(1163, 896)]",[],[1],[0.5333333333333333],horizontal,"(890.0, 762.0)",1.0,0.494,1,12818.558,1
0,831,target,"[(1163, 885)]",[],[1],[0.3333333333333333],horizontal,"(890.0, 262.0)",1.6166666666666667,0.293,1,12823.458,1
0,832,target,"[(1163, 887)]",[],[1],[0.6833333333333333],horizontal,"(890.0, 762.0)",0.5666666666666667,0.638,1,12828.757,2
0,833,target,"[(1153, 892)]",[],[1],[0.5666666666666667],horizontal,"(390.0, 262.0)",1.1166666666666667,0.535,1,12833.661,1
0,834,target,"[(1149, 873)]",[],[1],[0.5166666666666666],vertical,"(390.0, 762.0)",1.6166666666666667,0.473,1,12840.531,1
0,835,target,"[(1163, 881)]",[],[1],[0.3333333333333333],vertical,"(390.0, 262.0)",1.65,0.293,1,12848.026,1
0,836,target,"[(1163, 886)]",[],[1],[0.5166666666666666],vertical,"(390.0, 262.0)",1.3,0.485,1,12853.661,3
0,837,target,"[(1163, 897)]",[],[1],[0.5166666666666666],horizontal,"(390.0, 762.0)",0.9333333333333333,0.477,1,12859.92,1
0,838,target,"[(1156, 879)]",[],[1],[0.5833333333333334],vertical,"(890.0, 762.0)",0.7333333333333333,0.542,1,12865.014,1
0,839,target,"[(1155, 872)]",[],[1],[0.5666666666666667],vertical,"(890.0, 762.0)",1.35,0.525,1,12870.805,1
0,840,target,"[(1163, 877)]",[],[1],[0.5333333333333333],vertical,"(890.0, 762.0)",1.2,0.492,1,12877.527,2
0,841,target,"[(1153, 896)]",[],[1],[0.5333333333333333],horizontal,"(890.0, 262.0)",1.3166666666666667,0.493,1,12882.957,1
0,842,target,"[(1163, 898)]",[],[1],[0.4166666666666667],horizontal,"(890.0, 762.0)",1.3333333333333333,0.382,1,12887.807,1
0,843,target,"[(1163, 888)]",[],[1],[0.5333333333333333],vertical,"(890.0, 762.0)",1.2666666666666666,0.492,1,12894.621,1
0,844,target,"[(1158, 891)]",[],[1],[0.55],horizontal,"(890.0, 262.0)",1.3333333333333333,0.513,1,12900.199,3
0,845,target,"[(1163, 892)]",[],[1],[0.2833333333333333],horizontal,"(890.0, 762.0)",1.4666666666666666,0.247,1,12906.701,1
0,846,target,"[(1163, 926)]",[],[1],[0.5666666666666667],vertical,"(890.0, 262.0)",0.5833333333333334,0.529,1,12911.781,1
0,847,target,"[(1162, 888)]",[],[1],[0.85],vertical,"(390.0, 762.0)",0.7333333333333333,nan,0,12917.145,0
0,848,target,"[(1149, 881)]",[],[1],[0.5833333333333334],vertical,"(890.0, 762.0)",1.2,0.548,1,12921.89,1
0,849,target,"[(1163, 929)]",[],[1],[0.6],horizontal,"(390.0, 262.0)",0.7833333333333333,0.559,1,12929.336,1
0,850,target,"[(1163, 967), (1140, 898)]",[],"[0, 1]",[0.6],vertical,"(390.0, 262.0)",0.8666666666666667,0.559,1,12934.725,1
0,851,target,"[(287, 306), (426, 392), (285, 392), (1163, 894)]",[],"[0, 0, 0, 1]",[0.5666666666666667],horizontal,"(390.0, 262.0)",0.7666666666666666,0.53,1,12942.613,2
0,852,target,"[(1158, 907)]",[],[1],[0.5],vertical,"(890.0, 262.0)",1.45,0.458,1,13015.974,1
