block,trial,trial_type,taps_start_loc_during_fix,taps_end_loc_during_fix,taps_on_lever_during_fix,taps_on_lever_s_during_fix,bar_orientation,target_xy,cti,rt,acc,time,pulses
0,1,catch,"[(1071, 834)]",[],[1],[],horizontal,"(390.0, 262.0)",1.6,nan,1,0.434,1
0,2,target,"[(1076, 805)]",[],[1],[],horizontal,"(890.0, 762.0)",,"('fix', 0.3)",0,75.901,0
0,3,target,"[(1108, 811)]",[],[1],[],vertical,"(890.0, 262.0)",,"('fix', 0.286)",0,78.193,0
0,4,target,"[(1082, 802)]",[],[1],[0.6166666666666667],vertical,"(890.0, 262.0)",0.7,0.584,1,79.833,1
0,5,target,"[(1076, 802)]",[],[1],[],horizontal,"(390.0, 762.0)",,"('cti', 1.496)",0,84.943,0
0,6,target,"[(1103, 836)]",[],[1],[0.8333333333333334],horizontal,"(390.0, 762.0)",1.0666666666666667,0.805,0,89.594,0
0,7,target,"[(1102, 829)]",[],[1],[0.6666666666666666],vertical,"(890.0, 262.0)",0.5333333333333333,0.639,1,94.9,1
0,8,target,"[(1108, 789)]",[],[1],[0.6166666666666667],vertical,"(890.0, 262.0)",0.6833333333333333,0.582,1,99.672,1
0,9,target,"[(1109, 781)]",[],[1],[0.11666666666666667],vertical,"(890.0, 262.0)",1.6833333333333333,0.084,0,104.135,0
0,10,target,"[(1119, 788)]",[],[1],[0.55],horizontal,"(390.0, 262.0)",1.5166666666666666,0.51,1,108.953,1
0,11,target,"[(1100, 785)]",[],[1],[0.85],horizontal,"(390.0, 262.0)",1.1,nan,0,114.235,0
0,12,target,"[(1072, 791)]",[],[1],[0.7333333333333333],vertical,"(390.0, 762.0)",0.5333333333333333,0.686,1,119.14,1
0,13,target,"[(1124, 787)]",[],[1],[0.7],vertical,"(390.0, 762.0)",0.6,0.652,1,123.978,1
0,14,target,"[(1108, 792)]",[],[1],[0.85],vertical,"(890.0, 762.0)",0.6333333333333333,nan,0,128.338,0
0,15,target,"[(1091, 801)]",[],[1],[],horizontal,"(890.0, 262.0)",,"('cti', 1.279)",0,133.12,0
0,16,target,"[(1077, 815)]",[],[1],[0.6],horizontal,"(390.0, 262.0)",0.9833333333333333,0.553,1,137.618,1
0,17,target,"[(1112, 780)]",[],[1],[0.31666666666666665],horizontal,"(890.0, 262.0)",1.1333333333333333,0.28,1,142.568,1
0,18,target,"[(1122, 791)]",[],[1],[0.5666666666666667],horizontal,"(890.0, 262.0)",1.3666666666666667,0.525,1,147.333,2
0,19,catch,"[(1115, 786)]",[],[1],[],horizontal,"(390.0, 762.0)",1.6,nan,1,152.613,2
0,20,target,"[(1110, 800)]",[],[1],[0.6333333333333333],horizontal,"(890.0, 762.0)",0.7666666666666666,0.59,1,158.176,2
0,21,target,"[(1113, 781)]",[],[1],[0.6],horizontal,"(390.0, 762.0)",0.8166666666666667,0.557,1,163.416,2
0,22,catch,"[(1113, 790)]",[],[1],[],vertical,"(890.0, 262.0)",,"('cti', 1.357),nan",0,168.476,0
0,23,target,"[(1100, 808)]",[],[1],[0.85],horizontal,"(890.0, 262.0)",0.9,nan,0,172.89,0
0,24,target,"[(1114, 795)]",[],[1],[0.1],horizontal,"(890.0, 762.0)",1.5333333333333332,0.068,0,177.588,0
0,25,catch,"[(1105, 791)]",[],[1],[],horizontal,"(390.0, 262.0)",,"('cti', 1.502),nan",0,181.875,0
0,26,target,"[(1087, 850)]",[],[1],[0.5166666666666666],horizontal,"(390.0, 262.0)",1.3166666666666667,0.475,1,186.539,1
0,27,target,"[(1105, 803)]",[],[1],[0.6],vertical,"(390.0, 762.0)",0.6333333333333333,0.564,1,191.984,1
0,28,target,"[(1075, 835)]",[],[1],[0.55],vertical,"(890.0, 762.0)",0.6666666666666666,0.513,1,196.475,2
0,29,target,"[(1108, 786)]",[],[1],[0.5166666666666666],horizontal,"(890.0, 262.0)",1.1833333333333333,0.476,1,205.049,2
0,30,target,"[(1109, 786)]",[],[1],[0.5833333333333334],horizontal,"(890.0, 762.0)",1.2833333333333332,0.537,1,210.134,2
0,31,target,"[(1111, 786)]",[],[1],[0.5],vertical,"(890.0, 762.0)",1.1833333333333333,0.463,1,215.419,2
0,32,target,"[(1111, 763)]",[],[1],[0.48333333333333334],horizontal,"(890.0, 262.0)",1.45,0.446,1,220.491,3
0,33,target,"[(1105, 804)]",[],[1],[],horizontal,"(890.0, 262.0)",,"('cti', 0.921)",0,226.556,0
0,34,catch,"[(1076, 791)]",[],[1],[],vertical,"(390.0, 262.0)",1.6,nan,1,230.895,1
0,35,catch,"[(1105, 793)]",[],[1],[],vertical,"(390.0, 762.0)",,"('cti', 1.499),nan",0,255.98,0
0,36,target,"[(1105, 799)]",[],[1],[0.6333333333333333],vertical,"(390.0, 762.0)",0.7,0.584,1,260.929,1
0,37,target,"[(1105, 799)]",[],[1],[0.11666666666666667],vertical,"(890.0, 762.0)",1.5166666666666666,0.085,0,266.325,0
0,38,target,"[(1100, 790)]",[],[1],[0.55],vertical,"(890.0, 262.0)",1.15,0.508,1,270.935,1
0,39,target,"[(1118, 783)]",[],[1],[0.5333333333333333],horizontal,"(890.0, 762.0)",0.75,0.493,1,275.957,1
0,40,target,"[(1100, 794)]",[],[1],[0.65],vertical,"(390.0, 762.0)",1.0833333333333333,0.606,1,280.572,2
0,41,catch,"[(1117, 786)]",[],[1],[],horizontal,"(390.0, 262.0)",1.6,nan,1,286.404,2
0,42,target,"[(1105, 786)]",[],[1],[0.6],vertical,"(890.0, 762.0)",1.2833333333333332,0.553,1,291.451,2
0,43,target,"[(1117, 786)]",[],[1],[0.6333333333333333],horizontal,"(890.0, 762.0)",0.7,0.591,1,296.738,2
0,44,target,"[(1107, 780)]",[],[1],[0.85],horizontal,"(390.0, 762.0)",0.5833333333333334,nan,0,301.64,0
0,45,target,"[(1095, 794)]",[],[1],[0.18333333333333332],vertical,"(890.0, 762.0)",1.6,0.148,0,305.97,0
0,46,catch,"[(1101, 777)]",[],[1],[],vertical,"(390.0, 762.0)",1.6,nan,1,310.78,1
0,47,target,"[(1121, 785)]",[],[1],[0.26666666666666666],horizontal,"(890.0, 762.0)",1.5333333333333332,0.233,1,315.948,1
0,48,target,"[(1100, 784)]",[],[1],[0.5833333333333334],horizontal,"(390.0, 262.0)",1.2,0.546,1,321.142,2
0,49,catch,"[(1079, 832)]",[],[1],[],horizontal,"(890.0, 762.0)",1.6,nan,1,326.485,2
0,50,catch,"[(1102, 804)]",[],[1],[],vertical,"(390.0, 262.0)",1.6,nan,1,1646.018,2
0,51,target,"[(507, 632), (1043, 838)]",[],"[0, 1]",[],horizontal,"(390.0, 762.0)",,"('cti', 1.188)",0,1651.21,0
0,52,target,"[(1104, 814)]",[],[1],[0.6166666666666667],horizontal,"(390.0, 262.0)",0.8,0.568,1,1663.553,1
0,53,target,"[(1106, 791)]",[],[1],[0.85],horizontal,"(390.0, 262.0)",1.0833333333333333,nan,0,1742.019,0
0,54,target,"[(1106, 791)]",[],[1],[0.85],horizontal,"(390.0, 262.0)",1.25,nan,0,1746.97,0
0,55,target,"[(1109, 800)]",[],[1],[0.85],horizontal,"(390.0, 762.0)",0.95,nan,0,1751.728,0
0,56,target,"[(1090, 796)]",[],[1],[],vertical,"(390.0, 762.0)",,"('cti', 1.492)",0,1756.327,0
0,57,target,"[(1108, 796)]",[],[1],[0.6],horizontal,"(890.0, 262.0)",0.8833333333333333,0.557,1,1761.475,1
0,58,target,"[(1130, 795)]",[],[1],[0.6666666666666666],vertical,"(390.0, 262.0)",0.6666666666666666,0.621,1,1766.49,1
0,59,target,"[(1110, 762)]",[],[1],[],horizontal,"(390.0, 762.0)",,"('cti', 1.448)",0,1771.138,0
0,60,target,"[(1120, 796)]",[],[1],[0.25],vertical,"(890.0, 762.0)",1.45,0.214,1,1776.021,1
0,61,catch,"[(1110, 786)]",[],[1],[],vertical,"(390.0, 762.0)",1.6,nan,1,1781.096,1
0,62,target,"[(1124, 765)]",[],[1],[0.6166666666666667],horizontal,"(890.0, 262.0)",0.8333333333333334,0.574,1,1785.717,2
0,63,target,"[(1094, 756)]",[],[1],[0.4166666666666667],horizontal,"(390.0, 262.0)",1.3166666666666667,0.377,1,1790.698,2
0,64,catch,"[(1128, 789)]",[],[1],[],vertical,"(890.0, 262.0)",,"('cti', 1.43),nan",0,1796.316,0
0,65,target,"[(1115, 778)]",[],[1],[0.5333333333333333],vertical,"(890.0, 262.0)",1.1166666666666667,0.492,1,1800.821,1
0,66,catch,"[(1112, 782)]",[],[1],[0.03333333333333333],horizontal,"(890.0, 762.0)",1.6,"0.019,nan",0,1805.785,0
0,67,target,"[(1076, 786)]",[],[1],[0.2833333333333333],horizontal,"(390.0, 262.0)",1.3166666666666667,0.251,1,1810.588,1
0,68,target,"[(1124, 781)]",[],[1],[0.05],horizontal,"(890.0, 262.0)",1.65,0.02,0,1815.623,0
0,69,target,"[(1066, 804)]",[],[1],[0.5],horizontal,"(390.0, 262.0)",0.9,0.458,1,1820.484,1
0,70,target,"[(1120, 746), (1085, 786)]",[],"[0, 1]",[0.5],vertical,"(890.0, 762.0)",0.9,0.458,1,1828.837,1
0,71,target,"[(1123, 795)]",[],[1],[0.55],horizontal,"(390.0, 262.0)",1.15,0.503,1,1834.993,2
0,72,target,"[(1123, 790)]",[],[1],[0.4166666666666667],horizontal,"(890.0, 262.0)",1.5166666666666666,0.372,1,1840.583,2
0,73,target,"[(1115, 790)]",[],[1],[0.5833333333333334],horizontal,"(390.0, 762.0)",0.95,0.539,1,1845.947,2
0,74,target,"[(1100, 760)]",[],[1],[],vertical,"(390.0, 262.0)",,"('cti', 1.35)",0,1850.93,0
0,75,target,"[(1122, 782)]",[],[1],[0.6333333333333333],horizontal,"(890.0, 262.0)",1.15,0.585,1,1855.652,1
0,76,target,"[(1125, 781)]",[],[1],[0.5166666666666666],vertical,"(390.0, 762.0)",0.5,0.473,1,1860.848,1
0,77,target,"[(1091, 807)]",[],[1],[0.7],horizontal,"(890.0, 262.0)",1.0833333333333333,0.651,1,1864.941,2
0,78,target,"[(1125, 786)]",[],[1],[0.75],vertical,"(390.0, 262.0)",1.4,0.718,1,1870.708,2
0,79,target,"[(1114, 805)]",[],[1],[0.4166666666666667],horizontal,"(890.0, 762.0)",1.4166666666666667,0.374,1,1876.505,2
0,80,target,"[(1130, 790)]",[],[1],[0.4666666666666667],horizontal,"(390.0, 262.0)",1.3833333333333333,0.426,1,1882.336,2
0,81,target,"[(1119, 779)]",[],[1],[0.7],horizontal,"(890.0, 262.0)",0.55,0.657,1,1887.94,3
0,82,target,"[(1135, 785)]",[],[1],[0.85],horizontal,"(890.0, 762.0)",0.7166666666666667,nan,0,1893.099,0
0,83,target,"[(1108, 792)]",[],[1],[0.2],vertical,"(890.0, 262.0)",1.5833333333333333,0.168,0,1897.848,0
0,84,target,"[(1078, 771)]",[],[1],[0.08333333333333333],vertical,"(390.0, 762.0)",1.6,0.052,0,1902.784,0
0,85,target,"[(1062, 791)]",[],[1],[],vertical,"(390.0, 262.0)",,"('cti', 1.154)",0,1910.574,0
0,86,target,"[(1108, 796)]",[],[1],[0.6333333333333333],horizontal,"(890.0, 762.0)",1.1666666666666667,0.587,1,1915.908,1
0,87,target,"[(1120, 799)]",[],[1],[0.6333333333333333],vertical,"(390.0, 762.0)",0.6,0.589,1,1923.219,1
0,88,target,"[(1108, 797)]",[],[1],[0.6833333333333333],horizontal,"(390.0, 762.0)",0.8666666666666667,0.639,1,1927.379,2
0,89,target,"[(1124, 799)]",[],[1],[0.85],vertical,"(390.0, 262.0)",0.9833333333333333,nan,0,1932.582,0
0,90,target,"[(1075, 787)]",[],[1],[0.85],horizontal,"(890.0, 762.0)",0.7166666666666667,nan,0,1937.118,0
0,91,catch,"[(1085, 777)]",[],[1],[],vertical,"(390.0, 262.0)",1.6,nan,1,1941.667,1
0,92,target,"[(1124, 795)]",[],[1],[0.5333333333333333],horizontal,"(390.0, 262.0)",0.65,0.492,1,1946.857,1
0,93,target,"[(1144, 797)]",[],[1],[0.6],vertical,"(390.0, 262.0)",0.6666666666666666,0.556,1,1951.064,2
0,94,target,"[(1125, 791)]",[],[1],[0.5833333333333334],horizontal,"(390.0, 762.0)",1.1333333333333333,0.541,1,1955.742,2
0,95,target,"[(1111, 785)]",[],[1],[0.6],horizontal,"(890.0, 262.0)",1.1666666666666667,0.559,1,1961.06,2
0,96,target,"[(1135, 810)]",[],[1],[0.5666666666666667],vertical,"(890.0, 762.0)",0.55,0.519,1,1966.66,2
0,97,target,"[(1150, 799)]",[],[1],[0.6166666666666667],horizontal,"(390.0, 762.0)",1.1666666666666667,0.565,1,1971.574,3
0,98,target,"[(1123, 791)]",[],[1],[0.5],horizontal,"(890.0, 762.0)",0.9333333333333333,0.458,1,1976.955,3
0,99,target,"[(1124, 769)]",[],[1],[0.5833333333333334],horizontal,"(390.0, 762.0)",0.9166666666666666,0.541,1,1982.287,3
0,100,target,"[(1124, 776)]",[],[1],[0.6166666666666667],vertical,"(890.0, 762.0)",1.1166666666666667,0.57,1,1988.132,3
0,101,target,"[(1145, 801)]",[],[1],[0.55],vertical,"(890.0, 262.0)",0.5666666666666667,0.507,1,1993.922,3
0,102,target,"[(1125, 800)]",[],[1],[0.65],horizontal,"(390.0, 262.0)",0.55,0.605,1,1999.394,3
0,103,target,"[(1148, 796)]",[],[1],[0.5666666666666667],horizontal,"(390.0, 762.0)",1.0333333333333332,0.525,1,2004.963,3
0,104,target,"[(1143, 783)]",[],[1],[0.6666666666666666],horizontal,"(890.0, 262.0)",0.6333333333333333,0.626,1,2010.602,3
0,105,target,"[(1121, 786)]",[],[1],[0.6166666666666667],horizontal,"(390.0, 262.0)",0.7666666666666666,0.571,1,2015.824,3
0,106,target,"[(1120, 793)]",[],[1],[0.4666666666666667],vertical,"(390.0, 762.0)",1.4,0.427,1,2021.147,3
0,107,target,"[(1106, 787)]",[],[1],[0.5666666666666667],vertical,"(890.0, 762.0)",1.1666666666666667,0.527,1,2026.956,3
0,108,target,"[(1104, 789)]",[],[1],[0.85],horizontal,"(390.0, 262.0)",1.65,nan,0,2033.054,0
0,109,target,"[(1108, 803)]",[],[1],[0.85],vertical,"(390.0, 762.0)",1.0,nan,0,2038.078,0
0,110,catch,"[(1077, 790)]",[],[1],[],vertical,"(890.0, 262.0)",1.6,nan,1,2042.816,1
0,111,target,"[(1105, 796)]",[],[1],[0.85],horizontal,"(890.0, 262.0)",1.3333333333333333,nan,0,2779.206,0
0,112,target,"[(1120, 793)]",[],[1],[0.5333333333333333],vertical,"(390.0, 262.0)",0.85,0.496,1,2783.981,1
0,113,target,"[(1140, 788)]",[],[1],[0.85],vertical,"(390.0, 262.0)",0.9666666666666667,nan,0,2788.419,0
0,114,target,"[(1100, 806)]",[],[1],[0.85],vertical,"(390.0, 762.0)",0.5166666666666666,nan,0,2793.446,0
0,115,target,"[(1062, 786)]",[],[1],[0.85],horizontal,"(390.0, 762.0)",1.1,nan,0,2798.109,0
0,116,target,"[(1071, 825)]",[],[1],[0.55],horizontal,"(390.0, 762.0)",0.8833333333333333,0.507,1,2808.259,1
0,117,target,"[(1111, 800)]",[],[1],[0.31666666666666665],vertical,"(890.0, 262.0)",1.4833333333333334,0.278,1,2813.168,1
0,118,catch,"[(1113, 810)]",[],[1],[],vertical,"(890.0, 262.0)",1.6,nan,1,2818.183,2
0,119,target,"[(1120, 796)]",[],[1],[0.5833333333333334],vertical,"(390.0, 762.0)",1.0666666666666667,0.551,1,2823.21,2
0,120,target,"[(1111, 787)]",[],[1],[0.45],vertical,"(390.0, 262.0)",0.6833333333333333,0.407,1,2828.192,2
0,121,target,"[(1108, 787)]",[],[1],[0.5333333333333333],vertical,"(890.0, 262.0)",0.8833333333333333,0.494,1,2833.086,2
0,122,target,"[(1108, 797)]",[],[1],[0.2833333333333333],horizontal,"(390.0, 762.0)",1.4333333333333333,0.252,1,2838.226,3
0,123,target,"[(1140, 795)]",[],[1],[0.85],horizontal,"(890.0, 762.0)",0.6666666666666666,nan,0,2843.908,0
0,124,target,"[(1120, 801)]",[],[1],[0.6666666666666666],horizontal,"(890.0, 762.0)",1.05,0.621,1,2848.73,1
0,125,target,"[(1120, 781)]",[],[1],[0.5833333333333334],horizontal,"(890.0, 762.0)",0.9,0.537,1,2854.005,1
0,126,target,"[(1121, 771)]",[],[1],[0.5166666666666666],horizontal,"(890.0, 262.0)",0.7333333333333333,0.477,1,2858.533,2
0,127,catch,"[(1117, 795)]",[],[1],[],vertical,"(390.0, 762.0)",1.6,nan,1,2863.176,2
0,128,target,"[(1110, 782)]",[],[1],[0.05],horizontal,"(890.0, 762.0)",1.6833333333333333,0.019,0,2868.566,0
0,129,target,"[(1147, 796)]",[],[1],[],horizontal,"(890.0, 762.0)",,"('cti', 1.599)",0,2873.185,0
0,130,target,"[(1105, 796)]",[],[1],[0.6],horizontal,"(890.0, 262.0)",0.7166666666666667,0.554,1,2877.563,1
0,131,target,"[(1127, 786)]",[],[1],[0.6166666666666667],vertical,"(390.0, 762.0)",1.0,0.573,1,2882.209,1
0,132,target,"[(1123, 775)]",[],[1],[0.6166666666666667],horizontal,"(390.0, 762.0)",0.9333333333333333,0.583,1,2886.81,2
0,133,target,"[(1125, 787)]",[],[1],[0.65],horizontal,"(390.0, 762.0)",0.8,0.613,1,2891.877,2
0,134,target,"[(1119, 798)]",[],[1],[0.5166666666666666],horizontal,"(890.0, 262.0)",0.5,0.473,1,2897.192,2
0,135,target,"[(1123, 786)]",[],[1],[0.3833333333333333],vertical,"(390.0, 262.0)",1.1,0.34,1,2901.589,2
0,136,target,"[(1073, 801)]",[],[1],[0.55],horizontal,"(390.0, 762.0)",0.5166666666666666,0.508,1,2906.904,3
0,137,catch,"[(1125, 790)]",[],[1],[],horizontal,"(890.0, 762.0)",1.6,nan,1,2912.985,3
0,138,target,"[(1115, 812)]",[],[1],[0.35],vertical,"(890.0, 762.0)",1.4166666666666667,0.311,1,2918.346,3
0,139,target,"[(1126, 786)]",[],[1],[0.6],horizontal,"(890.0, 262.0)",1.25,0.553,1,2924.048,3
0,140,target,"[(1125, 784)]",[],[1],[0.6666666666666666],vertical,"(890.0, 762.0)",0.8333333333333334,0.618,1,2929.884,3
0,141,target,"[(1125, 768)]",[],[1],[0.5666666666666667],horizontal,"(890.0, 762.0)",1.1666666666666667,0.523,1,2935.296,3
0,142,target,"[(1114, 816)]",[],[1],[0.6166666666666667],horizontal,"(390.0, 762.0)",0.8166666666666667,0.573,1,2942.102,3
0,143,target,"[(1130, 790)]",[],[1],[0.55],horizontal,"(390.0, 762.0)",0.8833333333333333,0.506,1,2947.507,3
0,144,target,"[(1115, 786)]",[],[1],[0.5166666666666666],horizontal,"(390.0, 762.0)",1.1166666666666667,0.473,1,2952.851,3
0,145,target,"[(1124, 790)]",[],[1],[0.5666666666666667],horizontal,"(890.0, 762.0)",1.0833333333333333,0.521,1,2958.67,3
0,146,catch,"[(1115, 796)]",[],[1],[],vertical,"(890.0, 262.0)",1.6,nan,1,2964.609,3
0,147,target,"[(1151, 789)]",[],[1],[0.65],vertical,"(390.0, 762.0)",0.9833333333333333,0.608,1,2970.225,3
0,148,target,"[(1107, 791)]",[],[1],[0.31666666666666665],vertical,"(390.0, 262.0)",1.4333333333333333,0.279,1,2975.903,3
0,149,target,"[(1131, 772)]",[],[1],[0.48333333333333334],vertical,"(390.0, 262.0)",0.8333333333333334,0.443,1,2981.813,3
0,150,catch,"[(1124, 800)]",[],[1],[],horizontal,"(390.0, 762.0)",1.6,nan,1,2986.765,3
0,151,catch,"[(1112, 790)]",[],[1],[0.03333333333333333],horizontal,"(890.0, 262.0)",1.6,"0.019,nan",0,2992.443,0
0,152,target,"[(1127, 803)]",[],[1],[0.6],vertical,"(390.0, 762.0)",0.5,0.552,1,2997.424,1
0,153,target,"[(1105, 764)]",[],[1],[0.5666666666666667],horizontal,"(890.0, 262.0)",0.6333333333333333,0.523,1,3001.674,1
0,154,target,"[(1126, 775)]",[],[1],[0.5833333333333334],vertical,"(390.0, 262.0)",0.5666666666666667,0.537,1,3005.937,2
0,155,target,"[(1124, 790)]",[],[1],[0.6666666666666666],horizontal,"(390.0, 262.0)",0.8,0.622,1,3011.087,2
0,156,target,"[(1124, 791)]",[],[1],[0.5],vertical,"(390.0, 262.0)",1.0166666666666666,0.458,1,3015.652,2
0,157,target,"[(1115, 782)]",[],[1],[],vertical,"(890.0, 262.0)",,"('cti', 1.239)",0,3020.549,0
0,158,catch,"[(1123, 793)]",[],[1],[],horizontal,"(390.0, 762.0)",1.6,"('cti', 1.597),nan",0,3025.148,0
0,159,catch,"[(1107, 791)]",[],[1],[],horizontal,"(890.0, 262.0)",1.6,nan,1,3029.665,1
0,160,target,"[(1109, 798)]",[],[1],[],horizontal,"(890.0, 262.0)",,"('cti', 1.061)",0,3034.412,0
0,161,target,"[(1123, 787)]",[],[1],[0.55],vertical,"(390.0, 262.0)",0.6666666666666666,0.508,1,3038.594,1
0,162,target,"[(1148, 797)]",[],[1],[0.6],horizontal,"(390.0, 262.0)",0.6,0.56,1,3043.227,1
0,163,target,"[(1126, 791)]",[],[1],[0.6166666666666667],horizontal,"(390.0, 762.0)",0.8666666666666667,0.571,1,3047.842,2
0,164,target,"[(1126, 780)]",[],[1],[0.31666666666666665],vertical,"(390.0, 762.0)",1.3166666666666667,0.279,1,3053.139,2
0,165,target,"[(1124, 784)]",[],[1],[0.6666666666666666],vertical,"(890.0, 762.0)",0.9833333333333333,0.625,1,3058.707,2
0,166,target,"[(1109, 808)]",[],[1],[0.5166666666666666],vertical,"(390.0, 262.0)",0.5666666666666667,0.472,1,3064.236,2
0,167,target,"[(1118, 791)]",[],[1],[0.5166666666666666],horizontal,"(890.0, 762.0)",1.3833333333333333,0.475,1,3068.959,3
0,168,catch,"[(1113, 761)]",[],[1],[],vertical,"(890.0, 262.0)",,"('fix', 0.253),nan",0,3074.85,0
0,169,target,"[(1077, 774)]",[],[1],[0.85],horizontal,"(390.0, 762.0)",0.95,nan,0,3076.523,0
0,170,target,"[(1068, 803)]",[],[1],[0.48333333333333334],vertical,"(890.0, 262.0)",0.9666666666666667,0.442,1,3081.964,1
0,171,target,"[(1106, 782)]",[],[1],[0.7166666666666667],vertical,"(890.0, 262.0)",0.65,0.664,1,3088.143,1
0,172,target,"[(1119, 796)]",[],[1],[],horizontal,"(890.0, 262.0)",,"('cti', 1.043)",0,3092.628,0
0,173,target,"[(1112, 776)]",[],[1],[0.5833333333333334],vertical,"(890.0, 762.0)",0.5166666666666666,0.546,1,3096.543,1
0,174,target,"[(1138, 793)]",[],[1],[0.5833333333333334],vertical,"(390.0, 762.0)",0.8166666666666667,0.54,1,3100.683,1
0,175,target,"[(1126, 796)]",[],[1],[0.6666666666666666],vertical,"(390.0, 762.0)",1.65,0.622,1,3105.397,2
0,176,target,"[(1120, 782)]",[],[1],[0.5833333333333334],vertical,"(890.0, 262.0)",1.1,0.537,1,3111.02,2
0,177,target,"[(1123, 793)]",[],[1],[0.43333333333333335],vertical,"(890.0, 762.0)",1.25,0.389,1,3116.486,2
0,178,target,"[(1110, 786)]",[],[1],[0.4166666666666667],vertical,"(890.0, 762.0)",1.4,0.374,1,3122.067,2
0,179,catch,"[(1115, 792)]",[],[1],[],vertical,"(890.0, 262.0)",1.6,nan,1,3127.649,3
0,180,target,"[(1129, 802)]",[],[1],[],horizontal,"(890.0, 762.0)",,"('cti', 1.631)",0,3133.602,0
0,181,target,"[(1126, 792)]",[],[1],[0.85],horizontal,"(390.0, 262.0)",0.8166666666666667,nan,0,3138.439,0
0,182,target,"[(1100, 788)]",[],[1],[0.6],vertical,"(890.0, 762.0)",0.5166666666666666,0.553,1,3143.128,1
0,183,catch,"[(1120, 791)]",[],[1],[],vertical,"(390.0, 262.0)",1.6,nan,1,3147.441,1
0,184,target,"[(1096, 800)]",[],[1],[0.85],vertical,"(390.0, 762.0)",1.1833333333333333,nan,0,3152.679,0
0,185,target,"[(1119, 826)]",[],[1],[0.85],horizontal,"(890.0, 262.0)",1.1833333333333333,nan,0,3157.389,0
0,186,catch,"[(1106, 816)]",[],[1],[],horizontal,"(390.0, 762.0)",1.6,nan,1,4663.821,1
0,187,target,"[(1113, 829)]",[],[1],[0.7166666666666667],vertical,"(890.0, 262.0)",1.1333333333333333,0.669,1,4668.673,1
0,188,target,"[(1080, 771)]",[],[1],[0.55],vertical,"(390.0, 262.0)",0.6833333333333333,0.508,1,4676.813,2
0,189,target,"[(1082, 761)]",[],[1],[0.6],horizontal,"(390.0, 762.0)",0.9,0.554,1,4681.962,2
0,190,target,"[(1082, 826)]",[],[1],[0.85],horizontal,"(890.0, 262.0)",1.0333333333333332,nan,0,4688.61,0
0,191,target,"[(1077, 817)]",[],[1],[0.7833333333333333],horizontal,"(890.0, 762.0)",1.1666666666666667,0.736,1,7217.429,1
0,192,catch,"[(1082, 795)]",[],[1],[],vertical,"(890.0, 762.0)",1.6,nan,1,7222.788,1
0,193,target,"[(1105, 795)]",[],[1],[0.55],vertical,"(390.0, 762.0)",1.2333333333333334,0.511,1,7227.676,2
0,194,target,"[(1110, 788)]",[],[1],[0.7833333333333333],horizontal,"(390.0, 762.0)",1.4833333333333334,0.736,1,7233.152,2
0,195,target,"[(1116, 766)]",[],[1],[],horizontal,"(390.0, 762.0)",,"('cti', 1.57)",0,7238.684,0
0,196,target,"[(1076, 794)]",[],[1],[0.8],horizontal,"(890.0, 762.0)",0.6666666666666666,0.746,1,7243.361,1
0,197,target,"[(1096, 801)]",[],[1],[0.6833333333333333],horizontal,"(890.0, 262.0)",1.2166666666666666,0.641,1,7250.276,1
0,198,target,"[(1082, 779)]",[],[1],[0.85],vertical,"(390.0, 762.0)",0.8,nan,0,7255.661,0
0,199,catch,"[(1078, 802)]",[],[1],[],horizontal,"(390.0, 762.0)",1.6,nan,1,7259.996,1
0,200,target,"[(1077, 804)]",[],[1],[0.4666666666666667],horizontal,"(890.0, 262.0)",1.5333333333333332,0.428,1,7264.896,1
0,201,target,"[(1105, 789)]",[],[1],[0.6333333333333333],vertical,"(890.0, 262.0)",1.1833333333333333,0.605,1,7270.086,2
0,202,target,"[(1107, 788)]",[],[1],[0.6666666666666666],horizontal,"(390.0, 262.0)",1.1166666666666667,0.624,1,7276.203,2
0,203,target,"[(1120, 800)]",[],[1],[0.25],horizontal,"(390.0, 762.0)",1.6,0.212,1,7281.404,2
0,204,target,"[(1101, 808)]",[],[1],[0.3833333333333333],vertical,"(890.0, 262.0)",1.1333333333333333,0.344,1,7287.073,2
0,205,target,"[(1109, 788)]",[],[1],[0.85],vertical,"(890.0, 762.0)",1.35,nan,0,7292.832,0
0,206,target,"[(1088, 791)]",[],[1],[0.7],horizontal,"(890.0, 762.0)",0.8833333333333333,0.66,1,7298.513,1
0,207,catch,"[(1104, 786)]",[],[1],[],horizontal,"(890.0, 762.0)",1.6,nan,1,7303.163,1
0,208,target,"[(1096, 807)]",[],[1],[0.6833333333333333],vertical,"(390.0, 262.0)",0.6166666666666667,0.639,1,7308.237,2
0,209,catch,"[(1129, 810)]",[],[1],[],vertical,"(390.0, 262.0)",1.6,nan,1,7313.326,2
0,210,target,"[(1124, 794)]",[],[1],[0.11666666666666667],horizontal,"(390.0, 762.0)",1.55,0.084,0,7318.829,0
0,211,target,"[(1072, 815)]",[],[1],[0.4],horizontal,"(390.0, 262.0)",1.6833333333333333,0.365,1,7323.606,1
0,212,target,"[(1126, 780)]",[],[1],[0.6],vertical,"(390.0, 262.0)",1.0666666666666667,0.555,1,7328.921,1
0,213,target,"[(1124, 803)]",[],[1],[0.08333333333333333],vertical,"(390.0, 262.0)",1.2833333333333332,0.051,0,7333.747,0
0,214,target,"[(1072, 820)]",[],[1],[0.85],horizontal,"(890.0, 762.0)",1.5333333333333332,nan,0,7338.471,0
0,215,target,"[(1100, 815)]",[],[1],[0.75],vertical,"(390.0, 262.0)",1.1,0.704,1,7344.167,1
0,216,target,"[(1118, 786)]",[],[1],[0.31666666666666665],vertical,"(890.0, 762.0)",1.45,0.279,1,7349.281,1
0,217,target,"[(1117, 796)]",[],[1],[0.85],horizontal,"(890.0, 762.0)",0.5,nan,0,7354.66,0
0,218,catch,"[(1091, 799)]",[],[1],[],vertical,"(890.0, 762.0)",1.6,nan,1,7358.711,1
0,219,target,"[(1120, 791)]",[],[1],[0.4166666666666667],horizontal,"(390.0, 262.0)",1.4666666666666666,0.373,1,7363.663,1
0,220,catch,"[(1119, 794)]",[],[1],[],vertical,"(390.0, 262.0)",1.6,nan,1,7368.458,2
0,221,target,"[(1107, 778)]",[],[1],[0.55],vertical,"(390.0, 762.0)",1.3333333333333333,0.506,1,7373.606,2
0,222,target,"[(1110, 799)]",[],[1],[0.75],horizontal,"(890.0, 262.0)",1.1166666666666667,0.702,1,7378.904,2
0,223,target,"[(1115, 803)]",[],[1],[0.35],horizontal,"(390.0, 762.0)",1.35,0.316,1,7384.436,2
0,224,target,"[(1122, 799)]",[],[1],[0.35],vertical,"(390.0, 262.0)",1.6,0.318,1,7390.122,3
0,225,catch,"[(1110, 793)]",[],[1],[],horizontal,"(390.0, 762.0)",1.6,nan,1,7395.947,3
0,226,target,"[(1118, 799)]",[],[1],[0.16666666666666666],vertical,"(390.0, 262.0)",1.4,0.132,0,7401.548,0
0,227,target,"[(1101, 786)]",[],[1],[0.85],horizontal,"(390.0, 762.0)",0.6,nan,0,7406.235,0
0,228,catch,"[(1063, 790)]",[],[1],[],vertical,"(890.0, 762.0)",1.6,nan,1,7410.762,1
0,229,target,"[(1114, 767)]",[],[1],[0.6666666666666666],vertical,"(890.0, 762.0)",1.05,0.618,1,7415.736,1
0,230,target,"[(1120, 804)]",[],[1],[0.55],horizontal,"(890.0, 762.0)",1.5666666666666667,0.505,1,7420.664,2
0,231,target,"[(1097, 790)]",[],[1],[0.1],vertical,"(390.0, 262.0)",1.6166666666666667,0.067,0,7426.287,0
0,232,target,"[(1076, 796)]",[],[1],[0.7833333333333333],horizontal,"(390.0, 262.0)",0.5,0.739,1,7431.171,1
0,233,target,"[(1109, 795)]",[],[1],[0.13333333333333333],vertical,"(890.0, 262.0)",1.4833333333333334,0.101,0,7435.792,0
0,234,target,"[(1072, 789)]",[],[1],[0.6666666666666666],horizontal,"(890.0, 762.0)",0.9666666666666667,0.625,1,7440.401,1
0,235,catch,"[(1110, 791)]",[],[1],[],vertical,"(390.0, 762.0)",1.6,nan,1,7445.433,1
0,236,target,"[(1110, 790)]",[],[1],[0.2],vertical,"(390.0, 262.0)",1.6333333333333333,0.171,0,7450.724,0
0,237,target,"[(1128, 786)]",[],[1],[0.8333333333333334],vertical,"(390.0, 262.0)",0.75,0.78,1,7455.463,1
0,238,catch,"[(1110, 769)]",[],[1],[],horizontal,"(890.0, 762.0)",1.6,nan,1,7460.328,1
0,239,target,"[(530, 349), (1074, 841)]",[],"[0, 1]",[],horizontal,"(890.0, 262.0)",,"('fix', 0.403)",0,7465.26,0
0,240,target,"[(1120, 835)]",[],[1],[0.4666666666666667],horizontal,"(390.0, 762.0)",1.1833333333333333,0.425,1,7471.358,1
0,241,target,"[(1099, 811)]",[],[1],[0.23333333333333334],horizontal,"(390.0, 262.0)",1.6166666666666667,0.197,0,7476.089,0
0,242,target,"[(1072, 791)]",[],[1],[0.6333333333333333],vertical,"(390.0, 262.0)",1.1666666666666667,0.585,1,7480.838,1
0,243,catch,"[(1118, 799)]",[],[1],[],vertical,"(890.0, 762.0)",1.6,nan,1,7486.148,1
0,244,target,"[(1125, 799)]",[],[1],[0.6833333333333333],vertical,"(890.0, 762.0)",1.1166666666666667,0.64,1,7490.818,2
0,245,catch,"[(1130, 787)]",[],[1],[],vertical,"(890.0, 262.0)",,"('cti', 1.549),nan",0,7496.25,0
0,246,target,"[(1082, 807)]",[],[1],[0.6333333333333333],vertical,"(890.0, 762.0)",0.7,0.589,1,7501.183,1
0,247,target,"[(1128, 799)]",[],[1],[0.6],vertical,"(890.0, 762.0)",0.9166666666666666,0.555,1,7505.795,1
0,248,target,"[(1100, 790)]",[],[1],[0.35],horizontal,"(890.0, 762.0)",1.5833333333333333,0.318,1,7510.663,2
0,249,target,"[(1120, 777)]",[],[1],[0.4166666666666667],vertical,"(890.0, 762.0)",1.5666666666666667,0.382,1,7516.2,2
0,250,target,"[(1129, 807)]",[],[1],[0.5833333333333334],vertical,"(390.0, 262.0)",0.6333333333333333,0.546,1,7521.809,2
0,251,target,"[(1125, 790)]",[],[1],[0.5833333333333334],vertical,"(390.0, 762.0)",1.1666666666666667,0.544,1,7526.75,2
0,252,target,"[(1105, 798)]",[],[1],[0.7],horizontal,"(890.0, 262.0)",0.8,0.649,1,7532.063,3
0,253,target,"[(1123, 808)]",[],[1],[0.7833333333333333],vertical,"(890.0, 262.0)",0.95,0.733,1,7537.273,3
0,254,target,"[(1115, 790)]",[],[1],[0.5833333333333334],horizontal,"(390.0, 762.0)",1.2,0.538,1,7542.935,3
0,255,target,"[(1123, 779)]",[],[1],[0.4666666666666667],horizontal,"(390.0, 262.0)",1.3833333333333333,0.425,1,7548.898,3
0,256,target,"[(1106, 778)]",[],[1],[0.36666666666666664],vertical,"(890.0, 262.0)",1.5833333333333333,0.328,1,7555.154,3
0,257,target,"[(1091, 792)]",[],[1],[0.6],vertical,"(390.0, 762.0)",0.95,0.556,1,7561.528,3
0,258,target,"[(1102, 798)]",[],[1],[0.5833333333333334],vertical,"(890.0, 262.0)",0.7833333333333333,0.546,1,7566.847,3
0,259,target,"[(1120, 789)]",[],[1],[0.2],vertical,"(890.0, 762.0)",1.6333333333333333,0.168,0,7572.406,0
0,260,target,"[(1106, 810)]",[],[1],[0.5833333333333334],horizontal,"(390.0, 262.0)",0.7166666666666667,0.547,1,7576.94,1
0,261,target,"[(1095, 769)]",[],[1],[0.5666666666666667],vertical,"(890.0, 762.0)",1.3333333333333333,0.528,1,7581.872,1
0,262,catch,"[(1097, 789)]",[],[1],[],horizontal,"(890.0, 762.0)",1.6,nan,1,7586.937,2
0,263,target,"[(1110, 787)]",[],[1],[0.5],vertical,"(390.0, 762.0)",1.6833333333333333,0.457,1,7592.088,2
0,264,target,"[(1111, 778)]",[],[1],[0.55],horizontal,"(890.0, 762.0)",1.3833333333333333,0.506,1,7598.05,2
0,265,catch,"[(1100, 789)]",[],[1],[],horizontal,"(890.0, 762.0)",1.6,nan,1,7603.46,2
0,266,target,"[(1128, 771)]",[],[1],[0.6],horizontal,"(890.0, 262.0)",0.9833333333333333,0.561,1,7608.849,3
0,267,target,"[(1116, 808)]",[],[1],[0.23333333333333334],vertical,"(390.0, 762.0)",1.6666666666666667,0.2,1,7614.495,3
0,268,target,"[(1106, 790)]",[],[1],[0.45],horizontal,"(390.0, 762.0)",1.4833333333333334,0.407,1,7620.594,3
0,269,target,"[(1110, 792)]",[],[1],[0.5666666666666667],horizontal,"(390.0, 762.0)",1.0666666666666667,0.52,1,7626.441,3
0,270,target,"[(1105, 797)]",[],[1],[0.6166666666666667],vertical,"(890.0, 762.0)",0.6833333333333333,0.57,1,7632.468,3
0,271,target,"[(1105, 786)]",[],[1],[0.26666666666666666],horizontal,"(890.0, 262.0)",1.5333333333333332,0.232,1,7637.604,3
0,272,target,"[(1120, 784)]",[],[1],[0.5333333333333333],horizontal,"(890.0, 262.0)",1.0833333333333333,0.492,1,7643.735,3
0,273,target,"[(1105, 776)]",[],[1],[0.55],horizontal,"(890.0, 262.0)",0.8333333333333334,0.506,1,7649.354,3
0,274,target,"[(1107, 786)]",[],[1],[0.5666666666666667],vertical,"(390.0, 262.0)",0.9,0.527,1,7654.725,3
0,275,target,"[(1125, 798)]",[],[1],[0.6],horizontal,"(890.0, 262.0)",1.1166666666666667,0.556,1,7660.796,3
0,276,target,"[(1106, 800)]",[],[1],[0.5166666666666666],vertical,"(390.0, 262.0)",1.3166666666666667,0.474,1,7666.65,3
0,277,target,"[(1126, 799)]",[],[1],[0.6333333333333333],vertical,"(390.0, 262.0)",0.55,0.589,1,7672.159,3
0,278,target,"[(1076, 808)]",[],[1],[],horizontal,"(390.0, 262.0)",,"('cti', 1.454)",0,7677.178,0
0,279,target,"[(1105, 803)]",[],[1],[0.06666666666666667],vertical,"(890.0, 762.0)",1.2666666666666666,0.034,0,7682.073,0
0,280,target,"[(1100, 796)]",[],[1],[0.5166666666666666],horizontal,"(390.0, 262.0)",1.1833333333333333,0.482,1,7686.255,1
0,281,target,"[(1126, 783)]",[],[1],[0.85],vertical,"(890.0, 762.0)",0.5166666666666666,nan,0,7690.939,0
0,282,target,"[(1083, 809)]",[],[1],[0.55],horizontal,"(890.0, 762.0)",0.9,0.509,1,7695.285,1
0,283,target,"[(1123, 796)]",[],[1],[0.43333333333333335],horizontal,"(890.0, 262.0)",1.6333333333333333,0.396,1,7700.574,1
0,284,target,"[(1115, 793)]",[],[1],[0.5833333333333334],vertical,"(890.0, 762.0)",0.9333333333333333,0.539,1,7705.665,2
0,285,catch,"[(1117, 806)]",[],[1],[],vertical,"(890.0, 262.0)",1.6,nan,1,7710.874,2
0,286,target,"[(1123, 803)]",[],[1],[0.85],horizontal,"(890.0, 762.0)",0.6,nan,0,7716.345,0
0,287,target,"[(1081, 807)]",[],[1],[0.5333333333333333],horizontal,"(890.0, 262.0)",0.95,0.494,1,7720.411,1
0,288,catch,"[(1097, 788)]",[],[1],[],vertical,"(890.0, 262.0)",,"('cti', 1.495),nan",0,7725.242,0
0,289,target,"[(1099, 824)]",[],[1],[0.6833333333333333],horizontal,"(890.0, 262.0)",0.65,0.637,1,7730.177,1
0,290,target,"[(1122, 789)]",[],[1],[0.36666666666666664],vertical,"(390.0, 762.0)",1.3333333333333333,0.326,1,7741.72,1
0,291,target,"[(1110, 795)]",[],[1],[0.85],vertical,"(390.0, 762.0)",0.8333333333333334,nan,0,7746.785,0
0,292,target,"[(1100, 805)]",[],[1],[],vertical,"(390.0, 762.0)",,"('cti', 1.606)",0,7751.033,0
0,293,target,"[(1077, 810)]",[],[1],[0.6],horizontal,"(890.0, 262.0)",0.9,0.557,1,7755.72,1
0,294,target,"[(1106, 789)]",[],[1],[0.7333333333333333],horizontal,"(390.0, 762.0)",0.65,0.688,1,7760.355,1
0,295,target,"[(1125, 804)]",[],[1],[0.65],vertical,"(390.0, 762.0)",1.2,0.604,1,7764.74,2
0,296,target,"[(1100, 811)]",[],[1],[],horizontal,"(390.0, 762.0)",,"('cti', 0.7)",0,7770.644,0
0,297,catch,"[(1078, 823)]",[],[1],[],vertical,"(890.0, 762.0)",1.6,nan,1,7774.789,1
0,298,target,"[(404, 655), (96, 467), (62, 402), (400, 321), (337, 633), (398, 1014), (359, 682), (318, 736), (863, 241), (444, 232), (618, 257), (608, 355), (778, 264), (458, 388), (675, 405), (769, 257), (573, 518), (579, 271), (872, 158), (738, 285), (415, 502), (738, 289), (563, 301), (468, 336), (579, 272), (708, 390), (752, 336), (587, 277), (553, 632), (579, 509), (740, 383), (856, 771), (998, 549), (642, 415), (453, 331), (738, 309), (1008, 321), (757, 692), (573, 816), (1000, 342), (900, 321), (848, 245), (592, 337), (608, 499), (458, 272), (613, 105), (613, 474), (569, 489), (615, 363), (662, 486), (536, 287), (768, 499), (516, 158), (587, 197), (579, 425), (746, 293), (593, 494), (748, 501), (623, 464), (590, 212), (974, 510), (1018, 687), (864, 444), (815, 336), (757, 519), (896, 506), (468, 663), (620, 380), (606, 321), (459, 342), (585, 410), (675, 212), (610, 319), (627, 519), (747, 682), (1021, 401), (1028, 382), (704, 444), (1033, 192), (1202, 339), (1192, 489), (1032, 267), (1033, 370), (603, 242), (627, 870), (616, 539), (604, 444), (598, 543), (907, 291), (897, 545), (638, 296), (632, 474), (520, 648), (577, 54), (574, 58), (564, 79), (598, 430), (453, 573), (617, 722), (738, 734), (922, 410), (487, 415), (531, 425), (709, 472), (980, 389), (1028, 404), (992, 302), (1028, 301), (931, 269), (975, 207), (1076, 432), (719, 452), (820, 425), (912, 294), (970, 428), (922, 427), (1082, 256), (1050, 480), (877, 428), (1028, 326), (980, 588), (632, 428), (613, 435), (740, 275), (656, 529), (601, 454), (675, 727), (1066, 736), (155, 274), (595, 470), (410, 585), (135, 586), (1245, 543), (584, 607), (994, 632), (588, 653), (1066, 629), (941, 633), (598, 636), (593, 641), (593, 653), (1066, 628), (1076, 338), (1037, 207), (933, 618), (802, 248), (787, 351), (888, 653), (794, 380), (975, 355), (1120, 158), (1081, 227), (1091, 227), (1008, 286), (999, 256), (960, 293), (801, 300), (951, 274), (1012, 370), (868, 400), (960, 500), (859, 382), (865, 360), (1109, 420), (728, 316), (999, 355), (1081, 109), (1044, 217), (975, 183), (1028, 232), (1134, 360), (1143, 263), (896, 301), (1052, 442), (1013, 426), (1008, 456), (1009, 291), (1086, 385), (1042, 256), (1057, 226), (1003, 216), (1114, 331), (872, 663), (1124, 222), (1114, 231), (783, 281), (840, 222), (882, 192), (859, 258), (881, 533), (878, 213), (878, 256), (503, 368), (451, 350), (559, 355), (550, 415), (263, 360), (458, 389), (507, 355), (566, 383), (680, 667), (425, 430), (540, 694), (285, 747), (683, 885), (679, 776), (699, 286), (714, 623), (1253, 563), (912, 560), (1254, 577), (1254, 587), (1099, 835)]",[],"[0, 0, 0, 0, 0, 0, 0, 0, 0, 0, 0, 0, 0, 0, 0, 0, 0, 0, 0, 0, 0, 0, 0, 0, 0, 0, 0, 0, 0, 0, 0, 0, 0, 0, 0, 0, 0, 0, 0, 0, 0, 0, 0, 0, 0, 0, 0, 0, 0, 0, 0, 0, 0, 0, 0, 0, 0, 0, 0, 0, 0, 0, 0, 0, 0, 0, 0, 0, 0, 0, 0, 0, 0, 0, 0, 0, 0, 0, 0, 0, 0, 0, 0, 0, 0, 0, 0, 0, 0, 0, 0, 0, 0, 0, 0, 0, 0, 0, 0, 0, 0, 0, 0, 0, 0, 0, 0, 0, 0, 0, 0, 0, 0, 0, 0, 0, 0, 0, 0, 0, 0, 0, 0, 0, 0, 0, 0, 0, 0, 0, 0, 0, 0, 0, 0, 0, 0, 0, 0, 0, 0, 0, 0, 0, 0, 0, 0, 0, 0, 0, 0, 0, 0, 0, 0, 0, 0, 0, 0, 0, 0, 0, 0, 0, 0, 0, 0, 0, 0, 0, 0, 0, 0, 0, 0, 0, 0, 0, 0, 0, 0, 0, 0, 0, 0, 0, 0, 0, 0, 0, 0, 0, 0, 0, 0, 0, 0, 0, 0, 0, 0, 0, 0, 0, 0, 0, 0, 0, 0, 0, 0, 0, 1]",[0.85],vertical,"(890.0, 762.0)",0.8666666666666667,nan,0,7780.574,0
0,299,target,"[(1077, 829)]",[],[1],[0.85],horizontal,"(890.0, 262.0)",0.85,nan,0,12249.226,0
0,300,target,"[(1122, 823)]",[],[1],[0.7666666666666666],horizontal,"(890.0, 762.0)",0.85,0.719,1,12253.859,1
0,301,catch,"[(1119, 811)]",[],[1],[],vertical,"(890.0, 262.0)",,"('cti', 1.526),nan",0,12258.517,0
0,302,target,"[(1109, 816)]",[],[1],[0.21666666666666667],vertical,"(390.0, 262.0)",1.55,0.178,0,12263.332,0
0,303,target,"[(1138, 800)]",[],[1],[0.35],horizontal,"(390.0, 262.0)",1.5,0.31,1,12268.369,1
0,304,target,"[(1110, 801)]",[],[1],[0.85],vertical,"(890.0, 262.0)",0.5833333333333334,nan,0,12273.652,0
0,305,target,"[(1077, 800)]",[],[1],[0.5666666666666667],horizontal,"(890.0, 262.0)",1.3666666666666667,0.523,1,12278.308,1
0,306,target,"[(1128, 800)]",[],[1],[0.21666666666666667],vertical,"(890.0, 762.0)",1.5333333333333332,0.183,0,12283.664,0
0,307,target,"[(1103, 796)]",[],[1],[0.85],vertical,"(390.0, 762.0)",0.7166666666666667,nan,0,12288.386,0
0,308,target,"[(1076, 767)]",[],[1],[0.5666666666666667],horizontal,"(390.0, 262.0)",1.2666666666666666,0.523,1,12292.912,1
0,309,catch,"[(1124, 802)]",[],[1],[],horizontal,"(890.0, 262.0)",,"('cti', 1.395),nan",0,12298.159,0
0,310,target,"[(1128, 808)]",[],[1],[0.6166666666666667],vertical,"(390.0, 762.0)",1.0,0.573,1,12302.575,1
0,311,target,"[(1148, 806)]",[],[1],[0.5666666666666667],vertical,"(390.0, 262.0)",1.0666666666666667,0.526,1,12307.416,1
0,312,target,"[(1125, 810)]",[],[1],[0.7],vertical,"(390.0, 262.0)",0.8666666666666667,0.656,1,12312.561,2
0,313,target,"[(1129, 801)]",[],[1],[0.5333333333333333],horizontal,"(390.0, 262.0)",1.0333333333333332,0.49,1,12318.144,2
0,314,target,"[(1111, 797)]",[],[1],[0.55],horizontal,"(390.0, 762.0)",0.7166666666666667,0.507,1,12323.097,2
0,315,target,"[(1123, 803)]",[],[1],[],horizontal,"(890.0, 262.0)",,"('cti', 1.597)",0,12328.122,0
0,316,catch,"[(1115, 794)]",[],[1],[],vertical,"(890.0, 262.0)",1.6,nan,1,12333.161,1
0,317,target,"[(1124, 806)]",[],[1],[0.8166666666666667],vertical,"(890.0, 762.0)",1.0833333333333333,0.77,1,12338.065,1
0,318,target,"[(1127, 801)]",[],[1],[0.6333333333333333],vertical,"(390.0, 762.0)",0.9333333333333333,0.589,1,12343.262,2
0,319,target,"[(1125, 806)]",[],[1],[0.11666666666666667],horizontal,"(890.0, 262.0)",1.65,0.085,0,12348.27,0
0,320,target,"[(1134, 795)]",[],[1],[0.35],horizontal,"(890.0, 762.0)",1.5,0.31,1,12352.848,1
0,321,catch,"[(1125, 791)]",[],[1],[],horizontal,"(890.0, 262.0)",1.6,nan,1,12358.04,1
0,322,target,"[(1107, 791)]",[],[1],[0.4],horizontal,"(390.0, 262.0)",1.2166666666666666,0.368,1,12362.518,2
0,323,catch,"[(1125, 791)]",[],[1],[],horizontal,"(390.0, 262.0)",1.6,nan,1,12367.804,2
0,324,target,"[(1129, 791)]",[],[1],[0.5666666666666667],vertical,"(890.0, 262.0)",0.5333333333333333,0.523,1,12373.036,2
0,325,target,"[(1111, 793)]",[],[1],[0.55],vertical,"(390.0, 762.0)",1.2833333333333332,0.506,1,12377.492,2
0,326,target,"[(1082, 807)]",[],[1],[0.5833333333333334],vertical,"(890.0, 262.0)",0.7666666666666666,0.544,1,12382.818,3
0,327,target,"[(1110, 791)]",[],[1],[0.55],vertical,"(390.0, 262.0)",0.6833333333333333,0.504,1,12388.414,3
0,328,target,"[(1120, 801)]",[],[1],[0.5833333333333334],horizontal,"(390.0, 262.0)",0.6,0.536,1,12393.786,3
0,329,target,"[(1109, 793)]",[],[1],[0.5333333333333333],horizontal,"(890.0, 762.0)",1.0333333333333332,0.491,1,12398.84,3
0,330,target,"[(1128, 796)]",[],[1],[],horizontal,"(390.0, 262.0)",,"('cti', 1.279)",0,12404.342,0
0,331,target,"[(1076, 815)]",[],[1],[0.23333333333333334],vertical,"(890.0, 262.0)",1.6666666666666667,0.195,0,12408.907,0
0,332,target,"[(1110, 819)]",[],[1],[0.85],vertical,"(890.0, 262.0)",1.3333333333333333,nan,0,12413.56,0
0,333,target,"[(1127, 813)]",[],[1],[],vertical,"(390.0, 762.0)",,"('cti', 1.376)",0,12418.437,0
0,334,target,"[(1091, 819)]",[],[1],[0.5166666666666666],horizontal,"(890.0, 762.0)",1.5666666666666667,0.48,1,12422.686,1
0,335,target,"[(1122, 808)]",[],[1],[0.48333333333333334],vertical,"(890.0, 762.0)",1.4166666666666667,0.439,1,12428.451,1
0,336,target,"[(1147, 804)]",[],[1],[0.6],vertical,"(890.0, 762.0)",1.15,0.554,1,12433.863,2
0,337,catch,"[(1124, 793)]",[],[1],[],vertical,"(390.0, 262.0)",,"('cti', 1.143),nan",0,12439.379,0
0,338,target,"[(1116, 803)]",[],[1],[0.5833333333333334],horizontal,"(890.0, 762.0)",1.1,0.536,1,12443.262,1
0,339,catch,"[(1110, 794)]",[],[1],[],vertical,"(390.0, 262.0)",1.6,nan,1,12448.112,1
0,340,target,"[(1115, 799)]",[],[1],[0.55],vertical,"(390.0, 762.0)",0.6166666666666667,0.508,1,12453.009,2
0,341,target,"[(1124, 784)]",[],[1],[0.6666666666666666],horizontal,"(890.0, 262.0)",0.85,0.624,1,12458.254,2
0,342,target,"[(1115, 804)]",[],[1],[0.5666666666666667],horizontal,"(390.0, 762.0)",0.65,0.529,1,12463.73,2
0,343,target,"[(1113, 801)]",[],[1],[0.6833333333333333],horizontal,"(390.0, 762.0)",0.8666666666666667,0.632,1,12468.805,2
0,344,target,"[(1116, 801)]",[],[1],[0.4],vertical,"(390.0, 762.0)",1.5166666666666666,0.359,1,12474.054,3
0,345,catch,"[(1110, 794)]",[],[1],[],horizontal,"(390.0, 262.0)",1.6,nan,1,12480.251,3
0,346,target,"[(1103, 810)]",[],[1],[0.1],horizontal,"(390.0, 262.0)",1.6166666666666667,0.067,0,12485.516,0
0,347,target,"[(1113, 783)]",[],[1],[0.6833333333333333],vertical,"(390.0, 762.0)",1.3,0.656,1,12490.625,1
0,348,catch,"[(1110, 798)]",[],[1],[],vertical,"(890.0, 762.0)",1.6,nan,1,12495.994,1
0,349,target,"[(1115, 794)]",[],[1],[0.85],vertical,"(890.0, 762.0)",0.55,nan,0,12501.012,0
0,350,target,"[(1096, 799)]",[],[1],[0.5666666666666667],horizontal,"(890.0, 262.0)",0.7166666666666667,0.534,1,12505.168,1
0,351,catch,"[(1112, 774)]",[],[1],[],vertical,"(390.0, 262.0)",1.6,nan,1,12510.159,1
0,352,target,"[(1143, 791)]",[],[1],[0.5833333333333334],vertical,"(390.0, 262.0)",0.95,0.533,1,12515.339,2
0,353,target,"[(1148, 804)]",[],[1],[0.6],horizontal,"(890.0, 762.0)",0.7166666666666667,0.554,1,12520.505,2
0,354,catch,"[(1115, 792)]",[],[1],[],horizontal,"(390.0, 762.0)",1.6,nan,1,12525.334,2
0,355,target,"[(1119, 791)]",[],[1],[0.16666666666666666],vertical,"(890.0, 262.0)",1.6333333333333333,0.13,0,12530.601,0
0,356,target,"[(1118, 792)]",[],[1],[0.85],vertical,"(390.0, 762.0)",0.7,nan,0,12535.131,0
0,357,catch,"[(1082, 793)]",[],[1],[],horizontal,"(390.0, 762.0)",1.6,nan,1,12539.615,1
0,358,target,"[(1121, 788)]",[],[1],[0.85],horizontal,"(390.0, 262.0)",0.6666666666666666,nan,0,12544.43,0
0,359,target,"[(1096, 796)]",[],[1],[0.5833333333333334],horizontal,"(890.0, 262.0)",0.6833333333333333,0.538,1,12548.911,1
0,360,catch,"[(1121, 791)]",[],[1],[],vertical,"(390.0, 762.0)",1.6,nan,1,12553.339,1
0,361,target,"[(1112, 783)]",[],[1],[0.6333333333333333],horizontal,"(390.0, 262.0)",1.05,0.586,1,12558.493,2
0,362,target,"[(1120, 810)]",[],[1],[0.45],horizontal,"(390.0, 262.0)",1.5833333333333333,0.414,1,12564.211,2
0,363,target,"[(1119, 798)]",[],[1],[0.6833333333333333],vertical,"(890.0, 262.0)",1.0166666666666666,0.639,1,12569.965,2
0,364,target,"[(1119, 790)]",[],[1],[0.43333333333333335],vertical,"(390.0, 262.0)",0.8,0.393,1,12575.167,2
0,365,target,"[(1122, 813)]",[],[1],[0.85],vertical,"(390.0, 262.0)",1.2,"('cti', 1.19),nan",0,12580.036,0
0,366,target,"[(1119, 809)]",[],[1],[0.7166666666666667],horizontal,"(890.0, 262.0)",1.1833333333333333,0.67,1,12585.042,1
0,367,target,"[(1121, 797)]",[],[1],[0.65],horizontal,"(390.0, 262.0)",1.3,0.601,1,12590.048,1
0,368,target,"[(1123, 813)]",[],[1],[0.4166666666666667],vertical,"(890.0, 762.0)",1.3833333333333333,0.37,1,12595.089,2
0,369,target,"[(1098, 798)]",[],[1],[0.85],vertical,"(390.0, 762.0)",0.55,nan,0,12600.511,0
0,370,target,"[(1076, 801)]",[],[1],[0.13333333333333333],horizontal,"(890.0, 762.0)",1.6666666666666667,0.097,0,12604.949,0
0,371,target,"[(1112, 792)]",[],[1],[0.43333333333333335],horizontal,"(390.0, 262.0)",1.4666666666666666,0.391,1,12609.842,1
0,372,target,"[(1117, 798)]",[],[1],[0.6333333333333333],vertical,"(390.0, 262.0)",1.0666666666666667,0.592,1,12615.04,1
0,373,target,"[(1112, 806)]",[],[1],[],vertical,"(390.0, 262.0)",,"('cti', 1.141)",0,12619.653,0
0,374,target,"[(1091, 792)]",[],[1],[0.7],vertical,"(890.0, 262.0)",1.2166666666666666,0.656,1,12623.904,1
0,375,catch,"[(1114, 792)]",[],[1],[],vertical,"(390.0, 762.0)",1.6,nan,1,12629.22,1
0,376,target,"[(1125, 798)]",[],[1],[0.6833333333333333],horizontal,"(390.0, 262.0)",0.6666666666666666,0.633,1,12633.918,2
0,377,target,"[(1119, 791)]",[],[1],[0.23333333333333334],vertical,"(390.0, 262.0)",1.55,0.195,0,12638.818,0
0,378,target,"[(1083, 776)]",[],[1],[0.7],vertical,"(390.0, 762.0)",1.0833333333333333,0.66,1,12643.739,1
0,379,catch,"[(1124, 790)]",[],[1],[],vertical,"(890.0, 762.0)",1.6,nan,1,12648.515,1
0,380,target,"[(1109, 781)]",[],[1],[0.5333333333333333],horizontal,"(890.0, 762.0)",1.2833333333333332,0.49,1,12653.578,2
0,381,target,"[(1126, 800)]",[],[1],[0.8333333333333334],vertical,"(890.0, 762.0)",0.5,0.785,1,12659.264,2
0,382,target,"[(1110, 804)]",[],[1],[0.4166666666666667],vertical,"(390.0, 262.0)",1.45,0.373,1,12664.174,2
0,383,target,"[(1110, 795)]",[],[1],[0.6166666666666667],horizontal,"(890.0, 762.0)",0.6833333333333333,0.571,1,12669.979,2
0,384,target,"[(1105, 788)]",[],[1],[0.85],horizontal,"(890.0, 762.0)",0.55,nan,0,12675.041,0
0,385,target,"[(1092, 814)]",[],[1],[0.5],horizontal,"(890.0, 762.0)",1.55,0.459,1,12679.369,1
0,386,catch,"[(1126, 792)]",[],[1],[],horizontal,"(890.0, 262.0)",1.6,nan,1,12684.536,1
0,387,target,"[(1121, 787)]",[],[1],[0.6666666666666666],vertical,"(890.0, 762.0)",1.2,0.619,1,12689.583,2
0,388,target,"[(1106, 792)]",[],[1],[0.85],vertical,"(390.0, 762.0)",0.5,nan,0,12694.878,0
0,389,target,"[(1070, 807)]",[],[1],[0.6333333333333333],vertical,"(890.0, 262.0)",0.7166666666666667,0.586,1,12699.313,1
0,390,target,"[(1122, 789)]",[],[1],[0.6333333333333333],vertical,"(390.0, 262.0)",0.6333333333333333,0.589,1,12704.278,1
0,391,target,"[(1105, 802)]",[],[1],[0.6833333333333333],vertical,"(390.0, 762.0)",1.2333333333333334,0.635,1,12708.816,2
0,392,catch,"[(1120, 788)]",[],[1],[],vertical,"(390.0, 762.0)",1.6,nan,1,12714.418,2
0,393,target,"[(1100, 800)]",[],[1],[0.21666666666666667],horizontal,"(390.0, 262.0)",1.6833333333333333,0.18,0,12719.918,0
0,394,target,"[(1123, 792)]",[],[1],[0.7666666666666666],horizontal,"(890.0, 762.0)",0.5666666666666667,0.716,1,12724.938,1
0,395,target,"[(1123, 789)]",[],[1],[0.55],horizontal,"(390.0, 762.0)",0.65,0.504,1,12729.702,1
0,396,target,"[(1105, 788)]",[],[1],[0.4666666666666667],vertical,"(890.0, 262.0)",1.5166666666666666,0.426,1,12734.38,2
0,397,target,"[(1120, 781)]",[],[1],[0.85],horizontal,"(890.0, 762.0)",0.5,nan,0,12740.196,0
0,398,target,"[(1105, 791)]",[],[1],[0.6],vertical,"(890.0, 762.0)",0.9,0.553,1,12744.787,1
0,399,target,"[(1105, 806)]",[],[1],[0.85],vertical,"(390.0, 762.0)",0.6166666666666667,nan,0,12749.498,0
0,400,catch,"[(1086, 796)]",[],[1],[],vertical,"(390.0, 762.0)",1.6,nan,1,12754.38,1
0,401,catch,"[(1105, 794)]",[],[1],[],horizontal,"(890.0, 762.0)",1.6,nan,1,12759.294,1
0,402,target,"[(1119, 795)]",[],[1],[0.31666666666666665],vertical,"(890.0, 762.0)",1.5166666666666666,0.276,1,12764.193,2
0,403,target,"[(1139, 803)]",[],[1],[0.6166666666666667],vertical,"(390.0, 762.0)",0.7333333333333333,0.578,1,12769.507,2
0,404,target,"[(1126, 792)]",[],[1],[0.5666666666666667],vertical,"(390.0, 262.0)",1.1666666666666667,0.518,1,12774.511,2
0,405,target,"[(1122, 800)]",[],[1],[0.3],horizontal,"(390.0, 762.0)",1.5833333333333333,0.262,1,12779.687,2
0,406,target,"[(1121, 794)]",[],[1],[0.7333333333333333],vertical,"(390.0, 262.0)",0.8666666666666667,0.686,1,12785.252,3
0,407,target,"[(1123, 792)]",[],[1],[0.65],horizontal,"(390.0, 762.0)",0.7333333333333333,0.622,1,12791.134,3
0,408,target,"[(1110, 795)]",[],[1],[0.5],vertical,"(390.0, 262.0)",0.95,0.458,1,12796.48,3
0,409,target,"[(1118, 815)]",[],[1],[0.75],vertical,"(390.0, 762.0)",0.9833333333333333,0.709,1,12801.813,3
0,410,target,"[(1108, 796)]",[],[1],[0.6],vertical,"(890.0, 262.0)",0.6,0.555,1,12807.578,3
0,411,target,"[(1106, 782)]",[],[1],[0.85],horizontal,"(390.0, 762.0)",0.5333333333333333,nan,0,12812.976,0
0,412,target,"[(1076, 796)]",[],[1],[0.5666666666666667],horizontal,"(890.0, 262.0)",0.7166666666666667,0.531,1,12817.275,1
0,413,target,"[(1112, 795)]",[],[1],[0.65],vertical,"(390.0, 262.0)",1.0,0.605,1,12822.223,1
0,414,target,"[(1105, 791)]",[],[1],[0.7],vertical,"(390.0, 262.0)",1.1666666666666667,0.649,1,12827.022,2
0,415,catch,"[(1120, 794)]",[],[1],[],horizontal,"(890.0, 262.0)",1.6,nan,1,12832.371,2
0,416,target,"[(1105, 792)]",[],[1],[0.55],horizontal,"(890.0, 262.0)",1.1833333333333333,0.51,1,12837.602,2
0,417,catch,"[(1105, 804)]",[],[1],[],vertical,"(390.0, 262.0)",1.6,nan,1,12842.861,2
0,418,target,"[(1115, 790)]",[],[1],[0.6],horizontal,"(390.0, 762.0)",0.6166666666666667,0.563,1,12847.898,3
0,419,target,"[(1106, 791)]",[],[1],[0.55],vertical,"(890.0, 262.0)",0.9166666666666666,0.503,1,12853.451,3
0,420,catch,"[(1120, 781)]",[],[1],[],horizontal,"(890.0, 762.0)",,"('cti', 1.565),nan",0,12859.121,0
0,421,target,"[(1109, 806)]",[],[1],[0.6333333333333333],vertical,"(390.0, 262.0)",0.75,0.587,1,12863.933,1
0,422,target,"[(1110, 798)]",[],[1],[0.5],horizontal,"(890.0, 762.0)",0.7833333333333333,0.46,1,12868.808,1
0,423,target,"[(1131, 802)]",[],[1],[0.6333333333333333],horizontal,"(890.0, 762.0)",0.6,0.592,1,12873.807,2
0,424,target,"[(1129, 791)]",[],[1],[0.7],vertical,"(390.0, 762.0)",0.6333333333333333,0.654,1,12879.305,2
0,425,target,"[(1121, 794)]",[],[1],[],vertical,"(390.0, 262.0)",,"('cti', 1.189)",0,12884.586,0
0,426,target,"[(1124, 795)]",[],[1],[0.5833333333333334],horizontal,"(890.0, 262.0)",0.7,0.542,1,12888.818,1
0,427,target,"[(1122, 791)]",[],[1],[0.6],horizontal,"(390.0, 762.0)",1.1333333333333333,0.554,1,12893.109,1
0,428,target,"[(1124, 789)]",[],[1],[0.43333333333333335],horizontal,"(890.0, 262.0)",1.1166666666666667,0.394,1,12898.427,2
0,429,catch,"[(1124, 795)]",[],[1],[],vertical,"(890.0, 762.0)",1.6,nan,1,12903.953,2
0,430,target,"[(1123, 804)]",[],[1],[0.3],horizontal,"(390.0, 262.0)",1.5666666666666667,0.264,1,12909.362,2
0,431,target,"[(1127, 780)]",[],[1],[0.36666666666666664],vertical,"(890.0, 762.0)",1.4,0.329,1,12914.775,2
0,432,target,"[(1125, 785)]",[],[1],[0.5333333333333333],horizontal,"(890.0, 262.0)",1.25,0.487,1,12920.008,3
0,433,target,"[(1118, 793)]",[],[1],[],horizontal,"(890.0, 262.0)",,"('cti', 1.535)",0,12925.811,0
0,434,target,"[(1088, 795)]",[],[1],[0.65],vertical,"(390.0, 762.0)",1.2666666666666666,0.604,1,12930.305,1
0,435,target,"[(1121, 786)]",[],[1],[0.55],vertical,"(890.0, 762.0)",0.8666666666666667,0.51,1,12935.37,1
0,436,catch,"[(1105, 779)]",[],[1],[],vertical,"(890.0, 262.0)",,"('cti', 1.551),nan",0,12940.135,0
0,437,target,"[(1127, 800)]",[],[1],[0.7166666666666667],horizontal,"(390.0, 262.0)",0.6166666666666667,0.674,1,12945.184,1
0,438,target,"[(1128, 778)]",[],[1],[0.7333333333333333],horizontal,"(890.0, 762.0)",1.0,0.683,1,12949.615,1
0,439,target,"[(1121, 783)]",[],[1],[0.5333333333333333],vertical,"(890.0, 762.0)",1.0,0.489,1,12954.543,2
0,440,target,"[(1120, 795)]",[],[1],[0.5666666666666667],vertical,"(390.0, 262.0)",0.8333333333333334,0.518,1,12959.59,2
0,441,target,"[(1124, 793)]",[],[1],[0.5666666666666667],vertical,"(890.0, 762.0)",0.9166666666666666,0.528,1,12964.616,2
0,442,target,"[(1105, 786)]",[],[1],[0.5166666666666666],vertical,"(890.0, 262.0)",0.9,0.472,1,12969.963,2
0,443,target,"[(1124, 801)]",[],[1],[0.08333333333333333],horizontal,"(890.0, 762.0)",1.6666666666666667,0.05,0,12975.084,0
0,444,target,"[(1120, 804)]",[],[1],[0.5666666666666667],horizontal,"(890.0, 262.0)",0.8166666666666667,0.524,1,12979.828,1
0,445,target,"[(1123, 794)]",[],[1],[0.08333333333333333],horizontal,"(390.0, 762.0)",1.6666666666666667,0.052,0,12984.538,0
0,446,catch,"[(1114, 798)]",[],[1],[],vertical,"(390.0, 262.0)",1.6,nan,1,12989.605,1
0,447,target,"[(1134, 791)]",[],[1],[0.5333333333333333],horizontal,"(890.0, 262.0)",1.1,0.492,1,12994.276,1
0,448,target,"[(1107, 786)]",[],[1],[0.21666666666666667],vertical,"(390.0, 262.0)",1.4333333333333333,0.181,0,12998.883,0
0,449,target,"[(1105, 797)]",[],[1],[0.65],horizontal,"(390.0, 262.0)",0.5666666666666667,0.609,1,13003.731,1
0,450,target,"[(1147, 791)]",[],[1],[0.36666666666666664],horizontal,"(890.0, 762.0)",1.3,0.328,1,13008.347,1
0,451,target,"[(1128, 785)]",[],[1],[0.5666666666666667],horizontal,"(890.0, 262.0)",1.3833333333333333,0.523,1,13013.761,2
0,452,target,"[(1109, 776)]",[],[1],[0.5166666666666666],horizontal,"(390.0, 262.0)",1.2,0.477,1,13019.243,2
0,453,target,"[(1123, 796)]",[],[1],[0.5833333333333334],horizontal,"(890.0, 762.0)",1.2,0.545,1,13024.819,2
0,454,target,"[(1125, 810)]",[],[1],[0.5333333333333333],horizontal,"(390.0, 262.0)",1.4166666666666667,0.501,1,13030.073,2
0,455,target,"[(1123, 811)]",[],[1],[0.55],vertical,"(890.0, 762.0)",1.0,0.504,1,13035.71,3
0,456,catch,"[(1132, 802)]",[],[1],[],horizontal,"(390.0, 762.0)",1.6,nan,1,13041.336,3
0,457,target,"[(1114, 807)]",[],[1],[0.6666666666666666],horizontal,"(390.0, 262.0)",0.8333333333333334,0.621,1,13046.874,3
0,458,target,"[(1110, 790)]",[],[1],[0.65],vertical,"(890.0, 762.0)",1.05,0.604,1,13052.565,3
0,459,target,"[(1116, 791)]",[],[1],[0.5333333333333333],horizontal,"(890.0, 762.0)",1.3833333333333333,0.491,1,13058.406,3
0,460,target,"[(1096, 791)]",[],[1],[0.5166666666666666],horizontal,"(390.0, 762.0)",1.2166666666666666,0.478,1,13064.211,3
0,461,target,"[(1123, 811)]",[],[1],[0.2],horizontal,"(390.0, 262.0)",1.5333333333333332,0.167,0,13070.045,0
0,462,target,"[(1120, 797)]",[],[1],[0.5666666666666667],horizontal,"(890.0, 262.0)",1.3,0.522,1,13074.558,1
0,463,catch,"[(1124, 795)]",[],[1],[],vertical,"(890.0, 762.0)",1.6,nan,1,13079.419,1
0,464,target,"[(1118, 793)]",[],[1],[0.7166666666666667],horizontal,"(890.0, 762.0)",0.9833333333333333,0.672,1,13084.388,2
0,465,target,"[(1124, 787)]",[],[1],[0.85],horizontal,"(390.0, 262.0)",0.5666666666666667,nan,0,13090.113,0
0,466,target,"[(1072, 796)]",[],[1],[0.6333333333333333],horizontal,"(890.0, 762.0)",0.8166666666666667,0.587,1,13094.619,1
0,467,target,"[(1121, 785)]",[],[1],[0.6],horizontal,"(890.0, 262.0)",1.2666666666666666,0.556,1,13099.412,1
0,468,target,"[(1120, 788)]",[],[1],[0.6666666666666666],vertical,"(890.0, 262.0)",1.2166666666666666,0.62,1,13104.199,2
0,469,target,"[(1119, 807)]",[],[1],[0.8],vertical,"(390.0, 762.0)",1.0333333333333332,0.753,1,13109.88,2
0,470,catch,"[(1124, 814)]",[],[1],[],vertical,"(390.0, 762.0)",1.6,nan,1,13115.645,2
0,471,target,"[(1123, 801)]",[],[1],[0.1],vertical,"(390.0, 262.0)",1.4666666666666666,0.069,0,13120.76,0
0,472,target,"[(1079, 824)]",[],[1],[0.7333333333333333],vertical,"(890.0, 762.0)",0.7833333333333333,0.686,1,13125.558,1
0,473,target,"[(1120, 802)]",[],[1],[0.65],horizontal,"(890.0, 762.0)",0.5,0.607,1,13149.457,1
0,474,target,"[(1100, 804)]",[],[1],[0.6666666666666666],vertical,"(890.0, 762.0)",1.2333333333333334,0.624,1,13154.329,2
0,475,catch,"[(1110, 804)]",[],[1],[],horizontal,"(890.0, 262.0)",1.6,nan,1,13159.926,2
0,476,catch,"[(1100, 796)]",[],[1],[],vertical,"(390.0, 262.0)",1.6,nan,1,13165.269,2
0,477,target,"[(1125, 797)]",[],[1],[0.6166666666666667],horizontal,"(390.0, 262.0)",1.0666666666666667,0.571,1,13170.568,2
0,478,target,"[(1123, 795)]",[],[1],[0.4666666666666667],vertical,"(390.0, 762.0)",1.4833333333333334,0.431,1,13175.776,3
0,479,catch,"[(1120, 793)]",[],[1],[],horizontal,"(890.0, 262.0)",1.6,nan,1,13182.523,3
0,480,target,"[(1123, 810)]",[],[1],[0.5333333333333333],horizontal,"(390.0, 262.0)",0.9333333333333333,0.495,1,13188.211,3
0,481,target,"[(1113, 782)]",[],[1],[0.7],vertical,"(890.0, 762.0)",0.6166666666666667,0.656,1,13194.146,3
0,482,target,"[(1107, 797)]",[],[1],[0.3333333333333333],horizontal,"(390.0, 762.0)",1.3833333333333333,0.301,1,13199.651,3
0,483,target,"[(1109, 798)]",[],[1],[0.3],horizontal,"(390.0, 262.0)",1.25,0.26,1,13205.584,3
0,484,catch,"[(1096, 796)]",[],[1],[],vertical,"(390.0, 262.0)",,"('cti', 1.557),nan",0,13211.88,0
0,485,target,"[(1097, 792)]",[],[1],[0.85],horizontal,"(390.0, 262.0)",0.6666666666666666,nan,0,13216.946,0
0,486,target,"[(1100, 800)]",[],[1],[0.5333333333333333],vertical,"(390.0, 262.0)",0.6833333333333333,0.489,1,13221.397,1
0,487,target,"[(1124, 784)]",[],[1],[0.6333333333333333],horizontal,"(390.0, 762.0)",1.05,0.589,1,13225.705,1
0,488,target,"[(1120, 798)]",[],[1],[0.7333333333333333],horizontal,"(390.0, 262.0)",1.0,0.682,1,13230.584,2
0,489,catch,"[(1133, 806)]",[],[1],[],vertical,"(890.0, 762.0)",1.6,nan,1,13236.321,2
0,490,catch,"[(1111, 804)]",[],[1],[],horizontal,"(390.0, 762.0)",1.6,nan,1,13241.349,2
0,491,target,"[(1127, 804)]",[],[1],[0.6666666666666666],horizontal,"(890.0, 262.0)",0.5333333333333333,0.622,1,13246.488,2
0,492,target,"[(1106, 800)]",[],[1],[0.48333333333333334],vertical,"(390.0, 762.0)",1.2166666666666666,0.445,1,13251.617,3
0,493,target,"[(1128, 800)]",[],[1],[0.15],horizontal,"(390.0, 262.0)",1.6333333333333333,0.118,0,13257.849,0
0,494,target,"[(1117, 804)]",[],[1],[0.4166666666666667],vertical,"(890.0, 262.0)",1.3,0.373,1,13262.664,1
0,495,target,"[(1134, 808)]",[],[1],[0.36666666666666664],vertical,"(890.0, 762.0)",1.5666666666666667,0.325,1,13267.842,1
0,496,target,"[(1100, 796)]",[],[1],[0.85],horizontal,"(390.0, 262.0)",1.0833333333333333,nan,0,13272.877,0
0,497,target,"[(1107, 804)]",[],[1],[0.6166666666666667],horizontal,"(890.0, 762.0)",0.95,0.578,1,13278.142,1
0,498,target,"[(1125, 798)]",[],[1],"[0.85, 0.85]",horizontal,"(390.0, 762.0)",0.8333333333333334,"0.802,nan",0,13283.093,0
0,499,target,"[(1062, 795)]",[],[1],[0.85],horizontal,"(890.0, 762.0)",0.5666666666666667,nan,0,13288.102,0
0,500,target,"[(1081, 791)]",[],[1],[0.6166666666666667],horizontal,"(890.0, 262.0)",1.2666666666666666,0.573,1,13292.573,1
0,501,catch,"[(1127, 798)]",[],[1],[],vertical,"(890.0, 762.0)",1.6,nan,1,13297.99,1
0,502,target,"[(1128, 806)]",[],[1],[0.5833333333333334],vertical,"(890.0, 762.0)",0.75,0.541,1,13302.629,2
0,503,target,"[(1123, 797)]",[],[1],[0.43333333333333335],horizontal,"(390.0, 762.0)",1.3,0.393,1,13307.799,2
0,504,catch,"[(1096, 796)]",[],[1],[],vertical,"(890.0, 262.0)",1.6,nan,1,13312.848,2
0,505,target,"[(1118, 796)]",[],[1],[0.13333333333333333],horizontal,"(890.0, 762.0)",1.25,0.1,0,13318.483,0
0,506,target,"[(1118, 818)]",[],[1],[0.55],vertical,"(390.0, 262.0)",1.4333333333333333,0.504,1,13323.395,1
0,507,target,"[(1120, 806)]",[],[1],[0.6333333333333333],horizontal,"(390.0, 762.0)",0.8833333333333333,0.587,1,13328.441,1
0,508,catch,"[(1124, 805)]",[],[1],[],horizontal,"(390.0, 762.0)",1.6,nan,1,13333.341,2
0,509,target,"[(1102, 791)]",[],[1],[0.15],vertical,"(390.0, 262.0)",1.65,0.12,0,13338.789,0
0,510,target,"[(1099, 795)]",[],[1],[0.55],vertical,"(890.0, 262.0)",1.0,0.507,1,13343.421,1
0,511,target,"[(1129, 788)]",[],[1],[0.75],horizontal,"(890.0, 762.0)",1.0166666666666666,0.702,1,13348.336,1
0,512,target,"[(1130, 830)]",[],[1],[0.4],horizontal,"(390.0, 762.0)",1.5333333333333332,0.361,1,13353.206,2
0,513,target,"[(1129, 806)]",[],[1],[0.6166666666666667],horizontal,"(390.0, 762.0)",0.7166666666666667,0.574,1,13358.882,2
0,514,target,"[(1134, 784)]",[],[1],[0.6166666666666667],horizontal,"(390.0, 262.0)",1.15,0.569,1,13364.114,2
0,515,target,"[(1128, 799)]",[],[1],[],vertical,"(390.0, 762.0)",,"('cti', 1.2)",0,13369.518,0
0,516,target,"[(1096, 803)]",[],[1],[0.5666666666666667],horizontal,"(890.0, 262.0)",1.0166666666666666,0.532,1,13374.044,1
0,517,catch,"[(1109, 787)]",[],[1],[],vertical,"(390.0, 262.0)",1.6,nan,1,13378.588,1
0,518,target,"[(1129, 778)]",[],[1],[0.6],vertical,"(390.0, 262.0)",1.2666666666666666,0.555,1,13383.625,2
0,519,target,"[(1127, 786)]",[],[1],[0.21666666666666667],horizontal,"(890.0, 262.0)",1.4833333333333334,0.181,0,13389.215,0
0,520,target,"[(1123, 800)]",[],[1],[0.16666666666666666],horizontal,"(890.0, 262.0)",1.6333333333333333,0.131,0,13394.177,0
0,521,target,"[(661, 405), (694, 400), (724, 462), (748, 482), (776, 512), (772, 533), (820, 685), (998, 535), (1091, 823)]",[],"[0, 0, 0, 0, 0, 0, 0, 0, 1]",[0.75],horizontal,"(390.0, 762.0)",1.5666666666666667,0.706,1,13399.036,1
0,522,target,"[(1071, 802)]",[],[1],[0.7],horizontal,"(890.0, 262.0)",0.95,0.653,1,13411.46,1
0,523,catch,"[(1114, 835)]",[],[1],[],horizontal,"(390.0, 262.0)",1.6,nan,1,13416.847,2
0,524,target,"[(1114, 801)]",[],[1],[0.75],horizontal,"(890.0, 262.0)",0.8833333333333333,0.704,1,13422.228,2
0,525,catch,"[(1104, 801)]",[],[1],[],vertical,"(890.0, 262.0)",1.6,nan,1,13427.268,2
0,526,target,"[(1133, 808)]",[],[1],[0.85],vertical,"(390.0, 762.0)",0.85,nan,0,13432.676,0
0,527,catch,"[(1082, 806)]",[],[1],[],vertical,"(890.0, 762.0)",1.6,nan,1,13437.157,1
0,528,target,"[(1105, 805)]",[],[1],[0.5833333333333334],horizontal,"(390.0, 762.0)",1.2333333333333334,0.541,1,13441.823,1
0,529,target,"[(1120, 800)]",[],[1],[0.55],horizontal,"(390.0, 762.0)",1.0666666666666667,0.505,1,13447.104,2
0,530,target,"[(1123, 804)]",[],[1],[0.5666666666666667],vertical,"(390.0, 262.0)",0.9833333333333333,0.522,1,13452.785,2
0,531,target,"[(1111, 800)]",[],[1],[0.6833333333333333],vertical,"(390.0, 762.0)",1.15,0.638,1,13457.717,2
0,532,target,"[(1100, 797)]",[],[1],[0.6333333333333333],horizontal,"(390.0, 262.0)",0.5833333333333334,0.593,1,13463.248,2
0,533,target,"[(1124, 791)]",[],[1],[0.25],horizontal,"(390.0, 262.0)",1.6666666666666667,0.212,1,13468.264,3
0,534,target,"[(1123, 795)]",[],[1],[0.13333333333333333],vertical,"(890.0, 262.0)",1.6166666666666667,0.099,0,13474.096,0
0,535,target,"[(1105, 801)]",[],[1],[0.7333333333333333],horizontal,"(390.0, 762.0)",0.9166666666666666,0.688,1,13478.694,1
0,536,target,"[(1110, 805)]",[],[1],[0.5333333333333333],horizontal,"(890.0, 762.0)",1.15,0.491,1,13483.976,1
0,537,target,"[(1117, 791)]",[],[1],[0.7333333333333333],vertical,"(390.0, 262.0)",1.2166666666666666,0.685,1,13488.758,2
0,538,target,"[(1105, 791)]",[],[1],[0.21666666666666667],vertical,"(890.0, 262.0)",1.6333333333333333,0.185,0,13494.216,0
0,539,catch,"[(1103, 779)]",[],[1],[],horizontal,"(390.0, 262.0)",1.6,nan,1,13499.271,1
0,540,catch,"[(1123, 786)]",[],[1],[],vertical,"(390.0, 262.0)",1.6,nan,1,13504.402,1
0,541,target,"[(1135, 799)]",[],[1],[0.11666666666666667],vertical,"(390.0, 262.0)",1.6833333333333333,0.086,0,13509.002,0
0,542,catch,"[(1114, 801)]",[],[1],[],vertical,"(390.0, 762.0)",,"('cti', 1.359),nan",0,13513.78,0
0,543,target,"[(1110, 801)]",[],[1],[0.65],vertical,"(890.0, 262.0)",0.9333333333333333,0.609,1,13518.348,1
0,544,target,"[(1120, 796)]",[],[1],[0.13333333333333333],vertical,"(390.0, 262.0)",1.5166666666666666,0.098,0,13522.852,0
0,545,target,"[(1110, 808)]",[],[1],[0.6166666666666667],vertical,"(390.0, 262.0)",0.5666666666666667,0.571,1,13527.823,1
0,546,target,"[(1120, 792)]",[],[1],[0.23333333333333334],vertical,"(390.0, 762.0)",1.55,0.201,1,13532.026,1
0,547,catch,"[(1120, 798)]",[],[1],[],horizontal,"(890.0, 762.0)",1.6,nan,1,13537.391,2
0,548,target,"[(1116, 795)]",[],[1],[0.7],vertical,"(390.0, 262.0)",1.1,0.655,1,13542.956,2
0,549,catch,"[(1110, 805)]",[],[1],[],vertical,"(890.0, 262.0)",,"('cti', 1.339),nan",0,13548.394,0
0,550,target,"[(1115, 795)]",[],[1],[0.6666666666666666],horizontal,"(890.0, 262.0)",0.5,0.623,1,13553.186,1
0,551,target,"[(1119, 778)]",[],[1],[0.6166666666666667],vertical,"(890.0, 762.0)",0.8333333333333334,0.573,1,13557.67,1
0,552,target,"[(1121, 796)]",[],[1],[0.5833333333333334],vertical,"(390.0, 262.0)",0.85,0.536,1,13562.368,2
0,553,target,"[(1120, 787)]",[],[1],[0.7333333333333333],vertical,"(390.0, 762.0)",1.0166666666666666,0.692,1,13567.585,2
0,554,target,"[(1132, 785)]",[],[1],[0.6666666666666666],vertical,"(390.0, 262.0)",1.2,0.619,1,13572.904,2
0,555,target,"[(1126, 811)]",[],[1],[0.5333333333333333],vertical,"(890.0, 262.0)",0.8,0.496,1,13578.478,2
0,556,catch,"[(1121, 776)]",[],[1],[],vertical,"(390.0, 762.0)",1.6,nan,1,13583.76,3
0,557,catch,"[(1142, 787)]",[],[1],[0.03333333333333333],vertical,"(390.0, 762.0)",1.6,"0.019,nan",0,13589.791,0
0,558,target,"[(1105, 796)]",[],[1],[],vertical,"(390.0, 762.0)",,"('cti', 0.717)",0,13594.706,0
0,559,target,"[(1091, 840)]",[],[1],[0.85],horizontal,"(890.0, 762.0)",1.2833333333333332,nan,0,13598.596,0
0,560,target,"[(1096, 839)]",[],[1],[0.85],vertical,"(390.0, 762.0)",0.7166666666666667,nan,0,13731.668,0
0,561,target,"[(1058, 791)]",[],[1],[0.85],vertical,"(390.0, 762.0)",1.1166666666666667,nan,0,13737.392,0
0,562,target,"[(1059, 831)]",[],[1],[0.85],vertical,"(390.0, 262.0)",1.1833333333333333,nan,0,13744.374,0
0,563,target,"[(1096, 834)]",[],[1],[0.85],vertical,"(390.0, 762.0)",1.4333333333333333,nan,0,13749.802,0
0,564,target,"[(1114, 791)]",[],[1],[0.85],vertical,"(890.0, 762.0)",1.3666666666666667,nan,0,13755.087,0
0,565,target,"[(556, 553), (1060, 826)]","[(1057, 897)]","[0, 1]",[0.6166666666666667],horizontal,"(890.0, 762.0)",,"('bar', 0.62)",0,13760.169,0
0,566,catch,"[(1071, 842)]",[],[1],[],vertical,"(890.0, 262.0)",1.6,nan,1,13764.756,1
0,567,target,"[(1112, 813)]",[],[1],[0.5833333333333334],horizontal,"(890.0, 262.0)",1.1833333333333333,0.536,1,13771.745,1
0,568,catch,"[(1100, 805)]",[],[1],[],horizontal,"(890.0, 762.0)",1.6,nan,1,13776.499,2
0,569,target,"[(1124, 807)]",[],[1],[0.6333333333333333],vertical,"(890.0, 262.0)",0.65,0.587,1,13781.846,2
0,570,target,"[(1117, 811)]",[],[1],[0.5666666666666667],vertical,"(890.0, 262.0)",1.3,0.522,1,13786.752,2
0,571,catch,"[(1108, 821)]",[],[1],[],horizontal,"(890.0, 262.0)",1.6,nan,1,13792.142,2
0,572,target,"[(1105, 803)]",[],[1],[0.1],horizontal,"(390.0, 262.0)",1.5166666666666666,0.067,0,13797.512,0
0,573,target,"[(1115, 815)]",[],[1],[0.6],vertical,"(390.0, 762.0)",0.8,0.557,1,13802.485,1
0,574,target,"[(1124, 799)]",[],[1],[0.5],vertical,"(390.0, 262.0)",0.7166666666666667,0.455,1,13807.402,1
0,575,target,"[(1071, 806)]",[],[1],[0.5],vertical,"(890.0, 262.0)",1.3,0.453,1,13815.984,2
0,576,target,"[(1134, 800)]",[],[1],[0.65],vertical,"(390.0, 262.0)",1.2666666666666666,0.607,1,13829.56,2
0,577,target,"[(1124, 800)]",[],[1],[0.3],horizontal,"(390.0, 762.0)",0.95,0.267,1,13834.816,2
0,578,target,"[(1143, 817)]",[],[1],[0.5],horizontal,"(890.0, 762.0)",0.7666666666666666,0.462,1,13839.468,2
0,579,catch,"[(1120, 812)]",[],[1],[],horizontal,"(390.0, 262.0)",1.6,nan,1,13844.775,3
0,580,target,"[(1115, 806)]",[],[1],[0.6],horizontal,"(890.0, 262.0)",1.3,0.561,1,13850.374,3
0,581,target,"[(1118, 810)]",[],[1],[0.5166666666666666],horizontal,"(890.0, 262.0)",1.2166666666666666,0.475,1,13856.144,3
0,582,target,"[(1105, 799)]",[],[1],[0.85],horizontal,"(890.0, 762.0)",0.6666666666666666,nan,0,13862.17,0
0,583,target,"[(1074, 805)]",[],[1],[0.6333333333333333],horizontal,"(390.0, 262.0)",1.4833333333333334,0.592,1,13866.367,1
0,584,target,"[(1109, 796)]",[],[1],[],vertical,"(390.0, 762.0)",,"('cti', 1.022)",0,13872.298,0
0,585,target,"[(1074, 774)]",[],[1],[0.85],horizontal,"(890.0, 762.0)",0.8,nan,0,13876.349,0
0,586,target,"[(1072, 791)]",[],[1],[],horizontal,"(390.0, 262.0)",,"('cti', 1.171)",0,13881.318,0
0,587,target,"[(1073, 796)]",[],[1],[0.6],horizontal,"(890.0, 762.0)",1.6666666666666667,0.56,1,13885.777,1
0,588,target,"[(1100, 801)]",[],[1],[0.55],vertical,"(890.0, 262.0)",0.9166666666666666,0.509,1,13910.432,1
0,589,target,"[(1117, 801)]",[],[1],[0.75],vertical,"(890.0, 762.0)",0.5833333333333334,0.712,1,13915.019,2
0,590,target,"[(1105, 799)]",[],[1],[0.5833333333333334],horizontal,"(390.0, 762.0)",0.95,0.536,1,13920.034,2
0,591,target,"[(1111, 801)]",[],[1],[0.5333333333333333],vertical,"(890.0, 262.0)",1.0333333333333332,0.486,1,13925.532,2
0,592,target,"[(1127, 796)]",[],[1],[0.06666666666666667],vertical,"(890.0, 762.0)",1.6166666666666667,0.035,0,13930.598,0
0,593,target,"[(1112, 794)]",[],[1],[0.55],vertical,"(890.0, 262.0)",0.5166666666666666,0.506,1,13935.496,1
0,594,catch,"[(1125, 796)]",[],[1],[],vertical,"(890.0, 762.0)",1.6,nan,1,13940.178,1
0,595,target,"[(1124, 806)]",[],[1],[0.85],horizontal,"(390.0, 762.0)",0.7833333333333333,nan,0,13945.125,0
0,596,target,"[(1058, 795)]",[],[1],[0.6166666666666667],vertical,"(390.0, 262.0)",0.8333333333333334,0.576,1,13949.458,1
0,597,target,"[(1096, 826)]",[],[1],[0.31666666666666665],horizontal,"(390.0, 762.0)",1.3166666666666667,0.279,1,13979.36,1
0,598,target,"[(1076, 809)]",[],[1],[0.5333333333333333],horizontal,"(890.0, 262.0)",0.6833333333333333,0.489,1,13984.54,2
0,599,target,"[(1119, 839)]",[],[1],[0.7],horizontal,"(390.0, 762.0)",0.7833333333333333,0.652,1,14121.499,2
0,600,target,"[(1105, 799)]",[],[1],[0.5166666666666666],vertical,"(390.0, 762.0)",0.5666666666666667,0.474,1,14126.908,2
0,601,target,"[(1128, 817)]",[],[1],[0.5333333333333333],horizontal,"(890.0, 762.0)",1.1,0.491,1,14131.829,2
0,602,target,"[(1120, 811)]",[],[1],[],horizontal,"(890.0, 762.0)",,"('cti', 1.177)",0,14137.042,0
0,603,target,"[(1110, 792)]",[],[1],[0.85],vertical,"(390.0, 762.0)",0.8333333333333334,nan,0,14141.377,0
0,604,target,"[(1097, 799)]",[],[1],[0.85],vertical,"(890.0, 262.0)",0.8666666666666667,nan,0,14146.072,0
0,605,target,"[(1106, 801)]",[],[1],[0.6833333333333333],horizontal,"(390.0, 762.0)",0.9,0.639,1,14151.142,1
0,606,target,"[(1120, 800)]",[],[1],[0.85],vertical,"(390.0, 762.0)",1.45,nan,0,14156.351,0
0,607,target,"[(1103, 802)]",[],[1],[0.55],vertical,"(890.0, 762.0)",1.3666666666666667,0.508,1,14161.606,1
0,608,target,"[(1118, 794)]",[],[1],[0.55],vertical,"(390.0, 262.0)",1.5333333333333332,0.508,1,14166.658,1
0,609,target,"[(1121, 794)]",[],[1],[0.6],horizontal,"(390.0, 262.0)",1.5333333333333332,0.557,1,14172.086,2
0,610,target,"[(1145, 796)]",[],[1],[0.8],horizontal,"(890.0, 762.0)",1.4333333333333333,0.753,1,14177.812,2
0,611,target,"[(1121, 796)]",[],[1],[0.85],horizontal,"(390.0, 262.0)",0.6833333333333333,nan,0,14183.359,0
0,612,target,"[(1103, 795)]",[],[1],[0.6666666666666666],horizontal,"(890.0, 762.0)",1.2,0.624,1,14188.102,1
0,613,target,"[(1119, 805)]",[],[1],[0.6166666666666667],vertical,"(390.0, 762.0)",1.5166666666666666,0.578,1,14193.729,1
0,614,target,"[(1105, 793)]",[],[1],[0.43333333333333335],horizontal,"(390.0, 262.0)",1.45,0.396,1,14199.11,2
0,615,target,"[(1124, 799)]",[],[1],[0.6666666666666666],vertical,"(890.0, 262.0)",1.15,0.62,1,14204.608,2
0,616,target,"[(1124, 797)]",[],[1],[0.55],vertical,"(890.0, 762.0)",1.0833333333333333,0.506,1,14210.107,2
0,617,target,"[(1123, 802)]",[],[1],[0.6666666666666666],horizontal,"(890.0, 762.0)",0.5166666666666666,0.619,1,14215.297,2
0,618,target,"[(1108, 797)]",[],[1],[0.5333333333333333],horizontal,"(390.0, 262.0)",0.6333333333333333,0.491,1,14219.821,3
0,619,target,"[(1117, 808)]",[],[1],[0.55],horizontal,"(890.0, 762.0)",0.9,0.506,1,14224.819,3
0,620,catch,"[(1074, 798)]",[],[1],[],horizontal,"(390.0, 262.0)",1.6,nan,1,14230.696,3
0,621,catch,"[(1114, 801)]",[],[1],[],horizontal,"(390.0, 262.0)",1.6,nan,1,14236.507,3
0,622,target,"[(1120, 785)]",[],[1],[0.48333333333333334],horizontal,"(390.0, 762.0)",1.3333333333333333,0.442,1,14242.047,3
0,623,target,"[(1108, 803)]",[],[1],[0.2],horizontal,"(890.0, 262.0)",0.85,0.168,0,14248.05,0
0,624,target,"[(1116, 798)]",[],[1],[0.6166666666666667],vertical,"(890.0, 762.0)",0.5,0.573,1,14252.298,1
0,625,target,"[(1091, 797)]",[],[1],[0.5166666666666666],vertical,"(890.0, 262.0)",1.1833333333333333,0.472,1,14256.448,1
0,626,catch,"[(1105, 791)]",[],[1],[],vertical,"(390.0, 762.0)",1.6,nan,1,14261.775,2
0,627,target,"[(1120, 785)]",[],[1],[0.85],vertical,"(390.0, 762.0)",0.55,nan,0,14267.255,0
0,628,catch,"[(1075, 791)]",[],[1],[],horizontal,"(890.0, 762.0)",1.6,nan,1,14271.371,1
0,629,target,"[(1106, 816)]",[],[1],[0.7],horizontal,"(390.0, 262.0)",1.0166666666666666,0.655,1,14276.718,1
0,630,target,"[(1143, 800)]",[],[1],[0.5333333333333333],horizontal,"(890.0, 262.0)",0.9,0.492,1,14281.933,2
0,631,target,"[(1124, 802)]",[],[1],[0.6333333333333333],horizontal,"(890.0, 262.0)",1.1333333333333333,0.591,1,14287.265,2
0,632,target,"[(1120, 797)]",[],[1],[0.5166666666666666],vertical,"(390.0, 262.0)",0.9166666666666666,0.478,1,14293.03,2
0,633,catch,"[(1121, 792)]",[],[1],[],horizontal,"(890.0, 762.0)",1.6,nan,1,14298.312,2
0,634,target,"[(1127, 802)]",[],[1],[0.31666666666666665],horizontal,"(390.0, 262.0)",1.5333333333333332,0.277,1,14303.492,3
0,635,target,"[(1108, 810)]",[],[1],[0.45],vertical,"(390.0, 762.0)",1.4666666666666666,0.411,1,14309.698,3
0,636,target,"[(1123, 795)]",[],[1],[0.85],horizontal,"(890.0, 762.0)",1.1166666666666667,nan,0,14315.939,0
0,637,catch,"[(1103, 795)]",[],[1],[],horizontal,"(390.0, 262.0)",1.6,nan,1,14320.638,1
0,638,target,"[(1130, 802)]",[],[1],[0.6],vertical,"(890.0, 262.0)",0.7,0.561,1,14325.723,1
0,639,target,"[(1106, 813)]",[],[1],[0.55],vertical,"(890.0, 262.0)",0.9166666666666666,0.514,1,14330.389,2
0,640,target,"[(1068, 812)]",[],[1],[0.7],horizontal,"(390.0, 262.0)",0.6166666666666667,0.654,1,14335.382,2
0,641,catch,"[(1106, 801)]",[],[1],[],vertical,"(390.0, 762.0)",1.6,nan,1,14346.08,2
0,642,target,"[(1104, 808)]",[],[1],[0.4],vertical,"(390.0, 762.0)",0.85,0.358,1,14351.677,2
0,643,target,"[(1097, 790)]",[],[1],[0.85],horizontal,"(390.0, 762.0)",0.6,nan,0,14357.093,0
0,644,target,"[(1120, 796)]",[],[1],[],horizontal,"(890.0, 762.0)",,"('cti', 0.492)",0,14362.245,0
0,645,target,"[(1076, 838)]",[],[1],[0.55],horizontal,"(390.0, 762.0)",1.4833333333333334,0.514,1,14366.157,1
0,646,target,"[(1101, 810)]",[],[1],[0.55],horizontal,"(390.0, 262.0)",0.8,0.509,1,15456.004,1
0,647,target,"[(1125, 813)]",[],[1],[0.43333333333333335],horizontal,"(390.0, 262.0)",1.15,0.39,1,15460.821,2
0,648,target,"[(1127, 806)]",[],[1],[0.16666666666666666],vertical,"(890.0, 262.0)",1.3666666666666667,0.13,0,15466.434,0
0,649,catch,"[(1105, 808)]",[],[1],[],horizontal,"(390.0, 262.0)",1.6,nan,1,15470.932,1
0,650,target,"[(1116, 811)]",[],[1],[0.6],vertical,"(890.0, 262.0)",0.5333333333333333,0.549,1,15475.968,1
0,651,target,"[(1121, 802)]",[],[1],[0.6666666666666666],horizontal,"(390.0, 262.0)",0.9,0.624,1,15480.795,2
0,652,catch,"[(1108, 798)]",[],[1],[],vertical,"(390.0, 262.0)",1.6,nan,1,15485.895,2
0,653,catch,"[(1143, 803)]",[],[1],[],horizontal,"(890.0, 762.0)",1.6,nan,1,15491.376,2
0,654,target,"[(1124, 801)]",[],[1],[0.15],horizontal,"(390.0, 262.0)",1.6833333333333333,0.117,0,15496.73,0
0,655,target,"[(1107, 786)]",[],[1],[0.85],horizontal,"(390.0, 762.0)",0.8666666666666667,nan,0,15501.901,0
0,656,target,"[(1190, 806)]",[],[1],[0.6166666666666667],horizontal,"(390.0, 262.0)",1.5,0.572,1,15506.609,1
0,657,target,"[(1125, 819)]",[],[1],[0.6166666666666667],horizontal,"(890.0, 762.0)",0.75,0.573,1,15512.025,1
0,658,target,"[(1143, 803)]",[],[1],[0.5333333333333333],vertical,"(890.0, 262.0)",0.8833333333333333,0.487,1,15516.616,2
0,659,catch,"[(1127, 806)]",[],[1],[],vertical,"(890.0, 762.0)",1.6,nan,1,15521.565,2
0,660,target,"[(1125, 778)]",[],[1],[0.4666666666666667],vertical,"(890.0, 762.0)",1.4166666666666667,0.427,1,15526.997,2
0,661,target,"[(1130, 796)]",[],[1],[0.08333333333333333],vertical,"(890.0, 762.0)",1.5333333333333332,0.05,0,15532.22,0
0,662,target,"[(1131, 796)]",[],[1],[0.6666666666666666],horizontal,"(390.0, 762.0)",0.5666666666666667,0.619,1,15537.26,1
0,663,target,"[(1133, 770)]",[],[1],[0.7166666666666667],vertical,"(390.0, 762.0)",1.3166666666666667,0.67,1,15541.716,1
0,664,target,"[(1125, 799)]",[],[1],[0.43333333333333335],horizontal,"(890.0, 762.0)",1.3166666666666667,0.389,1,15546.612,2
0,665,target,"[(1156, 796)]",[],[1],[0.3833333333333333],vertical,"(390.0, 762.0)",1.5833333333333333,0.344,1,15552.185,2
0,666,target,"[(1146, 801)]",[],[1],[0.21666666666666667],vertical,"(890.0, 262.0)",1.6833333333333333,0.179,0,15557.708,0
0,667,catch,"[(1115, 800)]",[],[1],[],horizontal,"(890.0, 262.0)",1.6,nan,1,15562.285,1
0,668,target,"[(1110, 799)]",[],[1],[0.85],horizontal,"(890.0, 762.0)",0.55,nan,0,15567.133,0
0,669,target,"[(1113, 800)]",[],[1],[0.55],horizontal,"(390.0, 262.0)",0.95,0.511,1,15571.599,1
0,670,target,"[(1120, 810)]",[],[1],[0.5333333333333333],horizontal,"(390.0, 762.0)",1.1,0.495,1,15576.374,1
0,671,target,"[(1112, 796)]",[],[1],[0.6833333333333333],vertical,"(390.0, 762.0)",0.6166666666666667,0.637,1,15581.296,2
0,672,target,"[(1124, 813)]",[],[1],[0.5666666666666667],horizontal,"(890.0, 262.0)",0.5333333333333333,0.524,1,15586.227,2
0,673,target,"[(1111, 796)]",[],[1],[0.5333333333333333],horizontal,"(890.0, 762.0)",0.9333333333333333,0.49,1,15591.059,2
0,674,target,"[(1153, 799)]",[],[1],[0.43333333333333335],vertical,"(390.0, 262.0)",1.3833333333333333,0.396,1,15596.31,2
0,675,target,"[(1125, 791)]",[],[1],[0.6833333333333333],vertical,"(890.0, 262.0)",1.0,0.636,1,15601.772,3
0,676,target,"[(1102, 797)]",[],[1],[0.6],vertical,"(890.0, 262.0)",1.1833333333333333,0.553,1,15607.321,3
0,677,target,"[(1120, 820)]",[],[1],[0.5666666666666667],horizontal,"(390.0, 762.0)",0.8666666666666667,0.526,1,15613.197,3
0,678,target,"[(1115, 791)]",[],[1],[0.85],horizontal,"(390.0, 262.0)",0.7333333333333333,nan,0,15618.781,0
0,679,target,"[(1107, 796)]",[],[1],[0.85],vertical,"(390.0, 762.0)",0.65,nan,0,15623.137,0
0,680,target,"[(1100, 807)]",[],[1],[0.13333333333333333],vertical,"(390.0, 762.0)",1.6,0.101,0,15627.546,0
0,681,target,"[(1101, 789)]",[],[1],"[0.85, 0.85]",vertical,"(390.0, 762.0)",0.9666666666666667,"0.802,nan",0,15632.629,0
0,682,catch,"[(1124, 797)]",[],[1],[],vertical,"(890.0, 262.0)",,"('cti', 1.549),nan",0,15637.624,0
0,683,catch,"[(1081, 803)]",[],[1],[],horizontal,"(390.0, 262.0)",1.6,nan,1,15642.426,1
0,684,target,"[(1120, 785)]",[],[1],[],horizontal,"(890.0, 262.0)",,"('cti', 1.482)",0,15647.179,0
0,685,target,"[(1124, 798)]",[],[1],[0.55],vertical,"(390.0, 262.0)",0.5333333333333333,0.504,1,15652.054,1
0,686,catch,"[(1135, 807)]",[],[1],[],horizontal,"(890.0, 262.0)",1.6,nan,1,15656.252,1
0,687,target,"[(1124, 813)]",[],[1],[0.5],vertical,"(890.0, 262.0)",0.9,0.456,1,15661.158,2
0,688,target,"[(1123, 798)]",[],[1],[0.6833333333333333],vertical,"(890.0, 762.0)",0.7333333333333333,0.642,1,15665.93,2
0,689,target,"[(1100, 802)]",[],[1],[0.85],horizontal,"(390.0, 262.0)",0.6166666666666667,nan,0,15671.089,0
0,690,target,"[(1096, 787)]",[],[1],[0.85],horizontal,"(890.0, 762.0)",0.5666666666666667,nan,0,15675.541,0
0,691,target,"[(1083, 791)]",[],[1],[0.18333333333333332],horizontal,"(890.0, 762.0)",1.6166666666666667,0.152,0,15680.13,0
0,692,target,"[(1105, 791)]",[],[1],[0.5333333333333333],horizontal,"(390.0, 262.0)",0.9333333333333333,0.491,1,15684.729,1
0,693,target,"[(1132, 794)]",[],[1],[],horizontal,"(390.0, 262.0)",,"('cti', 1.272)",0,15689.302,0
0,694,catch,"[(1120, 797)]",[],[1],[],horizontal,"(890.0, 262.0)",1.6,nan,1,15693.962,1
0,695,target,"[(1120, 802)]",[],[1],[0.23333333333333334],horizontal,"(890.0, 762.0)",1.6833333333333333,0.195,0,15699.012,0
0,696,target,"[(1120, 807)]",[],[1],[0.5666666666666667],horizontal,"(890.0, 762.0)",0.8666666666666667,0.524,1,15703.606,1
0,697,target,"[(1146, 799)]",[],[1],[0.6],vertical,"(890.0, 762.0)",0.5333333333333333,0.553,1,15707.988,1
0,698,target,"[(1145, 791)]",[],[1],[0.6666666666666666],vertical,"(890.0, 262.0)",0.8333333333333334,0.626,1,15712.12,2
0,699,target,"[(1124, 797)]",[],[1],[0.85],horizontal,"(890.0, 262.0)",1.3166666666666667,"('cti', 1.301),nan",0,15717.639,0
0,700,target,"[(1107, 795)]",[],[1],[0.3833333333333333],vertical,"(390.0, 762.0)",1.2166666666666666,0.342,1,15723.083,1
0,701,target,"[(1109, 791)]",[],[1],[0.6166666666666667],horizontal,"(390.0, 762.0)",0.5166666666666666,0.571,1,15728.115,1
0,702,target,"[(1116, 813)]",[],[1],[0.55],horizontal,"(890.0, 262.0)",0.7333333333333333,0.512,1,15732.622,2
0,703,catch,"[(1120, 801)]",[],[1],[],vertical,"(890.0, 762.0)",,"('cti', 1.556),nan",0,15737.698,0
0,704,catch,"[(1115, 793)]",[],[1],[],horizontal,"(390.0, 762.0)",1.6,nan,1,15742.598,1
0,705,target,"[(1142, 787)]",[],[1],[0.6666666666666666],horizontal,"(390.0, 262.0)",0.6,0.619,1,15747.345,1
0,706,target,"[(1120, 794)]",[],[1],[0.55],vertical,"(390.0, 262.0)",0.6166666666666667,0.504,1,15751.557,2
0,707,target,"[(1111, 790)]",[],[1],[0.4166666666666667],vertical,"(890.0, 262.0)",1.3833333333333333,0.376,1,15756.489,2
0,708,catch,"[(1123, 799)]",[],[1],[],vertical,"(890.0, 262.0)",1.6,nan,1,15762.021,2
0,709,target,"[(1118, 797)]",[],[1],[0.55],horizontal,"(890.0, 762.0)",1.3833333333333333,0.507,1,15767.319,2
0,710,target,"[(1105, 806)]",[],[1],[0.4166666666666667],vertical,"(890.0, 262.0)",1.3333333333333333,0.378,1,15773.146,3
0,711,target,"[(1118, 795)]",[],[1],[0.5166666666666666],vertical,"(890.0, 762.0)",1.0,0.473,1,15779.081,3
0,712,target,"[(1123, 784)]",[],[1],[0.16666666666666666],horizontal,"(390.0, 262.0)",1.3833333333333333,0.132,0,15784.93,0
0,713,target,"[(1110, 801)]",[],[1],[0.55],vertical,"(390.0, 262.0)",0.6333333333333333,0.506,1,15789.661,1
0,714,target,"[(1115, 801)]",[],[1],[0.55],vertical,"(890.0, 762.0)",0.95,0.507,1,15794.335,1
0,715,target,"[(1108, 791)]",[],[1],[0.6166666666666667],vertical,"(390.0, 262.0)",0.8166666666666667,0.573,1,15798.742,2
0,716,target,"[(1129, 808)]",[],[1],[0.26666666666666666],horizontal,"(390.0, 762.0)",1.5333333333333332,0.227,1,15803.79,2
0,717,target,"[(1126, 792)]",[],[1],[0.65],horizontal,"(890.0, 262.0)",0.7166666666666667,0.605,1,15809.338,2
0,718,target,"[(1124, 801)]",[],[1],[0.6],horizontal,"(390.0, 262.0)",0.85,0.557,1,15814.454,2
0,719,target,"[(1116, 794)]",[],[1],[0.7333333333333333],horizontal,"(890.0, 762.0)",0.6166666666666667,0.685,1,15819.435,3
0,720,target,"[(1131, 785)]",[],[1],[],horizontal,"(890.0, 262.0)",,"('cti', 0.925)",0,15824.728,0
0,721,target,"[(1105, 801)]",[],[1],[0.5166666666666666],horizontal,"(390.0, 762.0)",1.15,0.475,1,15828.849,1
0,722,target,"[(1120, 791)]",[],[1],[0.43333333333333335],horizontal,"(390.0, 762.0)",1.2,0.395,1,15833.749,1
0,723,target,"[(1114, 795)]",[],[1],[0.6],vertical,"(390.0, 262.0)",1.0666666666666667,0.56,1,15838.748,2
0,724,target,"[(1115, 801)]",[],[1],[0.4],vertical,"(890.0, 262.0)",1.5666666666666667,0.358,1,15843.951,2
0,725,target,"[(1118, 812)]",[],[1],[0.7166666666666667],vertical,"(390.0, 762.0)",1.1166666666666667,0.67,1,15849.555,2
0,726,catch,"[(1124, 804)]",[],[1],[],horizontal,"(890.0, 262.0)",1.6,nan,1,15854.922,2
0,727,catch,"[(1115, 806)]",[],[1],[],horizontal,"(390.0, 262.0)",1.6,nan,1,15860.555,3
0,728,target,"[(1125, 797)]",[],[1],[0.6833333333333333],vertical,"(890.0, 762.0)",1.0833333333333333,0.636,1,15866.27,3
0,729,target,"[(1123, 795)]",[],[1],[0.5833333333333334],horizontal,"(890.0, 262.0)",0.5833333333333334,0.544,1,15871.962,3
0,730,target,"[(1120, 800)]",[],[1],[0.5166666666666666],horizontal,"(890.0, 262.0)",1.0,0.484,1,15877.302,3
0,731,target,"[(1127, 799)]",[],[1],[0.3333333333333333],vertical,"(390.0, 762.0)",1.55,0.295,1,15882.803,3
0,732,target,"[(1120, 781)]",[],[1],[0.25],horizontal,"(390.0, 262.0)",1.3833333333333333,0.214,1,15888.814,3
0,733,target,"[(1121, 803)]",[],[1],[],horizontal,"(890.0, 762.0)",,"('cti', 1.637)",0,15894.877,0
0,734,catch,"[(1125, 808)]",[],[1],[],vertical,"(390.0, 762.0)",,"('cti', 1.555),nan",0,15899.709,0
0,735,target,"[(1108, 796)]",[],[1],[0.6],horizontal,"(890.0, 762.0)",0.5833333333333334,0.556,1,15904.141,1
0,736,target,"[(1120, 800)]",[],[1],[0.5833333333333334],horizontal,"(390.0, 262.0)",0.65,0.536,1,15908.405,1
0,737,catch,"[(1129, 792)]",[],[1],[],vertical,"(890.0, 762.0)",1.6,nan,1,15912.672,2
0,738,target,"[(1120, 796)]",[],[1],[0.85],horizontal,"(890.0, 262.0)",1.5333333333333332,"('cti', 1.518),nan",0,15917.887,0
0,739,target,"[(1125, 791)]",[],[1],[0.6],vertical,"(890.0, 262.0)",1.1333333333333333,0.554,1,15923.592,1
0,740,target,"[(1128, 786)]",[],[1],[0.6166666666666667],horizontal,"(890.0, 762.0)",1.0333333333333332,0.569,1,15928.472,1
0,741,target,"[(1129, 792)]",[],[1],[0.85],vertical,"(390.0, 762.0)",0.5333333333333333,nan,0,15933.302,0
0,742,target,"[(1068, 789)]",[],[1],[0.5833333333333334],vertical,"(390.0, 762.0)",1.0666666666666667,0.54,1,15937.397,1
0,743,target,"[(1139, 794)]",[],[1],[0.2833333333333333],vertical,"(390.0, 762.0)",1.4,0.249,1,15942.267,1
0,744,target,"[(1075, 781)]",[],[1],[0.5166666666666666],vertical,"(890.0, 262.0)",0.6333333333333333,0.479,1,15947.222,2
0,745,catch,"[(1103, 781)]",[],[1],[0.03333333333333333],horizontal,"(390.0, 262.0)",1.6,"0.018,nan",0,15952.392,0
0,746,target,"[(1118, 795)]",[],[1],[0.5666666666666667],horizontal,"(390.0, 262.0)",0.9833333333333333,0.523,1,15957.023,1
0,747,target,"[(1134, 791)]",[],[1],[0.08333333333333333],vertical,"(390.0, 762.0)",1.5333333333333332,0.05,0,15961.841,0
0,748,catch,"[(1107, 800)]",[],[1],[0.03333333333333333],horizontal,"(390.0, 762.0)",1.6,"0.02,nan",0,15966.722,0
0,749,catch,"[(1107, 788)]",[],[1],[],vertical,"(390.0, 262.0)",1.6,nan,1,15971.392,1
0,750,target,"[(1121, 793)]",[],[1],[0.6],horizontal,"(890.0, 762.0)",1.2166666666666666,0.561,1,15976.123,1
0,751,target,"[(1105, 776)]",[],[1],[0.55],vertical,"(890.0, 762.0)",0.9333333333333333,0.503,1,15981.033,2
0,752,target,"[(1124, 790)]",[],[1],[0.6333333333333333],vertical,"(390.0, 262.0)",1.1,0.588,1,15986.314,2
0,753,catch,"[(1131, 801)]",[],[1],[],vertical,"(390.0, 262.0)",,"('cti', 1.53),nan",0,15991.662,0
0,754,target,"[(1105, 796)]",[],[1],[0.3833333333333333],vertical,"(390.0, 262.0)",1.5833333333333333,0.343,1,15996.594,1
0,755,target,"[(1105, 790)]",[],[1],[0.7333333333333333],horizontal,"(390.0, 262.0)",0.5,0.686,1,16001.609,1
0,756,target,"[(1149, 805)]",[],[1],[0.6166666666666667],vertical,"(390.0, 762.0)",0.5833333333333334,0.569,1,16005.858,2
0,757,target,"[(1129, 803)]",[],[1],[0.5666666666666667],vertical,"(390.0, 262.0)",0.7,0.522,1,16010.972,2
0,758,target,"[(1149, 796)]",[],[1],[0.55],vertical,"(890.0, 262.0)",0.6166666666666667,0.507,1,16015.96,2
0,759,target,"[(1107, 788)]",[],[1],[0.15],vertical,"(390.0, 262.0)",1.6333333333333333,0.117,0,16021.086,0
0,760,target,"[(1120, 808)]",[],[1],[0.3],horizontal,"(390.0, 762.0)",1.5333333333333332,0.261,1,16026.009,1
0,761,catch,"[(1120, 796)]",[],[1],[],vertical,"(390.0, 762.0)",1.6,nan,1,16030.943,1
0,762,target,"[(1118, 817)]",[],[1],[0.08333333333333333],vertical,"(890.0, 762.0)",1.65,0.052,0,16035.881,0
0,763,catch,"[(1105, 796)]",[],[1],[],horizontal,"(890.0, 762.0)",1.6,nan,1,16040.68,1
0,764,catch,"[(1129, 820)]",[],[1],[],vertical,"(390.0, 262.0)",1.6,nan,1,16045.465,1
0,765,target,"[(1110, 786)]",[],[1],[0.6666666666666666],horizontal,"(890.0, 762.0)",0.7333333333333333,0.622,1,16050.094,2
0,766,target,"[(1122, 798)]",[],[1],[0.5666666666666667],horizontal,"(390.0, 262.0)",0.5666666666666667,0.529,1,16055.275,2
0,767,target,"[(1134, 792)]",[],[1],[0.85],vertical,"(890.0, 762.0)",0.6666666666666666,nan,0,16060.058,0
0,768,target,"[(1117, 808)]",[],[1],[0.08333333333333333],horizontal,"(390.0, 262.0)",1.6333333333333333,0.05,0,16064.073,0
0,769,catch,"[(1122, 800)]",[],[1],[],vertical,"(390.0, 762.0)",,"('cti', 1.274),nan",0,16069.038,0
0,770,target,"[(1110, 810)]",[],[1],[0.7166666666666667],horizontal,"(390.0, 762.0)",0.6,0.665,1,16073.303,1
0,771,target,"[(1127, 793)]",[],[1],[0.55],horizontal,"(890.0, 262.0)",0.8166666666666667,0.504,1,16078.002,1
0,772,target,"[(1125, 781)]",[],[1],[0.5166666666666666],horizontal,"(890.0, 262.0)",0.6,0.475,1,16082.767,2
0,773,target,"[(1125, 796)]",[],[1],[0.5166666666666666],vertical,"(890.0, 262.0)",0.7666666666666666,0.475,1,16087.193,2
0,774,target,"[(1150, 808)]",[],[1],[],vertical,"(890.0, 262.0)",,"('cti', 1.564)",0,16092.382,0
0,775,target,"[(1100, 791)]",[],[1],[0.6666666666666666],horizontal,"(890.0, 762.0)",1.0833333333333333,0.625,1,16097.058,1
0,776,target,"[(1120, 796)]",[],[1],[0.55],horizontal,"(890.0, 262.0)",1.2666666666666666,0.509,1,16101.988,1
0,777,catch,"[(1147, 798)]",[],[1],[],vertical,"(890.0, 262.0)",1.6,"('cti', 1.583),nan",0,16106.71,0
0,778,target,"[(1067, 824)]",[],[1],[0.6333333333333333],vertical,"(390.0, 262.0)",1.0,0.585,1,16111.517,1
0,779,target,"[(1111, 805)]",[],[1],[0.5333333333333333],horizontal,"(390.0, 762.0)",1.1666666666666667,0.492,1,16126.169,1
0,780,catch,"[(1106, 795)]",[],[1],[],horizontal,"(890.0, 762.0)",1.6,nan,1,16131.408,2
0,781,target,"[(1106, 801)]",[],[1],[0.6166666666666667],vertical,"(390.0, 762.0)",1.0833333333333333,0.568,1,16136.616,2
0,782,target,"[(1123, 806)]",[],[1],[0.7333333333333333],horizontal,"(890.0, 762.0)",0.6333333333333333,0.688,1,16141.997,2
0,783,target,"[(1130, 803)]",[],[1],[0.3],vertical,"(390.0, 262.0)",1.4333333333333333,0.26,1,16147.361,2
0,784,target,"[(1115, 796)]",[],[1],[],vertical,"(390.0, 762.0)",,"('cti', 1.417)",0,16152.788,0
0,785,target,"[(1102, 794)]",[],[1],[0.7333333333333333],horizontal,"(890.0, 762.0)",0.5833333333333334,0.683,1,16157.193,1
0,786,target,"[(1125, 807)]",[],[1],[],horizontal,"(390.0, 762.0)",,"('cti', 1.566)",0,16161.607,0
0,787,target,"[(1110, 803)]",[],[1],[0.13333333333333333],horizontal,"(390.0, 762.0)",1.5666666666666667,0.103,0,16165.928,0
0,788,target,"[(1103, 830)]",[],[1],[0.7666666666666666],vertical,"(890.0, 762.0)",0.8166666666666667,0.719,1,16170.704,1
0,789,catch,"[(1107, 803)]",[],[1],[],horizontal,"(390.0, 262.0)",,"('cti', 1.505),nan",0,16204.009,0
0,790,target,"[(1082, 805)]",[],[1],[0.7],vertical,"(390.0, 762.0)",0.55,0.654,1,16208.859,1
0,791,target,"[(1120, 796)]",[],[1],[0.16666666666666666],vertical,"(390.0, 762.0)",1.55,0.132,0,16213.674,0
0,792,target,"[(1124, 796)]",[],[1],[0.5166666666666666],vertical,"(890.0, 262.0)",0.6,0.471,1,16218.593,1
0,793,target,"[(1125, 807)]",[],[1],[],horizontal,"(890.0, 762.0)",,"('cti', 1.292)",0,16222.854,0
0,794,target,"[(1076, 820)]",[],[1],[0.4666666666666667],horizontal,"(890.0, 262.0)",0.9666666666666667,0.431,1,16227.605,1
0,795,target,"[(1123, 814)]",[],[1],[0.5166666666666666],horizontal,"(390.0, 262.0)",0.7666666666666666,0.48,1,16241.731,1
0,796,target,"[(1118, 807)]",[],[1],[0.35],vertical,"(390.0, 762.0)",1.3666666666666667,0.316,1,16246.555,2
0,797,catch,"[(1149, 796)]",[],[1],[],horizontal,"(390.0, 262.0)",1.6,nan,1,16251.969,2
0,798,target,"[(1120, 803)]",[],[1],[0.4],vertical,"(890.0, 762.0)",1.6166666666666667,0.364,1,16256.993,2
0,799,target,"[(1122, 796)]",[],[1],[0.48333333333333334],horizontal,"(890.0, 762.0)",1.3333333333333333,0.443,1,16262.384,2
0,800,catch,"[(1110, 796)]",[],[1],[],horizontal,"(890.0, 262.0)",1.6,nan,1,16268.056,3
0,801,target,"[(1123, 793)]",[],[1],[0.65],vertical,"(890.0, 762.0)",1.15,0.606,1,16273.405,3
0,802,target,"[(1105, 804)]",[],[1],[0.85],horizontal,"(890.0, 762.0)",1.2,nan,0,16279.126,0
0,803,target,"[(1073, 801)]",[],[1],[0.6],vertical,"(390.0, 262.0)",0.8166666666666667,0.554,1,16283.84,1
0,804,target,"[(1130, 796)]",[],[1],[0.26666666666666666],horizontal,"(390.0, 762.0)",1.6333333333333333,0.233,1,16288.688,1
0,805,target,"[(1120, 796)]",[],[1],[0.5166666666666666],vertical,"(890.0, 262.0)",1.3333333333333333,0.469,1,16294.081,2
0,806,target,"[(1118, 793)]",[],[1],[0.6],horizontal,"(390.0, 762.0)",0.8,0.561,1,16299.414,2
0,807,target,"[(1120, 795)]",[],[1],[0.05],vertical,"(890.0, 762.0)",1.6333333333333333,0.019,0,16304.057,0
0,808,target,"[(1076, 796)]",[],[1],[0.6666666666666666],horizontal,"(890.0, 762.0)",0.9,0.628,1,16309.16,1
0,809,target,"[(1115, 798)]",[],[1],[0.65],horizontal,"(390.0, 262.0)",1.15,0.609,1,16314.041,1
0,810,target,"[(1082, 812)]",[],[1],[0.5333333333333333],vertical,"(390.0, 262.0)",1.1666666666666667,0.495,1,16318.89,2
0,811,target,"[(1116, 811)]",[],[1],[0.85],horizontal,"(390.0, 762.0)",0.6333333333333333,nan,0,16324.339,0
0,812,target,"[(1071, 806)]",[],[1],[0.3833333333333333],vertical,"(890.0, 762.0)",1.4,0.343,1,16328.47,1
0,813,target,"[(1129, 807)]",[],[1],[0.5833333333333334],horizontal,"(390.0, 262.0)",0.5833333333333334,0.535,1,16333.681,1
0,814,target,"[(1120, 796)]",[],[1],[0.6333333333333333],horizontal,"(890.0, 262.0)",0.9666666666666667,0.589,1,16338.292,2
0,815,target,"[(1123, 800)]",[],[1],[0.5833333333333334],vertical,"(390.0, 762.0)",1.3166666666666667,0.536,1,16343.315,2
0,816,target,"[(1105, 808)]",[],[1],[0.5333333333333333],vertical,"(890.0, 762.0)",0.9333333333333333,0.499,1,16348.913,2
0,817,target,"[(1120, 811)]",[],[1],[0.6],horizontal,"(890.0, 762.0)",1.1166666666666667,0.559,1,16354.128,2
0,818,target,"[(1115, 806)]",[],[1],[0.7],horizontal,"(890.0, 262.0)",0.7166666666666667,0.654,1,16359.878,3
0,819,catch,"[(1120, 796)]",[],[1],[],vertical,"(890.0, 262.0)",1.6,nan,1,16365.425,3
0,820,target,"[(1112, 802)]",[],[1],[0.85],vertical,"(890.0, 262.0)",0.5666666666666667,nan,0,16371.492,0
0,821,target,"[(1076, 796)]",[],[1],[0.55],vertical,"(890.0, 262.0)",1.0666666666666667,0.51,1,16375.664,1
0,822,target,"[(1124, 791)]",[],[1],[0.5666666666666667],vertical,"(890.0, 262.0)",0.75,0.519,1,16380.47,1
0,823,target,"[(1115, 810)]",[],[1],[0.5666666666666667],horizontal,"(390.0, 762.0)",1.0666666666666667,0.523,1,16385.468,2
0,824,target,"[(1134, 798)]",[],[1],[0.43333333333333335],vertical,"(890.0, 762.0)",1.25,0.393,1,16391.006,2
0,825,target,"[(1144, 815)]",[],[1],[0.8166666666666667],horizontal,"(390.0, 762.0)",0.6666666666666666,0.77,1,16396.715,2
0,826,target,"[(1125, 799)]",[],[1],[0.08333333333333333],horizontal,"(890.0, 262.0)",1.4666666666666666,0.053,0,16402.046,0
0,827,catch,"[(1118, 802)]",[],[1],[],horizontal,"(890.0, 262.0)",1.6,nan,1,16406.795,1
0,828,target,"[(1110, 797)]",[],[1],[0.6],horizontal,"(890.0, 762.0)",1.25,0.556,1,16411.883,1
0,829,target,"[(1120, 791)]",[],[1],[0.31666666666666665],horizontal,"(390.0, 262.0)",1.6333333333333333,0.281,1,16416.959,2
0,830,target,"[(1129, 795)]",[],[1],[0.2833333333333333],vertical,"(390.0, 762.0)",1.5166666666666666,0.243,1,16422.443,2
0,831,catch,"[(1132, 801)]",[],[1],[],horizontal,"(890.0, 262.0)",,"('cti', 1.108),nan",0,16427.657,0
0,832,target,"[(1103, 799)]",[],[1],[0.5666666666666667],horizontal,"(390.0, 762.0)",1.1833333333333333,0.527,1,16432.236,1
0,833,target,"[(1143, 801)]",[],[1],[0.85],horizontal,"(390.0, 762.0)",0.65,nan,0,16437.38,0
0,834,catch,"[(1105, 809)]",[],[1],[],horizontal,"(890.0, 762.0)",1.6,nan,1,16441.927,1
0,835,target,"[(1110, 803)]",[],[1],[0.5166666666666666],vertical,"(890.0, 262.0)",1.4666666666666666,0.478,1,16447.121,1
0,836,target,"[(1106, 807)]",[],[1],[0.5333333333333333],vertical,"(890.0, 262.0)",1.0666666666666667,0.497,1,16451.948,2
0,837,target,"[(1120, 797)]",[],[1],[0.6333333333333333],horizontal,"(390.0, 762.0)",0.5333333333333333,0.592,1,16457.132,2
0,838,target,"[(1128, 800)]",[],[1],[0.48333333333333334],vertical,"(390.0, 762.0)",1.1333333333333333,0.441,1,16462.127,2
0,839,target,"[(1123, 786)]",[],[1],[0.85],vertical,"(390.0, 762.0)",1.5333333333333332,"('cti', 1.517),nan",0,16467.198,0
0,840,target,"[(1118, 818)]",[],[1],[0.85],horizontal,"(390.0, 262.0)",0.9,nan,0,16472.823,0
0,841,target,"[(1076, 801)]",[],[1],[0.6333333333333333],vertical,"(890.0, 262.0)",0.5333333333333333,0.591,1,16477.405,1
0,842,catch,"[(1123, 796)]",[],[1],[],vertical,"(390.0, 762.0)",1.6,nan,1,16482.215,1
0,843,target,"[(1124, 798)]",[],[1],[0.5333333333333333],vertical,"(390.0, 262.0)",1.0166666666666666,0.488,1,16487.245,2
0,844,target,"[(1130, 806)]",[],[1],[0.6166666666666667],vertical,"(890.0, 262.0)",0.7333333333333333,0.576,1,16492.582,2
0,845,target,"[(1128, 809)]",[],[1],[],vertical,"(390.0, 762.0)",,"('cti', 1.169)",0,16498.02,0
0,846,target,"[(1102, 797)]",[],[1],[0.5833333333333334],horizontal,"(390.0, 262.0)",1.3333333333333333,0.542,1,16502.497,1
0,847,catch,"[(1105, 802)]",[],[1],[],horizontal,"(890.0, 262.0)",1.6,nan,1,16507.44,1
0,848,target,"[(1131, 792)]",[],[1],[0.6666666666666666],horizontal,"(390.0, 262.0)",1.0333333333333332,0.618,1,16512.682,2
0,849,target,"[(1123, 794)]",[],[1],[0.6],vertical,"(390.0, 762.0)",0.9666666666666667,0.556,1,16517.935,2
0,850,target,"[(1128, 790)]",[],[1],[0.5166666666666666],vertical,"(890.0, 262.0)",1.3,0.479,1,16523.007,2
0,851,catch,"[(1120, 791)]",[],[1],[0.03333333333333333],horizontal,"(390.0, 762.0)",1.6,"0.019,nan",0,16528.1,0
0,852,target,"[(1129, 799)]",[],[1],[0.5833333333333334],vertical,"(890.0, 762.0)",0.6666666666666666,0.543,1,16532.916,1
0,853,target,"[(1130, 797)]",[],[1],[0.5833333333333334],vertical,"(390.0, 762.0)",1.1,0.543,1,16537.684,1
0,854,target,"[(1120, 799)]",[],[1],[0.5833333333333334],horizontal,"(390.0, 762.0)",1.3166666666666667,0.541,1,16543.001,2
0,855,target,"[(1118, 807)]",[],[1],[],horizontal,"(390.0, 762.0)",,"('cti', 1.452)",0,16548.665,0
0,856,target,"[(1110, 799)]",[],[1],[0.48333333333333334],vertical,"(390.0, 762.0)",1.2666666666666666,0.442,1,16553.438,1
0,857,target,"[(1129, 804)]",[],[1],[0.6166666666666667],vertical,"(390.0, 262.0)",1.1666666666666667,0.584,1,16558.58,1
0,858,target,"[(1126, 804)]",[],[1],[0.5833333333333334],vertical,"(890.0, 762.0)",0.65,0.543,1,16563.394,2
0,859,target,"[(1129, 806)]",[],[1],[0.6333333333333333],horizontal,"(890.0, 262.0)",0.9833333333333333,0.586,1,16568.009,2
0,860,target,"[(1136, 810)]",[],[1],[0.7166666666666667],horizontal,"(890.0, 262.0)",1.0333333333333332,0.673,1,16573.403,2
0,861,target,"[(1134, 792)]",[],[1],[0.5666666666666667],horizontal,"(890.0, 262.0)",0.8666666666666667,0.522,1,16578.706,2
0,862,target,"[(1120, 816)]",[],[1],[0.6166666666666667],horizontal,"(390.0, 262.0)",0.8333333333333334,0.572,1,16584.135,3
0,863,target,"[(1110, 812)]",[],[1],[0.6166666666666667],vertical,"(390.0, 262.0)",0.7333333333333333,0.575,1,16589.684,3
0,864,target,"[(1116, 798)]",[],[1],[0.6833333333333333],horizontal,"(390.0, 762.0)",0.7333333333333333,0.64,1,16595.267,3
0,865,catch,"[(1123, 799)]",[],[1],[],vertical,"(390.0, 262.0)",1.6,nan,1,16600.772,3
0,866,target,"[(1127, 798)]",[],[1],[0.55],vertical,"(390.0, 262.0)",1.0666666666666667,0.505,1,16606.601,3
0,867,target,"[(1114, 795)]",[],[1],[0.85],horizontal,"(390.0, 762.0)",0.7666666666666666,nan,0,16611.995,0
0,868,target,"[(1085, 804)]",[],[1],[0.3333333333333333],vertical,"(390.0, 262.0)",1.2833333333333332,0.295,1,16616.593,1
0,869,target,"[(1125, 808)]",[],[1],[0.5666666666666667],horizontal,"(890.0, 762.0)",1.1833333333333333,0.518,1,16621.961,1
0,870,target,"[(1126, 808)]",[],[1],[0.55],horizontal,"(390.0, 762.0)",1.2166666666666666,0.509,1,16627.167,2
0,871,target,"[(1123, 761)]",[],[1],[0.55],horizontal,"(890.0, 762.0)",0.95,0.513,1,16632.388,2
0,872,target,"[(1129, 785)]",[],[1],[0.13333333333333333],vertical,"(390.0, 262.0)",1.65,0.102,0,16637.17,0
0,873,target,"[(1109, 806)]",[],[1],[0.55],vertical,"(890.0, 762.0)",1.15,0.505,1,16641.514,1
0,874,target,"[(1105, 794)]",[],[1],[0.65],vertical,"(890.0, 762.0)",0.6,0.619,1,16646.35,1
0,875,target,"[(1121, 814)]",[],[1],[0.48333333333333334],horizontal,"(390.0, 762.0)",1.2333333333333334,0.439,1,16651.187,2
0,876,target,"[(1147, 795)]",[],[1],[0.85],vertical,"(390.0, 262.0)",0.5166666666666666,nan,0,16656.258,0
0,877,target,"[(1076, 801)]",[],[1],[0.5],horizontal,"(390.0, 262.0)",1.35,0.458,1,16660.506,1
0,878,catch,"[(1129, 814)]",[],[1],[],horizontal,"(390.0, 762.0)",1.6,nan,1,16665.761,1
0,879,catch,"[(1113, 800)]",[],[1],[],vertical,"(390.0, 262.0)",1.6,nan,1,16670.392,2
0,880,catch,"[(1130, 800)]",[],[1],[],horizontal,"(890.0, 262.0)",1.6,nan,1,16675.509,2
0,881,target,"[(1125, 805)]",[],[1],[0.4666666666666667],horizontal,"(390.0, 262.0)",1.1833333333333333,0.434,1,16680.544,2
0,882,catch,"[(1110, 797)]",[],[1],[],vertical,"(390.0, 762.0)",1.6,nan,1,16686.01,2
0,883,target,"[(1125, 806)]",[],[1],[0.4166666666666667],vertical,"(390.0, 262.0)",1.35,0.39,1,16691.386,3
0,884,target,"[(1124, 807)]",[],[1],[0.3333333333333333],vertical,"(890.0, 762.0)",1.2666666666666666,0.291,1,16697.022,3
0,885,target,"[(1128, 795)]",[],[1],[0.5333333333333333],vertical,"(390.0, 262.0)",0.8666666666666667,0.49,1,16702.953,3
0,886,target,"[(1122, 796)]",[],[1],[0.13333333333333333],horizontal,"(390.0, 762.0)",1.2833333333333332,0.1,0,16708.264,0
0,887,target,"[(1105, 797)]",[],[1],[0.65],horizontal,"(390.0, 762.0)",1.2,0.604,1,16712.787,1
0,888,target,"[(1120, 795)]",[],[1],[0.5166666666666666],horizontal,"(890.0, 262.0)",1.1666666666666667,0.478,1,16717.861,1
0,889,target,"[(1124, 789)]",[],[1],[0.6333333333333333],vertical,"(890.0, 262.0)",1.1166666666666667,0.59,1,16723.263,2
0,890,target,"[(1125, 796)]",[],[1],[0.35],vertical,"(890.0, 762.0)",1.3666666666666667,0.314,1,16728.741,2
0,891,target,"[(1125, 804)]",[],[1],[0.15],horizontal,"(890.0, 762.0)",1.6,0.118,0,16734.038,0
0,892,target,"[(1110, 802)]",[],[1],[0.25],vertical,"(390.0, 262.0)",1.6,0.217,1,16738.503,1
0,893,target,"[(1125, 812)]",[],[1],[0.5333333333333333],vertical,"(390.0, 262.0)",1.1833333333333333,0.492,1,16743.652,1
0,894,target,"[(1120, 791)]",[],[1],[0.2833333333333333],horizontal,"(890.0, 262.0)",1.55,0.245,1,16748.351,2
0,895,target,"[(1124, 799)]",[],[1],[0.85],horizontal,"(390.0, 262.0)",0.65,nan,0,16754.224,0
0,896,target,"[(1102, 791)]",[],[1],[0.7333333333333333],horizontal,"(890.0, 762.0)",0.8,0.682,1,16758.897,1
0,897,target,"[(1133, 798)]",[],[1],[0.85],vertical,"(390.0, 262.0)",0.8333333333333334,nan,0,16763.512,0
