block,trial,trial_type,taps_start_loc_during_fix,taps_end_loc_during_fix,taps_on_lever_during_fix,taps_on_lever_s_during_fix,bar_orientation,target_xy,cti,rt,acc,time,pulses,fa_rate_recent100,actual_invalid_type
0,1,valid,"[(1088, 863)]",[],[1],[0.3833333333333333],horizontal,"(390.0, 762.0)",1.35,0.346,1,0.541,1,0.0,same
0,2,valid,"[(1086, 1018), (1087, 842)]",[],"[0, 1]",[0.35],vertical,"(390.0, 762.0)",1.2333333333333334,0.309,1,9.252,1,0.0,same
0,3,valid,"[(1165, 893)]",[],[1],[0.4666666666666667],horizontal,"(890.0, 262.0)",0.6166666666666667,0.427,1,4946.693,1,0.0,same
0,4,valid,"[(1107, 868)]",[],[1],[0.7],horizontal,"(890.0, 762.0)",1.15,0.658,1,5529.23,2,0.0,same
0,5,catch,"[(1068, 891)]","[(1053, 913)]",[1],[0.5666666666666667],horizontal,"(890.0, 262.0)",,"('bar', 0.574),nan",0,5609.596,0,0.2,same
0,6,catch,"[(1088, 836)]",[],[1],[],horizontal,"(390.0, 262.0)",,"('cti', 1.473),nan",0,5616.595,0,0.3333333333333333,same
0,7,valid,"[(1113, 820)]",[],[1],[],horizontal,"(890.0, 262.0)",,"('fix', 0.508)",0,5621.879,0,0.2857142857142857,same
0,8,valid,"[(1083, 815)]",[],[1],[0.85],horizontal,"(890.0, 262.0)",0.6333333333333333,nan,0,5624.569,0,0.25,same
0,9,valid,"[(1084, 845)]",[],[1],[0.85],vertical,"(890.0, 262.0)",1.3166666666666667,nan,0,5629.023,0,0.2222222222222222,same
0,10,valid,"[(1107, 836)]",[],[1],[0.36666666666666664],vertical,"(890.0, 762.0)",0.9333333333333333,0.331,1,5638.39,1,0.2,same
0,11,invalid_same_bar,"[(1114, 838)]",[],[1],[],horizontal,"(390.0, 262.0)",,"('fix', 0.051)",0,5657.942,0,0.18181818181818182,same
0,12,invalid_adjacent_other_bar,"[(1033, 763)]",[],[1],[],horizontal,"(390.0, 762.0)",,"('fix', 0.118)",0,5659.397,0,0.16666666666666666,other
0,13,catch,"[(1086, 949), (1067, 957), (1063, 816)]",[],"[0, 0, 1]",[],horizontal,"(390.0, 762.0)",,"('fix', 0.189),nan",0,5661.213,0,0.23076923076923078,same
0,14,valid,"[(1193, 930)]",[],[1],[],vertical,"(890.0, 762.0)",,"('fix', 0.103)",0,5663.357,0,0.21428571428571427,same
0,15,catch,"[(998, 950), (989, 843), (1220, 960), (1043, 817)]",[],"[0, 0, 0, 1]",[],vertical,"(390.0, 262.0)",,"('fix', 0.133),nan",0,5665.615,0,0.26666666666666666,same
0,16,valid,"[(1131, 678), (1021, 739), (1033, 845)]",[],"[0, 0, 1]",[],vertical,"(390.0, 762.0)",,"('fix', 0.036)",0,5670.4,0,0.25,same
0,17,invalid_same_bar,"[(1117, 861)]",[],[1],[],horizontal,"(390.0, 762.0)",,"('fix', 0.051)",0,5677.563,0,0.23529411764705882,same
0,18,catch,"[(989, 814), (1185, 876)]",[],"[0, 1]",[],horizontal,"(890.0, 762.0)",,"('fix', 0.419),nan",0,5681.112,0,0.2777777777777778,same
0,19,valid,"[(1186, 909)]",[],[1],[],horizontal,"(390.0, 262.0)",,"('fix', 0.187)",0,5684.08,0,0.2631578947368421,same
0,20,invalid_same_bar,"[(1099, 923)]",[],[1],[],horizontal,"(890.0, 762.0)",,"('fix', 0.102)",0,5686.613,0,0.25,same
0,21,catch,"[(1190, 929)]","[(1158, 838)]",[1],[0.08333333333333333],vertical,"(390.0, 762.0)",,"('bar', 0.099),nan",0,5688.061,0,0.2857142857142857,same
0,22,valid,"[(1181, 963), (1122, 910)]",[],"[0, 1]",[],horizontal,"(390.0, 262.0)",,"('fix', 0.408)",0,5691.546,0,0.2727272727272727,same
0,23,valid,"[(1057, 863)]",[],[1],[0.6333333333333333],vertical,"(390.0, 262.0)",0.7,0.589,1,5701.749,1,0.2608695652173913,same
0,24,catch,"[(1111, 791)]",[],[1],[],horizontal,"(390.0, 762.0)",1.7,nan,1,5739.548,1,0.25,same
0,25,valid,"[(1136, 806)]",[],[1],[0.48333333333333334],horizontal,"(890.0, 262.0)",0.7,0.449,1,5744.929,1,0.24,same
0,26,valid,"[(1119, 815)]",[],[1],[0.7666666666666666],horizontal,"(890.0, 262.0)",1.1,0.723,1,5749.813,2,0.23076923076923078,same
0,27,valid,"[(1176, 826)]",[],[1],[0.48333333333333334],horizontal,"(890.0, 262.0)",1.3833333333333333,0.435,1,5755.73,2,0.2222222222222222,same
0,28,invalid_same_bar,"[(1121, 812)]",[],[1],[0.85],horizontal,"(390.0, 762.0)",0.9166666666666666,nan,0,5761.662,0,0.21428571428571427,same
0,29,catch,"[(1089, 870)]",[],[1],[],vertical,"(890.0, 762.0)",1.7,nan,1,5766.554,1,0.20689655172413793,same
0,30,valid,"[(1124, 785)]",[],[1],[0.55],vertical,"(890.0, 262.0)",1.0,0.5,1,5773.78,1,0.2,same
0,31,valid,"[(1191, 801)]",[],[1],[0.5666666666666667],horizontal,"(890.0, 762.0)",1.2666666666666666,0.523,1,5779.068,1,0.1935483870967742,same
0,32,catch,"[(1167, 805)]",[],[1],[],vertical,"(890.0, 762.0)",1.7,nan,1,5783.981,2,0.1875,same
0,33,catch,"[(1096, 802)]",[],[1],[],horizontal,"(390.0, 762.0)",1.7,nan,1,5789.963,2,0.18181818181818182,same
0,34,invalid_same_bar,"[(1151, 800)]",[],[1],[0.55],vertical,"(890.0, 262.0)",0.55,0.506,1,5795.346,2,0.17647058823529413,same
0,35,valid,"[(1159, 798)]",[],[1],[0.48333333333333334],horizontal,"(890.0, 262.0)",1.4333333333333333,0.442,1,5800.57,3,0.17142857142857143,same
0,36,valid,"[(1170, 803)]",[],[1],[0.48333333333333334],horizontal,"(890.0, 262.0)",1.5166666666666666,0.446,1,5807.166,3,0.16666666666666666,same
0,37,valid,"[(1147, 824)]",[],[1],[0.5166666666666666],horizontal,"(890.0, 762.0)",0.9,0.472,1,5813.449,3,0.16216216216216217,same
0,38,invalid_same_bar,"[(1087, 859)]",[],[1],[0.5333333333333333],vertical,"(890.0, 262.0)",0.35,0.489,1,5819.18,3,0.15789473684210525,same
0,39,valid,"[(1136, 847)]",[],[1],[0.55],horizontal,"(390.0, 762.0)",1.0833333333333333,0.508,1,5824.681,3,0.15384615384615385,same
0,40,catch,"[(1132, 823)]",[],[1],[],horizontal,"(390.0, 762.0)",,"('cti', 1.463),nan",0,5830.846,0,0.175,same
0,41,catch,"[(1097, 807)]",[],[1],[],horizontal,"(390.0, 762.0)",1.7,nan,1,5835.611,1,0.17073170731707318,same
0,42,valid,"[(1164, 818)]",[],[1],[0.4666666666666667],horizontal,"(890.0, 262.0)",0.7833333333333333,0.422,1,5850.715,1,0.16666666666666666,same
0,43,valid,"[(1111, 838)]",[],[1],[0.5166666666666666],vertical,"(390.0, 262.0)",1.4666666666666666,0.475,1,5855.783,1,0.16279069767441862,same
0,44,valid,"[(1175, 802)]",[],[1],[0.85],vertical,"(390.0, 262.0)",0.5,nan,0,5861.448,0,0.1590909090909091,same
0,45,valid,"[(1197, 799)]",[],[1],[0.85],vertical,"(390.0, 762.0)",1.2833333333333332,nan,0,5865.53,0,0.15555555555555556,same
0,46,valid,"[(1121, 846)]",[],[1],[0.6666666666666666],vertical,"(390.0, 262.0)",0.6,0.626,1,5870.233,1,0.15217391304347827,same
0,47,valid,"[(1161, 818)]",[],[1],[0.6],horizontal,"(890.0, 762.0)",0.43333333333333335,0.561,1,6249.709,1,0.14893617021276595,same
0,48,valid,"[(1124, 797)]",[],[1],[0.5333333333333333],vertical,"(890.0, 762.0)",0.9333333333333333,0.494,1,6254.098,1,0.14583333333333334,same
0,49,valid,"[(1151, 827)]",[],[1],[0.85],vertical,"(390.0, 762.0)",0.4666666666666667,nan,0,6259.147,0,0.14285714285714285,same
0,50,valid,"[(1132, 822)]",[],[1],[0.5],vertical,"(890.0, 762.0)",1.5333333333333332,0.457,1,6263.216,1,0.14,same
0,51,valid,"[(1160, 825)]",[],[1],[0.85],vertical,"(890.0, 262.0)",0.9333333333333333,nan,0,6268.794,0,0.14,same
0,52,valid,"[(1115, 853)]",[],[1],[0.5166666666666666],horizontal,"(890.0, 262.0)",0.45,0.475,1,6273.531,1,0.14,same
0,53,valid,"[(1193, 836)]",[],[1],[0.85],vertical,"(390.0, 762.0)",1.3166666666666667,nan,0,6278.191,0,0.14,same
0,54,valid,"[(1137, 802)]",[],[1],[0.65],horizontal,"(390.0, 262.0)",1.0666666666666667,0.602,1,6283.082,1,0.14,same
0,55,valid,"[(1163, 808)]",[],[1],[0.6333333333333333],vertical,"(890.0, 262.0)",0.36666666666666664,0.602,1,6288.098,1,0.12,same
0,56,valid,"[(1137, 808)]",[],[1],[0.48333333333333334],horizontal,"(390.0, 762.0)",0.8666666666666667,0.445,1,6292.38,1,0.1,same
0,57,valid,"[(1164, 822)]",[],[1],[0.5333333333333333],horizontal,"(890.0, 762.0)",1.45,0.494,1,6297.131,2,0.1,same
0,58,valid,"[(1160, 822)]",[],[1],[0.48333333333333334],vertical,"(890.0, 262.0)",1.5333333333333332,0.445,1,6302.68,2,0.1,same
0,59,valid,"[(1161, 823)]",[],[1],[0.48333333333333334],vertical,"(390.0, 262.0)",1.0833333333333333,0.446,1,6308.714,2,0.1,same
0,60,valid,"[(1165, 839)]",[],[1],[0.4666666666666667],horizontal,"(390.0, 762.0)",1.4166666666666667,0.431,1,6314.581,3,0.1,same
0,61,catch,"[(1165, 805)]",[],[1],[],horizontal,"(890.0, 762.0)",1.7,nan,1,6320.95,3,0.1,same
0,62,invalid_adjacent_other_bar,"[(1165, 799)]",[],[1],[0.6166666666666667],horizontal,"(390.0, 262.0)",1.3,0.572,1,6326.915,3,0.1,other
0,63,catch,"[(1165, 800)]",[],[1],[],horizontal,"(390.0, 762.0)",1.7,nan,1,6333.147,3,0.08,same
0,64,catch,"[(1162, 808)]",[],[1],[],horizontal,"(390.0, 262.0)",1.7,nan,1,6339.097,3,0.08,same
0,65,valid,"[(1136, 790)]",[],[1],[0.6],horizontal,"(390.0, 262.0)",1.4666666666666666,0.556,1,6345.047,3,0.06,same
0,66,valid,"[(1161, 812)]",[],[1],[0.5166666666666666],horizontal,"(390.0, 262.0)",1.05,0.475,1,6350.957,3,0.06,same
0,67,valid,"[(1178, 829)]",[],[1],[0.5666666666666667],horizontal,"(890.0, 262.0)",0.45,0.524,1,6356.632,3,0.06,same
0,68,valid,"[(1180, 808)]",[],[1],[0.5833333333333334],vertical,"(390.0, 762.0)",1.0333333333333332,0.541,1,6361.915,3,0.04,same
0,69,invalid_same_bar,"[(1176, 824)]",[],[1],[0.5166666666666666],vertical,"(890.0, 262.0)",1.0833333333333333,0.477,1,6367.582,3,0.04,same
0,70,catch,"[(1160, 803)]",[],[1],[],horizontal,"(390.0, 762.0)",1.7,nan,1,6373.664,3,0.04,same
0,71,valid,"[(1160, 796)]",[],[1],[0.4666666666666667],horizontal,"(890.0, 262.0)",0.9666666666666667,0.424,1,6379.532,3,0.02,same
0,72,valid,"[(1165, 822)]",[],[1],[0.65],horizontal,"(890.0, 762.0)",0.4,0.618,1,6385.514,3,0.02,same
0,73,valid,"[(1171, 815)]",[],[1],[0.85],horizontal,"(390.0, 762.0)",0.45,nan,0,6390.931,0,0.02,same
0,74,valid,"[(1137, 809)]",[],[1],[0.5666666666666667],vertical,"(390.0, 762.0)",0.65,0.526,1,6394.932,1,0.02,same
0,75,valid,"[(1166, 817)]",[],[1],[0.85],vertical,"(390.0, 762.0)",0.5,nan,0,6399.77,0,0.02,same
0,76,valid,"[(1126, 812)]",[],[1],[0.85],horizontal,"(390.0, 262.0)",1.2333333333333334,nan,0,6403.682,0,0.02,same
0,77,catch,"[(1103, 852)]",[],[1],[],horizontal,"(390.0, 762.0)",1.7,nan,1,6408.597,1,0.02,same
0,78,valid,"[(1131, 806)]",[],[1],[0.5833333333333334],horizontal,"(890.0, 762.0)",1.2833333333333332,0.543,1,6417.328,1,0.02,same
0,79,valid,"[(1156, 826)]",[],[1],[0.5833333333333334],horizontal,"(390.0, 262.0)",1.4666666666666666,0.539,1,6422.85,1,0.02,same
0,80,valid,"[(1163, 811)]",[],[1],[0.85],horizontal,"(890.0, 762.0)",1.2833333333333332,nan,0,6427.999,0,0.02,same
0,81,valid,"[(1131, 809)]",[],[1],[0.5166666666666666],vertical,"(890.0, 762.0)",0.95,0.483,1,6433.065,1,0.02,same
0,82,catch,"[(1155, 824)]",[],[1],[],horizontal,"(390.0, 262.0)",1.7,nan,1,6438.173,1,0.02,same
0,83,invalid_adjacent_other_bar,"[(1160, 821)]",[],[1],[0.5166666666666666],vertical,"(890.0, 762.0)",1.3,0.479,1,6442.882,1,0.02,other
0,84,valid,"[(1139, 804)]",[],[1],[0.5],horizontal,"(890.0, 762.0)",1.0666666666666667,0.462,1,6448.476,2,0.02,same
0,85,valid,"[(1155, 814)]",[],[1],[0.5166666666666666],horizontal,"(390.0, 762.0)",0.7333333333333333,0.475,1,6453.934,2,0.02,same
0,86,valid,"[(1147, 818)]",[],[1],[0.6333333333333333],vertical,"(890.0, 762.0)",0.7833333333333333,0.593,1,6458.965,2,0.02,same
0,87,catch,"[(1156, 810)]",[],[1],[],horizontal,"(890.0, 762.0)",1.7,nan,1,6464.694,3,0.02,same
0,88,valid,"[(1160, 821)]",[],[1],[0.5166666666666666],horizontal,"(390.0, 762.0)",0.65,0.484,1,6470.731,3,0.02,same
0,89,valid,"[(1160, 814)]",[],[1],[0.6333333333333333],horizontal,"(390.0, 262.0)",1.1833333333333333,0.602,1,6476.248,3,0.02,same
0,90,valid,"[(1160, 797)]",[],[1],[0.85],horizontal,"(890.0, 262.0)",0.9,nan,0,6482.114,0,0.0,same
0,91,valid,"[(1091, 823)]",[],[1],[0.5666666666666667],horizontal,"(390.0, 262.0)",0.9333333333333333,0.526,1,6486.642,1,0.0,same
0,92,catch,"[(1122, 821)]",[],[1],[],horizontal,"(390.0, 262.0)",1.7,nan,1,6492.408,1,0.0,same
0,93,invalid_same_bar,"[(1165, 827)]",[],[1],[0.5833333333333334],horizontal,"(390.0, 262.0)",0.3833333333333333,0.54,1,6497.894,1,0.0,same
0,94,invalid_adjacent_other_bar,"[(1165, 789)]",[],[1],[0.7],horizontal,"(890.0, 262.0)",0.8833333333333333,0.668,1,6502.244,2,0.0,other
0,95,valid,"[(1176, 794)]",[],[1],[0.55],horizontal,"(890.0, 762.0)",0.9,0.509,1,6507.437,2,0.0,same
0,96,valid,"[(1141, 806)]",[],[1],[0.65],vertical,"(890.0, 762.0)",0.75,0.609,1,6512.531,2,0.0,same
0,97,invalid_same_bar,"[(1158, 823)]",[],[1],[0.5333333333333333],vertical,"(890.0, 262.0)",1.35,0.503,1,6518.565,3,0.0,same
0,98,valid,"[(1185, 821)]",[],[1],[0.85],vertical,"(890.0, 762.0)",0.65,nan,0,6525.133,0,0.0,same
0,99,catch,"[(1141, 820)]",[],[1],[],vertical,"(390.0, 762.0)",,"('cti', 0.446),nan",0,6529.281,0,0.02,same
0,100,valid,"[(1126, 829)]",[],[1],[0.43333333333333335],horizontal,"(390.0, 762.0)",0.4666666666666667,0.393,1,6532.648,1,0.02,same
0,101,valid,"[(1160, 798)]",[],[1],[0.5],horizontal,"(390.0, 762.0)",1.3333333333333333,0.461,1,6561.648,1,0.02,same
0,102,valid,"[(1132, 822)]",[],[1],[0.48333333333333334],vertical,"(890.0, 262.0)",1.5333333333333332,0.441,1,6567.115,1,0.02,same
0,103,catch,"[(1175, 818)]",[],[1],[],vertical,"(890.0, 762.0)",1.7,nan,1,6572.315,2,0.02,same
0,104,invalid_same_bar,"[(1101, 827)]",[],[1],[0.7166666666666667],vertical,"(890.0, 262.0)",0.6333333333333333,0.682,1,6578.446,2,0.02,same
0,105,invalid_adjacent_other_bar,"[(1129, 824)]",[],[1],[0.26666666666666666],vertical,"(890.0, 262.0)",1.2333333333333334,0.234,1,6587.062,2,0.02,other
0,106,catch,"[(1146, 817)]",[],[1],[],horizontal,"(390.0, 762.0)",1.7,nan,1,6592.581,3,0.02,same
0,107,valid,"[(1185, 797)]",[],[1],[0.65],vertical,"(890.0, 262.0)",0.8833333333333333,0.605,1,6598.891,3,0.02,same
0,108,valid,"[(1169, 797)]",[],[1],[0.5166666666666666],vertical,"(890.0, 262.0)",1.3333333333333333,0.473,1,6604.95,3,0.02,same
0,109,valid,"[(1160, 787)]",[],[1],[0.5833333333333334],vertical,"(890.0, 262.0)",0.6833333333333333,0.545,1,6611.296,3,0.02,same
0,110,valid,"[(1160, 827)]",[],[1],[0.6166666666666667],horizontal,"(390.0, 262.0)",0.5,0.577,1,6616.997,3,0.02,same
0,111,catch,"[(1185, 822)]",[],[1],[],vertical,"(890.0, 262.0)",1.7,nan,1,6622.433,3,0.02,same
0,112,valid,"[(1185, 818)]",[],[1],[0.4666666666666667],horizontal,"(890.0, 762.0)",1.1166666666666667,0.425,1,6628.778,3,0.02,same
0,113,valid,"[(1188, 796)]",[],[1],[0.48333333333333334],horizontal,"(390.0, 262.0)",0.8166666666666667,0.452,1,6634.467,3,0.02,same
0,114,valid,"[(1167, 787)]",[],[1],[0.48333333333333334],horizontal,"(890.0, 262.0)",1.3,0.442,1,6640.149,3,0.02,same
0,115,catch,"[(1165, 796)]",[],[1],[],vertical,"(390.0, 762.0)",1.7,nan,1,6646.216,3,0.02,same
0,116,valid,"[(1166, 798)]",[],[1],[0.5166666666666666],vertical,"(890.0, 262.0)",1.1,0.478,1,6652.499,3,0.02,same
0,117,catch,"[(1170, 795)]",[],[1],[],vertical,"(890.0, 762.0)",1.7,nan,1,6658.666,3,0.02,same
0,118,valid,"[(1165, 811)]",[],[1],[0.65],horizontal,"(890.0, 262.0)",0.48333333333333334,0.609,1,6664.225,3,0.02,same
0,119,valid,"[(1175, 809)]",[],[1],[0.5],horizontal,"(890.0, 262.0)",1.2833333333333332,0.463,1,6669.626,3,0.02,same
0,120,invalid_same_bar,"[(1181, 797)]",[],[1],[0.85],vertical,"(890.0, 762.0)",0.9333333333333333,nan,0,6675.274,0,0.02,same
0,121,valid,"[(1140, 800)]",[],[1],[0.5166666666666666],vertical,"(390.0, 262.0)",1.15,0.48,1,6680.028,1,0.02,same
0,122,valid,"[(1176, 817)]",[],[1],[0.85],vertical,"(390.0, 762.0)",1.1333333333333333,nan,0,6685.32,0,0.02,same
0,123,invalid_adjacent_other_bar,"[(1144, 797)]",[],[1],[0.85],vertical,"(890.0, 262.0)",0.5,nan,0,6689.899,0,0.02,other
0,124,valid,"[(1127, 807)]",[],[1],[0.85],horizontal,"(390.0, 762.0)",0.65,nan,0,6694.098,0,0.02,same
0,125,valid,"[(1150, 796)]",[],[1],[0.85],vertical,"(890.0, 762.0)",0.5166666666666666,nan,0,6698.183,0,0.02,same
0,126,valid,"[(1125, 841)]",[],[1],[0.5833333333333334],horizontal,"(390.0, 262.0)",1.4333333333333333,0.551,1,6702.416,1,0.02,same
0,127,valid,"[(1158, 820)]",[],[1],[0.5166666666666666],vertical,"(390.0, 762.0)",0.9166666666666666,0.473,1,6708.077,1,0.02,same
0,128,catch,"[(1168, 803)]",[],[1],[],vertical,"(890.0, 762.0)",1.7,nan,1,6713.162,1,0.02,same
0,129,valid,"[(1172, 822)]",[],[1],[0.6666666666666666],horizontal,"(890.0, 762.0)",1.05,0.623,1,6718.499,2,0.02,same
0,130,valid,"[(1160, 808)]",[],[1],[0.6],horizontal,"(390.0, 262.0)",1.0166666666666666,0.558,1,6724.616,2,0.02,same
0,131,catch,"[(1131, 832)]",[],[1],[],horizontal,"(390.0, 262.0)",1.7,nan,1,6730.032,2,0.02,same
0,132,valid,"[(1160, 802)]",[],[1],[0.7666666666666666],vertical,"(890.0, 262.0)",0.7,0.726,1,6736.433,3,0.02,same
0,133,catch,"[(1170, 788)]",[],[1],[],horizontal,"(890.0, 262.0)",1.7,nan,1,6742.689,3,0.02,same
0,134,valid,"[(1136, 776)]",[],[1],[0.5333333333333333],horizontal,"(390.0, 762.0)",1.1666666666666667,0.493,1,6748.199,3,0.02,same
0,135,valid,"[(1158, 782)]",[],[1],[0.5166666666666666],horizontal,"(390.0, 762.0)",1.15,0.477,1,6754.2,3,0.02,same
0,136,catch,"[(1165, 822)]",[],[1],[],vertical,"(890.0, 762.0)",1.7,nan,1,6759.984,3,0.02,same
0,137,catch,"[(1166, 792)]",[],[1],[],vertical,"(890.0, 262.0)",1.7,nan,1,6766.15,3,0.02,same
0,138,valid,"[(1118, 826)]",[],[1],[0.4666666666666667],horizontal,"(390.0, 762.0)",1.4333333333333333,0.429,1,6772.709,3,0.02,same
0,139,valid,"[(1169, 801)]",[],[1],[0.6833333333333333],horizontal,"(890.0, 762.0)",1.4666666666666666,0.641,1,6779.399,3,0.02,same
0,140,valid,"[(1166, 785)]",[],[1],[0.5],horizontal,"(890.0, 762.0)",1.1,0.46,1,6785.5,3,0.02,same
0,141,catch,"[(1178, 803)]",[],[1],[],horizontal,"(390.0, 762.0)",1.7,nan,1,6791.508,3,0.02,same
0,142,catch,"[(1178, 795)]",[],[1],[],horizontal,"(890.0, 262.0)",1.7,nan,1,6797.249,3,0.02,same
0,143,valid,"[(1171, 817)]",[],[1],[0.5166666666666666],vertical,"(390.0, 262.0)",0.6666666666666666,0.474,1,6802.986,3,0.02,same
0,144,invalid_adjacent_other_bar,"[(1119, 839)]",[],[1],[0.23333333333333334],horizontal,"(890.0, 762.0)",0.9833333333333333,0.196,0,6808.112,0,0.02,other
0,145,catch,"[(1131, 812)]",[],[1],[],vertical,"(390.0, 262.0)",1.7,nan,1,7036.31,1,0.02,same
0,146,valid,"[(1165, 808)]",[],[1],[0.6666666666666666],horizontal,"(390.0, 762.0)",1.0833333333333333,0.619,1,7041.648,1,0.02,same
0,147,valid,"[(1159, 820)]",[],[1],[0.48333333333333334],horizontal,"(390.0, 762.0)",0.55,0.441,1,7047.051,1,0.02,same
0,148,invalid_same_bar,"[(1165, 847)]",[],[1],[0.48333333333333334],horizontal,"(390.0, 762.0)",0.9333333333333333,0.444,1,7051.349,2,0.02,same
0,149,valid,"[(1141, 813)]",[],[1],[0.6333333333333333],horizontal,"(390.0, 262.0)",0.4,0.589,1,7057.001,2,0.0,same
0,150,valid,"[(1156, 782)]",[],[1],[0.5666666666666667],horizontal,"(390.0, 762.0)",1.45,0.534,1,7062.234,2,0.0,same
0,151,valid,"[(1132, 804)]",[],[1],[0.55],horizontal,"(390.0, 762.0)",1.3,0.506,1,7068.384,3,0.0,same
0,152,catch,"[(1142, 797)]",[],[1],[],horizontal,"(890.0, 262.0)",1.7,nan,1,7075.037,3,0.0,same
0,153,catch,"[(1164, 791)]",[],[1],[],horizontal,"(890.0, 262.0)",1.7,nan,1,7080.784,3,0.0,same
0,154,catch,"[(1156, 807)]",[],[1],[],horizontal,"(390.0, 262.0)",1.7,nan,1,7087.1,3,0.0,same
0,155,catch,"[(1176, 822)]",[],[1],[],horizontal,"(890.0, 762.0)",1.7,nan,1,7093.411,3,0.0,same
0,156,valid,"[(1185, 817)]",[],[1],[0.45],vertical,"(890.0, 762.0)",1.35,0.408,1,7099.451,3,0.0,same
0,157,valid,"[(1163, 818)]",[],[1],[0.6],horizontal,"(890.0, 262.0)",0.8,0.567,1,7105.166,3,0.0,same
0,158,valid,"[(1159, 806)]",[],[1],[0.6166666666666667],horizontal,"(890.0, 762.0)",1.4,0.575,1,7110.717,3,0.0,same
0,159,valid,"[(1141, 827)]",[],[1],[0.55],vertical,"(390.0, 262.0)",0.7833333333333333,0.51,1,7116.733,3,0.0,same
0,160,valid,"[(1163, 817)]",[],[1],[0.55],vertical,"(390.0, 262.0)",0.55,0.506,1,7122.534,3,0.0,same
0,161,valid,"[(1172, 804)]",[],[1],[0.5],horizontal,"(890.0, 262.0)",1.1666666666666667,0.465,1,7127.666,3,0.0,same
0,162,invalid_same_bar,"[(1128, 822)]",[],[1],[0.4666666666666667],horizontal,"(890.0, 262.0)",0.55,0.423,1,7133.955,3,0.0,same
0,163,valid,"[(1165, 817)]",[],[1],[],horizontal,"(390.0, 762.0)",,"('fix', 0.294)",0,7139.89,0,0.0,same
0,164,valid,"[(1156, 812)]",[],[1],[0.7833333333333333],horizontal,"(390.0, 762.0)",1.5166666666666666,0.739,1,7141.567,1,0.0,same
0,165,invalid_same_bar,"[(1161, 773)]",[],[1],[0.5333333333333333],vertical,"(390.0, 762.0)",0.65,0.491,1,7147.717,1,0.0,same
0,166,catch,"[(1163, 789)]",[],[1],[],vertical,"(890.0, 762.0)",1.7,nan,1,7153.014,1,0.0,same
0,167,invalid_adjacent_other_bar,"[(1164, 802)]",[],[1],[0.85],vertical,"(390.0, 262.0)",0.9166666666666666,nan,0,7158.217,0,0.0,other
0,168,valid,"[(1165, 817)]",[],[1],[0.5833333333333334],vertical,"(390.0, 762.0)",1.2833333333333332,0.542,1,7163.284,1,0.0,same
0,169,valid,"[(1165, 792)]",[],[1],[0.6666666666666666],vertical,"(890.0, 762.0)",0.4166666666666667,0.623,1,7168.641,1,0.0,same
0,170,valid,"[(1162, 810)]",[],[1],[0.5666666666666667],vertical,"(390.0, 762.0)",0.36666666666666664,0.523,1,7173.184,1,0.0,same
0,171,invalid_same_bar,"[(1161, 822)]",[],[1],[0.5833333333333334],horizontal,"(390.0, 762.0)",0.8666666666666667,0.538,1,7177.418,2,0.0,same
0,172,catch,"[(1162, 803)]",[],[1],[],vertical,"(390.0, 262.0)",1.7,nan,1,7182.734,2,0.0,same
0,173,invalid_adjacent_other_bar,"[(1144, 815)]",[],[1],[0.5],horizontal,"(890.0, 262.0)",0.5166666666666666,0.458,1,7188.468,2,0.0,other
0,174,valid,"[(1161, 822)]",[],[1],[0.5833333333333334],vertical,"(390.0, 262.0)",1.4166666666666667,0.537,1,7193.699,3,0.0,same
0,175,valid,"[(1131, 787)]",[],[1],[0.55],vertical,"(390.0, 262.0)",0.95,0.507,1,7200.217,3,0.0,same
0,176,valid,"[(1175, 785)]",[],[1],[0.85],horizontal,"(390.0, 762.0)",1.2,nan,0,7205.563,0,0.0,same
0,177,valid,"[(1171, 816)]",[],[1],[0.7333333333333333],vertical,"(390.0, 262.0)",1.1666666666666667,0.683,1,7210.817,1,0.0,same
0,178,valid,"[(1146, 797)]",[],[1],[0.85],vertical,"(390.0, 762.0)",0.6666666666666666,nan,0,7216.001,0,0.0,same
0,179,valid,"[(1153, 805)]",[],[1],[0.85],vertical,"(390.0, 262.0)",0.7166666666666667,nan,0,7220.6,0,0.0,same
0,180,valid,"[(1126, 817)]",[],[1],[0.4666666666666667],horizontal,"(890.0, 262.0)",0.8,0.438,1,7225.384,1,0.0,same
0,181,invalid_adjacent_other_bar,"[(1121, 817)]",[],[1],[0.5166666666666666],horizontal,"(390.0, 262.0)",0.8166666666666667,0.473,1,7230.238,1,0.0,other
0,182,catch,"[(1163, 815)]",[],[1],[],horizontal,"(390.0, 262.0)",1.7,nan,1,7235.451,1,0.0,same
0,183,valid,"[(1173, 803)]",[],[1],[0.75],vertical,"(890.0, 762.0)",1.45,0.706,1,7240.85,2,0.0,same
0,184,invalid_adjacent_other_bar,"[(1159, 780)]",[],[1],[0.5],horizontal,"(890.0, 762.0)",1.25,0.461,1,7246.826,2,0.0,other
0,185,invalid_same_bar,"[(1162, 817)]",[],[1],[0.5333333333333333],vertical,"(890.0, 262.0)",1.0166666666666666,0.49,1,7252.35,2,0.0,same
0,186,valid,"[(1160, 811)]",[],[1],[0.7],vertical,"(390.0, 262.0)",1.2833333333333332,0.653,1,7257.882,3,0.0,same
0,187,valid,"[(1159, 787)]",[],[1],[0.55],horizontal,"(890.0, 262.0)",1.3833333333333333,0.511,1,7264.418,3,0.0,same
0,188,valid,"[(1170, 776)]",[],[1],[0.55],horizontal,"(890.0, 762.0)",1.0,0.516,1,7270.734,3,0.0,same
0,189,valid,"[(1163, 785)]",[],[1],[0.5],vertical,"(890.0, 762.0)",1.1333333333333333,0.456,1,7276.524,3,0.0,same
0,190,valid,"[(1182, 781)]",[],[1],[0.6833333333333333],vertical,"(390.0, 262.0)",1.2166666666666666,0.644,1,7282.646,3,0.0,same
0,191,catch,"[(1129, 832)]",[],[1],[],horizontal,"(390.0, 762.0)",1.7,nan,1,7289.539,3,0.0,same
0,192,catch,"[(1121, 822)]",[],[1],[],vertical,"(390.0, 762.0)",1.7,nan,1,7296.151,3,0.0,same
0,193,invalid_same_bar,"[(1156, 778)]",[],[1],[0.6],horizontal,"(890.0, 762.0)",0.7333333333333333,0.554,1,7302.6,3,0.0,same
0,194,invalid_adjacent_other_bar,"[(1165, 807)]",[],[1],[0.5333333333333333],vertical,"(890.0, 762.0)",1.0333333333333332,0.491,1,7308.126,3,0.0,other
0,195,catch,"[(1161, 788)]",[],[1],[],vertical,"(890.0, 762.0)",1.7,nan,1,7313.834,3,0.0,same
0,196,valid,"[(1158, 777)]",[],[1],[0.5166666666666666],vertical,"(890.0, 762.0)",1.3666666666666667,0.475,1,7320.0,3,0.0,same
0,197,valid,"[(1165, 777)]",[],[1],[0.85],vertical,"(890.0, 762.0)",0.5833333333333334,nan,0,7326.627,0,0.0,same
0,198,valid,"[(1131, 782)]",[],[1],[0.5666666666666667],vertical,"(890.0, 762.0)",1.35,0.525,1,7330.73,1,0.0,same
0,199,valid,"[(1171, 801)]",[],[1],[0.48333333333333334],horizontal,"(390.0, 262.0)",0.5,0.439,1,7336.312,1,0.0,same
0,200,catch,"[(1169, 789)]",[],[1],[],horizontal,"(890.0, 262.0)",,"('cti', 1.466),nan",0,7341.103,0,0.02,same
0,201,valid,"[(1151, 820)]",[],[1],[0.48333333333333334],vertical,"(890.0, 762.0)",1.0833333333333333,0.445,1,7345.781,1,0.02,same
0,202,valid,"[(1168, 786)]",[],[1],[0.5],horizontal,"(390.0, 762.0)",1.35,0.457,1,7351.296,1,0.02,same
0,203,valid,"[(1146, 782)]",[],[1],[0.6166666666666667],vertical,"(390.0, 262.0)",1.3666666666666667,0.573,1,7356.313,1,0.02,same
0,204,valid,"[(1165, 811)]",[],[1],[0.5333333333333333],horizontal,"(390.0, 262.0)",0.5333333333333333,0.496,1,7361.791,2,0.02,same
0,205,catch,"[(1165, 780)]",[],[1],[],horizontal,"(890.0, 762.0)",1.7,nan,1,7366.759,2,0.02,same
0,206,valid,"[(1168, 782)]",[],[1],[0.5833333333333334],vertical,"(390.0, 762.0)",1.0666666666666667,0.54,1,7372.389,2,0.02,same
0,207,catch,"[(1164, 819)]",[],[1],[],vertical,"(890.0, 262.0)",1.7,nan,1,7378.157,3,0.02,same
0,208,catch,"[(1161, 812)]",[],[1],[],horizontal,"(890.0, 762.0)",1.7,nan,1,7384.467,3,0.02,same
0,209,valid,"[(1131, 824)]",[],[1],[0.85],horizontal,"(890.0, 262.0)",0.75,nan,0,7390.632,0,0.02,same
0,210,valid,"[(1131, 792)]",[],[1],[0.5],horizontal,"(390.0, 762.0)",0.8166666666666667,0.458,1,7395.099,1,0.02,same
0,211,invalid_adjacent_other_bar,"[(1169, 820)]",[],[1],[0.85],horizontal,"(890.0, 762.0)",0.4666666666666667,nan,0,7400.083,0,0.02,other
0,212,valid,"[(1131, 777)]",[],[1],[0.85],horizontal,"(390.0, 262.0)",0.36666666666666664,nan,0,7404.451,0,0.02,same
0,213,valid,"[(1143, 808)]",[],[1],[],horizontal,"(890.0, 262.0)",,"('cti', 1.375)",0,7408.313,0,0.02,same
0,214,invalid_adjacent_other_bar,"[(1081, 780)]",[],[1],[0.5],vertical,"(390.0, 762.0)",1.4666666666666666,0.461,1,7413.135,1,0.02,other
0,215,catch,"[(1168, 788)]",[],[1],[],horizontal,"(890.0, 262.0)",1.7,nan,1,7418.732,1,0.02,same
0,216,valid,"[(1170, 782)]",[],[1],[0.5333333333333333],vertical,"(890.0, 762.0)",1.0666666666666667,0.487,1,7424.134,1,0.02,same
0,217,valid,"[(1165, 804)]",[],[1],[0.5666666666666667],horizontal,"(890.0, 262.0)",1.25,0.523,1,7428.851,2,0.02,same
0,218,valid,"[(1131, 783)]",[],[1],[0.85],vertical,"(890.0, 262.0)",0.4666666666666667,nan,0,7434.651,0,0.02,same
0,219,valid,"[(1131, 798)]",[],[1],[0.85],vertical,"(890.0, 262.0)",0.4666666666666667,nan,0,7438.651,0,0.02,same
0,220,valid,"[(1081, 833)]",[],[1],[0.5],horizontal,"(390.0, 762.0)",1.1666666666666667,0.457,1,7442.844,1,0.02,same
0,221,invalid_same_bar,"[(1138, 799)]",[],[1],[0.5333333333333333],vertical,"(390.0, 762.0)",0.5333333333333333,0.49,1,7515.826,1,0.02,same
0,222,valid,"[(1146, 794)]",[],[1],[0.55],horizontal,"(390.0, 262.0)",0.7333333333333333,0.504,1,7520.329,1,0.02,same
0,223,valid,"[(1146, 803)]",[],[1],[0.55],horizontal,"(390.0, 262.0)",1.0333333333333332,0.517,1,7525.129,2,0.02,same
0,224,valid,"[(1160, 812)]",[],[1],[0.55],vertical,"(390.0, 762.0)",0.5333333333333333,0.508,1,7530.872,2,0.02,same
0,225,valid,"[(1165, 781)]",[],[1],[0.4666666666666667],horizontal,"(390.0, 262.0)",1.0166666666666666,0.427,1,7536.219,2,0.02,same
0,226,invalid_adjacent_other_bar,"[(1164, 803)]",[],[1],[0.5],horizontal,"(890.0, 762.0)",0.8833333333333333,0.461,1,7541.685,3,0.02,other
0,227,invalid_adjacent_other_bar,"[(1181, 782)]",[],[1],[0.85],horizontal,"(890.0, 262.0)",1.2333333333333334,nan,0,7547.408,0,0.02,other
0,228,valid,"[(1161, 799)]","[(1098, 872)]",[1],[0.1],horizontal,"(890.0, 262.0)",,"('bar', 0.114)",0,7552.519,0,0.02,same
0,229,catch,"[(1079, 838)]",[],[1],[],horizontal,"(390.0, 262.0)",1.7,nan,1,7554.92,1,0.02,same
0,230,catch,"[(1166, 824)]",[],[1],[],vertical,"(390.0, 762.0)",1.7,nan,1,7959.169,1,0.02,same
0,231,valid,"[(1150, 792)]",[],[1],[0.5666666666666667],vertical,"(890.0, 262.0)",1.1833333333333333,0.527,1,7964.255,1,0.02,same
0,232,valid,"[(1159, 804)]",[],[1],[0.6833333333333333],vertical,"(390.0, 762.0)",0.8833333333333333,0.639,1,7969.669,2,0.02,same
0,233,valid,"[(1158, 795)]",[],[1],[0.5166666666666666],vertical,"(390.0, 762.0)",0.5666666666666667,0.476,1,7975.553,2,0.02,same
0,234,invalid_adjacent_other_bar,"[(1166, 800)]",[],[1],[0.85],vertical,"(390.0, 262.0)",0.8666666666666667,nan,0,7980.533,0,0.02,other
0,235,valid,"[(1162, 788)]",[],[1],[0.6166666666666667],horizontal,"(890.0, 762.0)",1.0333333333333332,0.571,1,7985.078,1,0.02,same
0,236,valid,"[(1136, 801)]",[],[1],[0.4666666666666667],vertical,"(890.0, 262.0)",1.05,0.431,1,7990.171,1,0.02,same
0,237,valid,"[(1167, 817)]",[],[1],[0.5166666666666666],vertical,"(890.0, 762.0)",1.5166666666666666,0.478,1,7994.837,1,0.02,same
0,238,valid,"[(1154, 780)]",[],[1],[0.5166666666666666],horizontal,"(390.0, 262.0)",1.1,0.475,1,8000.386,2,0.02,same
0,239,catch,"[(1171, 797)]",[],[1],[],vertical,"(890.0, 762.0)",1.7,nan,1,8006.203,2,0.02,same
0,240,valid,"[(1132, 797)]",[],[1],[0.7333333333333333],horizontal,"(390.0, 762.0)",1.0,0.686,1,8012.382,2,0.02,same
0,241,valid,"[(1163, 782)]",[],[1],[0.6333333333333333],vertical,"(390.0, 262.0)",1.35,0.591,1,8018.236,3,0.02,same
0,242,valid,"[(1192, 807)]",[],[1],[0.5666666666666667],vertical,"(890.0, 762.0)",0.8333333333333334,0.527,1,8024.436,3,0.02,same
0,243,valid,"[(1161, 769)]",[],[1],[0.5833333333333334],vertical,"(890.0, 762.0)",1.5,0.538,1,8030.338,3,0.02,same
0,244,catch,"[(1166, 797)]",[],[1],[],vertical,"(390.0, 762.0)",1.7,nan,1,8036.571,3,0.02,same
0,245,valid,"[(1182, 945), (1120, 860)]",[],"[0, 1]",[0.7666666666666666],horizontal,"(890.0, 262.0)",0.85,0.723,1,8050.895,3,0.02,same
0,246,valid,"[(1132, 805)]",[],[1],[0.5333333333333333],vertical,"(390.0, 762.0)",1.0,0.501,1,8058.687,3,0.02,same
0,247,valid,"[(1130, 801)]",[],[1],[0.5333333333333333],horizontal,"(890.0, 262.0)",0.8333333333333334,0.492,1,8064.386,3,0.02,same
0,248,valid,"[(1180, 781)]",[],[1],[],horizontal,"(390.0, 262.0)",,"('fix', 0.218)",0,8070.187,0,0.02,same
0,249,valid,"[(1164, 824)]",[],[1],[0.48333333333333334],horizontal,"(390.0, 262.0)",0.8333333333333334,0.445,1,8071.786,1,0.02,same
0,250,valid,"[(1149, 782)]",[],[1],[0.5666666666666667],horizontal,"(890.0, 262.0)",0.48333333333333334,0.527,1,8076.251,1,0.0,same
0,251,invalid_same_bar,"[(1142, 831)]",[],[1],[0.5166666666666666],vertical,"(890.0, 262.0)",1.0166666666666666,0.474,1,8081.036,1,0.0,same
0,252,valid,"[(1162, 798)]",[],[1],[0.5333333333333333],vertical,"(890.0, 262.0)",1.4333333333333333,0.488,1,8086.119,2,0.0,same
0,253,valid,"[(1170, 804)]",[],[1],[0.5666666666666667],horizontal,"(890.0, 762.0)",1.45,0.527,1,8092.053,2,0.0,same
0,254,valid,"[(1179, 819)]",[],[1],[0.55],vertical,"(390.0, 262.0)",0.7166666666666667,0.508,1,8097.66,2,0.0,same
0,255,valid,"[(1148, 782)]",[],[1],[0.5166666666666666],vertical,"(890.0, 762.0)",1.2666666666666666,0.476,1,8103.485,3,0.0,same
0,256,valid,"[(1156, 802)]",[],[1],[0.6166666666666667],horizontal,"(890.0, 762.0)",1.0,0.577,1,8109.753,3,0.0,same
0,257,valid,"[(1157, 794)]",[],[1],[0.6166666666666667],horizontal,"(390.0, 262.0)",0.9833333333333333,0.573,1,8115.335,3,0.0,same
0,258,valid,"[(1146, 788)]",[],[1],[0.6666666666666666],horizontal,"(890.0, 262.0)",0.7833333333333333,0.623,1,8121.102,3,0.0,same
0,259,valid,"[(1142, 802)]",[],[1],[0.6666666666666666],vertical,"(890.0, 262.0)",0.9,0.623,1,8126.52,3,0.0,same
0,260,valid,"[(1164, 797)]",[],[1],[0.6],horizontal,"(390.0, 762.0)",0.8333333333333334,0.564,1,8132.535,3,0.0,same
0,261,valid,"[(1160, 797)]",[],[1],[0.5666666666666667],vertical,"(390.0, 262.0)",1.2833333333333332,0.522,1,8138.519,3,0.0,same
0,262,valid,"[(1147, 778)]",[],[1],[0.5333333333333333],horizontal,"(890.0, 262.0)",1.4833333333333334,0.489,1,8144.887,3,0.0,same
0,263,valid,"[(1131, 793)]",[],[1],[0.5],horizontal,"(390.0, 262.0)",0.8166666666666667,0.463,1,8151.504,3,0.0,same
0,264,valid,"[(1156, 787)]",[],[1],[0.85],horizontal,"(890.0, 762.0)",0.3833333333333333,nan,0,8156.721,0,0.0,same
0,265,invalid_same_bar,"[(1122, 804)]",[],[1],[0.55],horizontal,"(890.0, 762.0)",0.5166666666666666,0.511,1,8160.904,1,0.0,same
0,266,valid,"[(1164, 803)]",[],[1],[0.85],vertical,"(890.0, 262.0)",0.6,nan,0,8166.321,0,0.0,same
0,267,catch,"[(1165, 801)]",[],[1],[],vertical,"(390.0, 262.0)",1.7,nan,1,8170.554,1,0.0,same
0,268,catch,"[(1156, 799)]",[],[1],[],vertical,"(890.0, 762.0)",1.7,nan,1,8176.121,1,0.0,same
0,269,valid,"[(1165, 812)]",[],[1],[0.85],horizontal,"(390.0, 262.0)",0.3833333333333333,nan,0,8181.271,0,0.0,same
0,270,valid,"[(1141, 795)]",[],[1],[0.6333333333333333],vertical,"(390.0, 762.0)",0.6333333333333333,0.595,1,8185.287,1,0.0,same
0,271,catch,"[(1165, 798)]",[],[1],[],vertical,"(390.0, 262.0)",1.7,nan,1,8189.788,1,0.0,same
0,272,valid,"[(1151, 804)]",[],[1],[0.85],horizontal,"(390.0, 262.0)",0.4666666666666667,nan,0,8195.087,0,0.0,same
0,273,invalid_same_bar,"[(1152, 794)]",[],[1],[0.5833333333333334],horizontal,"(890.0, 762.0)",1.35,0.542,1,8199.571,1,0.0,same
0,274,valid,"[(1170, 827)]",[],[1],[0.5],horizontal,"(890.0, 262.0)",0.9833333333333333,0.459,1,8205.121,1,0.0,same
0,275,catch,"[(1136, 810)]",[],[1],[],vertical,"(390.0, 262.0)",1.7,nan,1,8209.823,1,0.0,same
0,276,valid,"[(1128, 786)]",[],[1],[0.5166666666666666],vertical,"(890.0, 762.0)",1.15,0.471,1,8215.144,2,0.0,same
0,277,valid,"[(1122, 780)]",[],[1],[0.5333333333333333],vertical,"(890.0, 762.0)",0.85,0.489,1,8220.915,2,0.0,same
0,278,catch,"[(1155, 812)]",[],[1],[],vertical,"(890.0, 762.0)",1.7,nan,1,8226.42,2,0.0,same
0,279,valid,"[(1137, 804)]",[],[1],[0.5],vertical,"(890.0, 762.0)",0.7333333333333333,0.46,1,8232.123,3,0.0,same
0,280,invalid_adjacent_other_bar,"[(1165, 791)]",[],[1],[0.5166666666666666],vertical,"(390.0, 262.0)",0.6,0.476,1,8237.649,3,0.0,other
0,281,valid,"[(1135, 793)]",[],[1],[0.6833333333333333],horizontal,"(890.0, 262.0)",0.8333333333333334,0.637,1,8243.14,3,0.0,same
0,282,valid,"[(1166, 780)]",[],[1],[0.5],vertical,"(890.0, 262.0)",0.8166666666666667,0.46,1,8249.17,3,0.0,same
0,283,catch,"[(1101, 838)]",[],[1],[],vertical,"(890.0, 262.0)",1.7,nan,1,8254.76,3,0.0,same
0,284,valid,"[(1162, 803)]",[],[1],[0.85],horizontal,"(390.0, 762.0)",0.4166666666666667,nan,0,8264.343,0,0.0,same
0,285,valid,"[(1123, 832)]",[],[1],[0.6166666666666667],horizontal,"(890.0, 262.0)",0.9833333333333333,0.569,1,8268.427,1,0.0,same
0,286,valid,"[(1160, 829)]",[],[1],[0.5333333333333333],vertical,"(390.0, 762.0)",1.2166666666666666,0.488,1,8274.121,1,0.0,same
0,287,invalid_adjacent_other_bar,"[(1148, 808)]",[],[1],[0.85],horizontal,"(890.0, 762.0)",0.48333333333333334,nan,0,8279.454,0,0.0,other
0,288,catch,"[(1130, 799)]",[],[1],[],vertical,"(890.0, 762.0)",,"('cti', 1.024),nan",0,8284.17,0,0.02,same
0,289,valid,"[(1148, 806)]",[],[1],[0.85],horizontal,"(890.0, 762.0)",0.4666666666666667,nan,0,8288.63,0,0.02,same
0,290,valid,"[(1126, 820)]",[],[1],[0.6166666666666667],horizontal,"(890.0, 262.0)",0.9666666666666667,0.571,1,8293.053,1,0.02,same
0,291,invalid_adjacent_other_bar,"[(1169, 802)]",[],[1],[0.6666666666666666],vertical,"(890.0, 762.0)",0.9833333333333333,0.625,1,8297.923,1,0.02,other
0,292,valid,"[(1167, 793)]",[],[1],[0.5666666666666667],vertical,"(390.0, 262.0)",1.5333333333333332,0.522,1,8303.354,1,0.02,same
0,293,valid,"[(1168, 794)]",[],[1],[0.6833333333333333],horizontal,"(390.0, 262.0)",0.48333333333333334,0.635,1,8308.995,2,0.02,same
0,294,valid,"[(1165, 798)]",[],[1],[0.85],vertical,"(890.0, 762.0)",0.4,nan,0,8314.29,0,0.02,same
0,295,valid,"[(1122, 803)]",[],[1],[0.5833333333333334],vertical,"(390.0, 762.0)",0.9833333333333333,0.542,1,8318.485,1,0.02,same
0,296,valid,"[(1155, 792)]",[],[1],[0.6],horizontal,"(890.0, 262.0)",0.6666666666666666,0.562,1,8324.054,1,0.02,same
0,297,catch,"[(1176, 787)]",[],[1],[],vertical,"(390.0, 262.0)",1.7,nan,1,8328.938,1,0.02,same
0,298,valid,"[(1169, 795)]",[],[1],[0.5333333333333333],vertical,"(390.0, 762.0)",0.5166666666666666,0.487,1,8333.938,2,0.02,same
0,299,valid,"[(1140, 803)]",[],[1],[0.55],horizontal,"(390.0, 262.0)",1.2333333333333334,0.507,1,8339.071,2,0.02,same
0,300,valid,"[(1168, 802)]",[],[1],[0.6666666666666666],vertical,"(390.0, 762.0)",0.7666666666666666,0.621,1,8345.037,2,0.02,same
0,301,valid,"[(1132, 795)]",[],[1],[0.5833333333333334],vertical,"(390.0, 762.0)",1.2166666666666666,0.537,1,8350.573,3,0.02,same
0,302,valid,"[(1158, 802)]",[],[1],[0.6666666666666666],horizontal,"(390.0, 762.0)",0.5333333333333333,0.614,1,8356.455,3,0.02,same
0,303,valid,"[(1165, 794)]",[],[1],[0.5333333333333333],horizontal,"(890.0, 262.0)",0.7833333333333333,0.492,1,8361.87,3,0.02,same
0,304,valid,"[(1136, 778)]",[],[1],[0.5333333333333333],vertical,"(390.0, 762.0)",1.2166666666666666,0.492,1,8367.404,3,0.02,same
0,305,catch,"[(1170, 793)]",[],[1],[],horizontal,"(390.0, 262.0)",1.7,nan,1,8373.863,3,0.02,same
0,306,valid,"[(1167, 794)]",[],[1],[0.5666666666666667],horizontal,"(390.0, 262.0)",1.45,0.522,1,8380.105,3,0.02,same
0,307,catch,"[(1165, 779)]",[],[1],[],horizontal,"(890.0, 762.0)",1.7,nan,1,8386.322,3,0.02,same
0,308,catch,"[(1167, 806)]",[],[1],[],vertical,"(890.0, 762.0)",1.7,nan,1,8392.203,3,0.02,same
0,309,valid,"[(1189, 800)]",[],[1],[0.6],horizontal,"(390.0, 762.0)",1.1833333333333333,0.555,1,8398.205,3,0.02,same
0,310,invalid_same_bar,"[(1160, 818)]",[],[1],[0.5333333333333333],horizontal,"(390.0, 262.0)",0.8833333333333333,0.491,1,8403.821,3,0.02,same
0,311,valid,"[(1165, 785)]",[],[1],[0.5166666666666666],horizontal,"(890.0, 762.0)",1.1,0.474,1,8409.671,3,0.02,same
0,312,catch,"[(1168, 816)]",[],[1],[],vertical,"(390.0, 762.0)",1.7,nan,1,8415.737,3,0.02,same
0,313,catch,"[(1132, 855)]",[],[1],[],vertical,"(890.0, 762.0)",1.7,"('cti', 1.677),nan",0,8421.955,0,0.04,same
0,314,catch,"[(1134, 825)]",[],[1],[],horizontal,"(390.0, 262.0)",1.7,nan,1,8683.655,1,0.04,same
0,315,catch,"[(1163, 802)]",[],[1],[],vertical,"(890.0, 762.0)",1.7,nan,1,8689.163,1,0.04,same
0,316,valid,"[(1162, 822)]",[],[1],[0.5],vertical,"(390.0, 262.0)",0.7666666666666666,0.465,1,8694.127,1,0.04,same
0,317,catch,"[(1155, 818)]",[],[1],[],horizontal,"(390.0, 762.0)",1.7,nan,1,8698.804,2,0.04,same
0,318,catch,"[(1151, 806)]",[],[1],[],horizontal,"(390.0, 762.0)",1.7,nan,1,8704.471,2,0.04,same
0,319,catch,"[(1160, 799)]",[],[1],[],horizontal,"(890.0, 262.0)",1.7,nan,1,8709.587,2,0.04,same
0,320,catch,"[(1132, 794)]",[],[1],[],vertical,"(390.0, 262.0)",1.7,nan,1,8715.644,3,0.04,same
0,321,catch,"[(1161, 785)]",[],[1],[],vertical,"(890.0, 262.0)",1.7,nan,1,8721.849,3,0.04,same
0,322,valid,"[(1156, 794)]",[],[1],[0.7333333333333333],vertical,"(390.0, 762.0)",1.2333333333333334,0.69,1,8728.174,3,0.04,same
0,323,valid,"[(1160, 783)]",[],[1],[0.65],horizontal,"(390.0, 262.0)",1.45,0.601,1,8734.782,3,0.04,same
0,324,valid,"[(1140, 816)]",[],[1],[0.5333333333333333],horizontal,"(390.0, 262.0)",0.3833333333333333,0.494,1,8741.489,3,0.04,same
0,325,invalid_same_bar,"[(1162, 799)]",[],[1],[0.85],horizontal,"(890.0, 762.0)",1.5333333333333332,nan,0,8746.622,0,0.04,same
0,326,valid,"[(1136, 782)]",[],[1],[0.6],horizontal,"(890.0, 762.0)",1.4833333333333334,0.552,1,8751.528,1,0.04,same
0,327,valid,"[(1165, 799)]",[],[1],[0.4666666666666667],vertical,"(890.0, 762.0)",1.5166666666666666,0.427,1,8757.095,1,0.04,same
0,328,valid,"[(1166, 784)]",[],[1],[0.5833333333333334],horizontal,"(890.0, 762.0)",0.8166666666666667,0.536,1,8762.704,1,0.04,same
0,329,valid,"[(1162, 776)]",[],[1],[0.5833333333333334],horizontal,"(390.0, 262.0)",1.45,0.537,1,8767.917,2,0.04,same
0,330,valid,"[(1157, 777)]",[],[1],[0.6666666666666666],vertical,"(390.0, 762.0)",1.1166666666666667,0.62,1,8773.771,2,0.04,same
0,331,catch,"[(1132, 810)]",[],[1],[],vertical,"(390.0, 262.0)",1.7,nan,1,8779.351,2,0.04,same
0,332,valid,"[(1164, 808)]",[],[1],[0.6333333333333333],horizontal,"(390.0, 762.0)",0.4666666666666667,0.596,1,8785.077,3,0.04,same
0,333,valid,"[(1135, 823)]",[],[1],[0.5],horizontal,"(890.0, 762.0)",1.1166666666666667,0.458,1,8790.957,3,0.04,same
0,334,valid,"[(1161, 792)]",[],[1],[0.65],horizontal,"(890.0, 762.0)",0.6333333333333333,0.607,1,8797.31,3,0.04,same
0,335,valid,"[(1167, 788)]",[],[1],[0.5],horizontal,"(390.0, 262.0)",0.6333333333333333,0.455,1,8802.705,3,0.04,same
0,336,valid,"[(1121, 780)]",[],[1],[0.5166666666666666],horizontal,"(390.0, 262.0)",0.35,0.475,1,8808.088,3,0.04,same
0,337,valid,"[(1156, 800)]",[],[1],[0.85],vertical,"(390.0, 262.0)",0.3833333333333333,nan,0,8813.308,0,0.04,same
0,338,catch,"[(1116, 787)]",[],[1],[],vertical,"(390.0, 262.0)",1.7,nan,1,8817.427,1,0.02,same
0,339,valid,"[(1161, 816)]",[],[1],[0.4666666666666667],vertical,"(890.0, 262.0)",0.9666666666666667,0.431,1,8822.7,1,0.02,same
0,340,catch,"[(1173, 789)]",[],[1],[],horizontal,"(390.0, 262.0)",1.7,nan,1,8827.627,1,0.02,same
0,341,valid,"[(1166, 826)]",[],[1],[0.5833333333333334],horizontal,"(890.0, 262.0)",1.3333333333333333,0.544,1,8833.049,2,0.02,same
0,342,catch,"[(1169, 826)]",[],[1],[],horizontal,"(390.0, 762.0)",1.7,nan,1,8838.638,2,0.02,same
0,343,catch,"[(1136, 824)]",[],[1],[],horizontal,"(890.0, 762.0)",1.7,nan,1,8844.59,2,0.02,same
0,344,valid,"[(1164, 829)]",[],[1],[0.5166666666666666],horizontal,"(890.0, 762.0)",0.6166666666666667,0.478,1,8850.523,3,0.02,same
0,345,valid,"[(1135, 800)]",[],[1],[0.5333333333333333],horizontal,"(390.0, 262.0)",0.65,0.492,1,8856.19,3,0.02,same
0,346,catch,"[(1164, 801)]",[],[1],[],horizontal,"(890.0, 262.0)",1.7,nan,1,8861.624,3,0.02,same
0,347,invalid_adjacent_other_bar,"[(1132, 833)]",[],[1],[0.5166666666666666],vertical,"(890.0, 262.0)",0.6333333333333333,0.474,1,8867.288,3,0.02,other
0,348,valid,"[(1133, 823)]",[],[1],[],horizontal,"(890.0, 762.0)",,"('fix', 0.346)",0,8872.923,0,0.02,same
0,349,valid,"[(1120, 797)]",[],[1],[0.2],horizontal,"(890.0, 262.0)",1.4833333333333334,0.167,0,8874.656,0,0.02,same
0,350,catch,"[(1087, 846)]",[],[1],[],vertical,"(390.0, 262.0)",1.7,nan,1,8879.635,1,0.02,same
0,351,valid,"[(1165, 814)]",[],[1],[0.5166666666666666],vertical,"(390.0, 262.0)",0.8,0.484,1,8885.847,1,0.02,same
0,352,catch,"[(1166, 820)]",[],[1],[],horizontal,"(390.0, 762.0)",1.7,nan,1,8890.667,1,0.02,same
0,353,valid,"[(1131, 808)]",[],[1],[0.5833333333333334],horizontal,"(890.0, 762.0)",1.5166666666666666,0.539,1,8895.953,2,0.02,same
0,354,valid,"[(1137, 782)]",[],[1],[0.55],horizontal,"(390.0, 762.0)",0.8333333333333334,0.509,1,8901.989,2,0.02,same
0,355,valid,"[(1136, 806)]",[],[1],[0.5166666666666666],horizontal,"(890.0, 262.0)",0.7666666666666666,0.475,1,8907.622,2,0.02,same
0,356,valid,"[(1134, 818)]",[],[1],[0.6666666666666666],horizontal,"(390.0, 262.0)",1.3666666666666667,0.625,1,8913.114,3,0.02,same
0,357,valid,"[(1165, 818)]",[],[1],[0.85],vertical,"(390.0, 262.0)",1.1833333333333333,nan,0,8919.432,0,0.02,same
0,358,valid,"[(1136, 799)]",[],[1],[0.85],vertical,"(890.0, 762.0)",0.4166666666666667,nan,0,8924.365,0,0.02,same
0,359,valid,"[(1087, 793)]",[],[1],[0.6],vertical,"(890.0, 262.0)",0.9666666666666667,0.563,1,8928.557,1,0.02,same
0,360,valid,"[(1114, 824)]",[],[1],[0.5833333333333334],horizontal,"(390.0, 262.0)",1.2166666666666666,0.542,1,8933.997,1,0.02,same
0,361,valid,"[(1164, 804)]",[],[1],[0.6833333333333333],horizontal,"(390.0, 262.0)",0.7333333333333333,0.638,1,8939.193,1,0.02,same
0,362,valid,"[(1137, 779)]",[],[1],[0.4666666666666667],vertical,"(890.0, 762.0)",1.4,0.431,1,8944.224,2,0.02,same
0,363,valid,"[(1164, 774)]",[],[1],[0.6666666666666666],vertical,"(390.0, 762.0)",1.3333333333333333,0.625,1,8950.205,2,0.0,same
0,364,valid,"[(1136, 803)]",[],[1],[0.5333333333333333],horizontal,"(390.0, 762.0)",0.6166666666666667,0.488,1,8956.124,2,0.0,same
0,365,valid,"[(1167, 808)]",[],[1],[0.5166666666666666],vertical,"(890.0, 762.0)",0.6166666666666667,0.475,1,8961.631,3,0.0,same
0,366,invalid_adjacent_other_bar,"[(1165, 805)]",[],[1],[0.5333333333333333],vertical,"(890.0, 262.0)",0.8333333333333334,0.489,1,8967.321,3,0.0,other
0,367,valid,"[(1164, 809)]",[],[1],[0.5833333333333334],vertical,"(390.0, 762.0)",1.4,0.539,1,8972.655,3,0.0,same
0,368,valid,"[(1136, 802)]",[],[1],[0.5333333333333333],horizontal,"(890.0, 762.0)",1.2666666666666666,0.491,1,8979.272,3,0.0,same
0,369,valid,"[(1136, 782)]",[],[1],[0.85],vertical,"(390.0, 762.0)",0.9,nan,0,8985.539,0,0.0,same
0,370,valid,"[(1121, 804)]",[],[1],[0.85],vertical,"(390.0, 762.0)",0.7333333333333333,nan,0,8990.023,0,0.0,same
0,371,valid,"[(1121, 793)]",[],[1],[0.5333333333333333],horizontal,"(890.0, 262.0)",0.48333333333333334,0.497,1,8994.532,1,0.0,same
0,372,catch,"[(1141, 841)]",[],[1],[],vertical,"(390.0, 262.0)",1.7,nan,1,8999.056,1,0.0,same
0,373,invalid_adjacent_other_bar,"[(1062, 899)]",[],[1],[0.6],vertical,"(890.0, 262.0)",1.3,0.556,1,9004.256,1,0.0,other
0,374,valid,"[(1141, 802)]",[],[1],[0.5],horizontal,"(890.0, 762.0)",0.5666666666666667,0.461,1,9010.051,2,0.0,same
0,375,catch,"[(1168, 797)]",[],[1],[],horizontal,"(890.0, 262.0)",1.7,nan,1,9015.357,2,0.0,same
0,376,valid,"[(1146, 797)]",[],[1],[0.5833333333333334],horizontal,"(890.0, 262.0)",1.0833333333333333,0.538,1,9020.972,2,0.0,same
0,377,catch,"[(1130, 827)]",[],[1],[],vertical,"(390.0, 762.0)",1.7,nan,1,9026.872,3,0.0,same
0,378,invalid_same_bar,"[(1167, 812)]",[],[1],[0.6333333333333333],vertical,"(390.0, 762.0)",1.1333333333333333,0.593,1,9033.44,3,0.0,same
0,379,catch,"[(1161, 795)]",[],[1],[],horizontal,"(390.0, 762.0)",1.7,nan,1,9039.522,3,0.0,same
0,380,valid,"[(1162, 799)]",[],[1],[0.7333333333333333],vertical,"(890.0, 262.0)",0.6166666666666667,0.693,1,9045.4,3,0.0,same
0,381,valid,"[(1161, 805)]",[],[1],[0.85],vertical,"(890.0, 762.0)",1.15,nan,0,9051.485,0,0.0,same
0,382,valid,"[(1119, 788)]",[],[1],[0.85],vertical,"(390.0, 262.0)",0.43333333333333335,nan,0,9056.555,0,0.0,same
0,383,valid,"[(1139, 817)]",[],[1],[0.5666666666666667],horizontal,"(390.0, 262.0)",0.7666666666666666,0.527,1,9060.814,1,0.0,same
0,384,catch,"[(1153, 831)]",[],[1],[],vertical,"(390.0, 262.0)",1.7,nan,1,9066.255,1,0.0,same
0,385,invalid_same_bar,"[(1136, 803)]",[],[1],[0.5666666666666667],vertical,"(890.0, 762.0)",0.75,0.526,1,9071.397,1,0.0,same
0,386,valid,"[(1164, 802)]",[],[1],[],horizontal,"(890.0, 762.0)",,"('fix', 0.263)",0,9076.482,0,0.0,same
0,387,valid,"[(1147, 831)]",[],[1],[0.55],vertical,"(890.0, 262.0)",0.8333333333333334,0.504,1,9078.172,1,0.0,same
0,388,catch,"[(1165, 802)]",[],[1],[],horizontal,"(890.0, 262.0)",1.7,nan,1,9083.218,1,0.0,same
0,389,valid,"[(1162, 788)]",[],[1],[0.85],vertical,"(390.0, 762.0)",0.4,nan,0,9088.25,0,0.0,same
0,390,valid,"[(1136, 803)]",[],[1],[0.5333333333333333],vertical,"(890.0, 762.0)",1.05,0.491,1,9092.839,1,0.0,same
0,391,valid,"[(1141, 816)]",[],[1],[0.4666666666666667],vertical,"(890.0, 262.0)",0.9166666666666666,0.425,1,9098.139,1,0.0,same
0,392,catch,"[(1139, 822)]",[],[1],[],horizontal,"(890.0, 762.0)",1.7,nan,1,9103.011,1,0.0,same
0,393,catch,"[(1128, 801)]",[],[1],[],vertical,"(390.0, 262.0)",1.7,nan,1,9108.206,2,0.0,same
0,394,valid,"[(1140, 783)]",[],[1],[0.5166666666666666],vertical,"(890.0, 262.0)",0.43333333333333335,0.483,1,9113.756,2,0.0,same
0,395,valid,"[(1131, 814)]",[],[1],[0.55],horizontal,"(390.0, 262.0)",0.36666666666666664,0.512,1,9118.71,2,0.0,same
0,396,valid,"[(1165, 815)]",[],[1],[0.5833333333333334],vertical,"(890.0, 262.0)",1.4,0.545,1,9123.524,3,0.0,same
0,397,valid,"[(1160, 824)]",[],[1],[0.6833333333333333],horizontal,"(890.0, 762.0)",1.35,0.638,1,9129.832,3,0.0,same
0,398,valid,"[(1136, 800)]",[],[1],[0.5],vertical,"(890.0, 762.0)",0.9,0.457,1,9136.139,3,0.0,same
0,399,valid,"[(1160, 789)]",[],[1],[0.65],horizontal,"(390.0, 262.0)",0.5,0.609,1,9142.123,3,0.0,same
0,400,invalid_adjacent_other_bar,"[(1162, 803)]",[],[1],[0.5666666666666667],horizontal,"(890.0, 762.0)",1.1833333333333333,0.533,1,9147.991,3,0.0,other
0,401,catch,"[(1136, 799)]",[],[1],[],vertical,"(890.0, 762.0)",1.7,nan,1,9154.481,3,0.0,same
0,402,valid,"[(1164, 798)]",[],[1],[0.6833333333333333],horizontal,"(890.0, 762.0)",0.6833333333333333,0.651,1,9160.964,3,0.0,same
0,403,valid,"[(1136, 795)]",[],[1],[0.55],vertical,"(890.0, 262.0)",1.2666666666666666,0.518,1,9166.856,3,0.0,same
0,404,catch,"[(1160, 797)]",[],[1],[],vertical,"(890.0, 262.0)",1.7,nan,1,9173.243,3,0.0,same
0,405,valid,"[(1165, 787)]",[],[1],[0.6666666666666666],horizontal,"(390.0, 262.0)",0.7,0.62,1,9179.356,3,0.0,same
0,406,valid,"[(1131, 808)]",[],[1],[0.85],vertical,"(390.0, 762.0)",1.0333333333333332,nan,0,9185.007,0,0.0,same
0,407,valid,"[(1086, 832)]",[],[1],[0.5666666666666667],vertical,"(390.0, 762.0)",1.2666666666666666,0.521,1,9190.262,1,0.0,same
0,408,valid,"[(1164, 808)]",[],[1],[0.8],horizontal,"(390.0, 262.0)",1.3,0.754,1,9563.584,1,0.0,same
0,409,catch,"[(1120, 803)]",[],[1],[],horizontal,"(390.0, 762.0)",1.7,nan,1,9569.011,1,0.0,same
0,410,valid,"[(1115, 771)]",[],[1],[0.6833333333333333],horizontal,"(890.0, 762.0)",0.8,0.64,1,9574.262,2,0.0,same
0,411,catch,"[(1121, 797)]",[],[1],[],horizontal,"(390.0, 262.0)",1.7,nan,1,9579.491,2,0.0,same
0,412,valid,"[(1136, 777)]",[],[1],[0.5166666666666666],vertical,"(890.0, 262.0)",0.7666666666666666,0.475,1,9585.195,2,0.0,same
0,413,valid,"[(1141, 813)]",[],[1],[0.4666666666666667],vertical,"(390.0, 262.0)",0.9333333333333333,0.423,1,9590.176,3,0.0,same
0,414,catch,"[(1134, 814)]",[],[1],[],horizontal,"(390.0, 262.0)",1.7,nan,1,9596.041,3,0.0,same
0,415,valid,"[(1155, 795)]",[],[1],[0.5],vertical,"(890.0, 262.0)",1.0166666666666666,0.461,1,9602.084,3,0.0,same
0,416,catch,"[(1136, 784)]",[],[1],[],horizontal,"(890.0, 762.0)",1.7,nan,1,9607.598,3,0.0,same
0,417,valid,"[(1136, 840)]",[],[1],[0.85],vertical,"(390.0, 762.0)",0.35,nan,0,9613.692,0,0.0,same
0,418,catch,"[(1133, 816)]",[],[1],[],vertical,"(890.0, 262.0)",1.7,nan,1,9618.204,1,0.0,same
0,419,valid,"[(1140, 800)]",[],[1],[0.5333333333333333],horizontal,"(890.0, 262.0)",0.9833333333333333,0.489,1,9625.475,1,0.0,same
0,420,valid,"[(1162, 787)]",[],[1],[0.7833333333333333],vertical,"(890.0, 762.0)",0.6,0.749,1,9631.057,1,0.0,same
0,421,catch,"[(1165, 813)]",[],[1],[],vertical,"(390.0, 262.0)",1.7,nan,1,9635.825,2,0.0,same
0,422,invalid_adjacent_other_bar,"[(1134, 788)]",[],[1],[0.5666666666666667],horizontal,"(390.0, 762.0)",0.9333333333333333,0.524,1,9641.502,2,0.0,other
0,423,valid,"[(1127, 806)]",[],[1],[0.5166666666666666],vertical,"(390.0, 762.0)",0.35,0.473,1,9646.909,2,0.0,same
0,424,catch,"[(1121, 790)]",[],[1],[],vertical,"(890.0, 262.0)",1.7,nan,1,9651.872,3,0.0,same
0,425,invalid_adjacent_other_bar,"[(1162, 783)]",[],[1],[0.5166666666666666],horizontal,"(390.0, 762.0)",1.1,0.482,1,9658.232,3,0.0,other
0,426,catch,"[(1134, 810)]",[],[1],[],horizontal,"(390.0, 262.0)",1.7,nan,1,9664.041,3,0.0,same
0,427,invalid_same_bar,"[(1161, 786)]",[],[1],[0.65],horizontal,"(390.0, 262.0)",1.0333333333333332,0.606,1,9670.731,3,0.0,same
0,428,catch,"[(1165, 822)]",[],[1],[],vertical,"(390.0, 262.0)",1.7,nan,1,9676.774,3,0.0,same
0,429,valid,"[(1160, 803)]",[],[1],[0.6666666666666666],vertical,"(390.0, 762.0)",1.15,0.623,1,9682.775,3,0.0,same
0,430,valid,"[(1141, 803)]",[],[1],[0.6666666666666666],horizontal,"(890.0, 262.0)",0.9,0.623,1,9689.12,3,0.0,same
0,431,valid,"[(1163, 766)]",[],[1],[0.5],vertical,"(890.0, 762.0)",1.5166666666666666,0.458,1,9694.591,3,0.0,same
0,432,invalid_same_bar,"[(1167, 803)]",[],[1],[0.7666666666666666],horizontal,"(390.0, 262.0)",1.4666666666666666,0.721,1,9700.944,3,0.0,same
0,433,catch,"[(1128, 820)]",[],[1],[],vertical,"(890.0, 762.0)",1.7,nan,1,9707.337,3,0.0,same
0,434,invalid_same_bar,"[(1160, 796)]",[],[1],[0.45],vertical,"(390.0, 262.0)",1.3833333333333333,0.406,1,9713.852,3,0.0,same
0,435,valid,"[(1164, 816)]",[],[1],[0.5333333333333333],horizontal,"(390.0, 762.0)",1.1,0.492,1,9719.951,3,0.0,same
0,436,valid,"[(1163, 778)]",[],[1],[0.55],vertical,"(890.0, 262.0)",0.7166666666666667,0.511,1,9725.591,3,0.0,same
0,437,catch,"[(1167, 801)]",[],[1],[],vertical,"(890.0, 262.0)",1.7,nan,1,9731.523,3,0.0,same
0,438,valid,"[(1165, 780)]",[],[1],[0.48333333333333334],vertical,"(890.0, 762.0)",1.4666666666666666,0.445,1,9737.225,3,0.0,same
0,439,valid,"[(1130, 806)]",[],[1],[0.5333333333333333],vertical,"(390.0, 762.0)",1.0666666666666667,0.494,1,9743.074,3,0.0,same
0,440,valid,"[(1150, 794)]",[],[1],[0.6],vertical,"(390.0, 762.0)",0.9,0.559,1,9748.787,3,0.0,same
0,441,catch,"[(1167, 792)]",[],[1],[],vertical,"(390.0, 262.0)",1.7,nan,1,9754.586,3,0.0,same
0,442,valid,"[(1165, 806)]",[],[1],[0.5166666666666666],vertical,"(890.0, 762.0)",1.0666666666666667,0.479,1,9760.675,3,0.0,same
0,443,catch,"[(1138, 818)]",[],[1],[],horizontal,"(390.0, 262.0)",1.7,nan,1,9766.575,3,0.0,same
0,444,invalid_adjacent_other_bar,"[(1136, 800)]",[],[1],[0.5],horizontal,"(390.0, 762.0)",0.9333333333333333,0.458,1,9772.425,3,0.0,other
0,445,valid,"[(1170, 804)]",[],[1],[0.5],vertical,"(390.0, 262.0)",1.3833333333333333,0.466,1,9777.958,3,0.0,same
0,446,invalid_adjacent_other_bar,"[(1142, 814)]",[],[1],[0.55],horizontal,"(390.0, 762.0)",0.8666666666666667,0.505,1,9784.225,3,0.0,other
0,447,catch,"[(1170, 811)]",[],[1],[],horizontal,"(390.0, 762.0)",1.7,nan,1,9790.258,3,0.0,same
0,448,valid,"[(1165, 795)]",[],[1],[0.5333333333333333],vertical,"(390.0, 262.0)",1.0666666666666667,0.492,1,9796.359,3,0.0,same
0,449,valid,"[(1132, 838)]",[],[1],[0.5333333333333333],vertical,"(390.0, 262.0)",1.2666666666666666,0.49,1,9802.404,3,0.0,same
0,450,valid,"[(1142, 782)]",[],[1],[0.5166666666666666],horizontal,"(890.0, 262.0)",0.3833333333333333,0.474,1,9808.778,3,0.0,same
0,451,invalid_same_bar,"[(1165, 787)]",[],[1],[0.6],horizontal,"(390.0, 762.0)",1.1,0.555,1,9813.926,3,0.0,same
0,452,valid,"[(1167, 798)]",[],[1],[0.5],horizontal,"(390.0, 262.0)",0.75,0.464,1,9820.225,3,0.0,same
0,453,catch,"[(1144, 795)]",[],[1],[],horizontal,"(890.0, 262.0)",1.7,nan,1,9825.559,3,0.0,same
0,454,valid,"[(1171, 823)]",[],[1],[0.85],vertical,"(390.0, 762.0)",0.35,nan,0,9831.391,0,0.0,same
0,455,valid,"[(1137, 801)]",[],[1],[0.5666666666666667],horizontal,"(390.0, 762.0)",1.1,0.523,1,9835.426,1,0.0,same
0,456,valid,"[(1165, 823)]",[],[1],[0.55],horizontal,"(890.0, 762.0)",1.4833333333333334,0.51,1,9840.99,1,0.0,same
0,457,valid,"[(1170, 798)]",[],[1],[0.5166666666666666],horizontal,"(390.0, 762.0)",0.5833333333333334,0.474,1,9846.825,1,0.0,same
0,458,valid,"[(1158, 794)]",[],[1],[0.6],vertical,"(390.0, 262.0)",1.4166666666666667,0.558,1,9851.423,2,0.0,same
0,459,valid,"[(1165, 789)]",[],[1],[0.5166666666666666],horizontal,"(390.0, 262.0)",0.6666666666666666,0.48,1,9857.591,2,0.0,same
0,460,valid,"[(1165, 816)]",[],[1],[0.85],horizontal,"(890.0, 762.0)",1.1333333333333333,nan,0,9862.385,0,0.0,same
0,461,catch,"[(1101, 811)]",[],[1],[],horizontal,"(890.0, 262.0)",1.7,nan,1,9867.426,1,0.0,same
0,462,invalid_same_bar,"[(1165, 803)]",[],[1],[0.55],horizontal,"(390.0, 262.0)",0.5833333333333334,0.506,1,9872.975,1,0.0,same
0,463,valid,"[(1131, 845)]",[],[1],[0.65],horizontal,"(390.0, 262.0)",0.8666666666666667,0.601,1,9877.559,1,0.0,same
0,464,valid,"[(1170, 773)]",[],[1],[0.6833333333333333],horizontal,"(390.0, 262.0)",0.9833333333333333,0.638,1,9883.192,2,0.0,same
0,465,catch,"[(1136, 805)]",[],[1],[],horizontal,"(390.0, 762.0)",1.7,nan,1,9888.659,2,0.0,same
0,466,valid,"[(1165, 773)]",[],[1],[0.65],horizontal,"(390.0, 262.0)",0.9,0.605,1,9894.059,2,0.0,same
0,467,catch,"[(1162, 799)]",[],[1],[],horizontal,"(390.0, 262.0)",1.7,nan,1,9899.29,3,0.0,same
0,468,valid,"[(1165, 814)]",[],[1],[0.6833333333333333],vertical,"(890.0, 262.0)",1.1333333333333333,0.656,1,9905.536,3,0.0,same
0,469,valid,"[(1087, 839)]",[],[1],[0.5],vertical,"(890.0, 262.0)",1.4,0.462,1,9912.006,3,0.0,same
0,470,valid,"[(1160, 799)]",[],[1],[0.6666666666666666],horizontal,"(390.0, 762.0)",1.2666666666666666,0.639,1,9918.593,3,0.0,same
0,471,catch,"[(1165, 793)]",[],[1],[],vertical,"(890.0, 262.0)",1.7,nan,1,9924.724,3,0.0,same
0,472,catch,"[(1126, 860)]",[],[1],[],vertical,"(890.0, 262.0)",1.7,nan,1,9930.593,3,0.0,same
0,473,valid,"[(1165, 823)]",[],[1],[0.5333333333333333],horizontal,"(390.0, 762.0)",1.4833333333333334,0.502,1,9936.692,3,0.0,same
0,474,valid,"[(1165, 789)]",[],[1],[0.43333333333333335],vertical,"(890.0, 262.0)",1.2666666666666666,0.404,1,9942.855,3,0.0,same
0,475,valid,"[(1165, 778)]",[],[1],[0.5666666666666667],horizontal,"(890.0, 762.0)",1.2666666666666666,0.535,1,9949.415,3,0.0,same
0,476,catch,"[(1179, 787)]",[],[1],[],vertical,"(890.0, 762.0)",1.7,nan,1,9955.728,3,0.0,same
0,477,valid,"[(1151, 794)]",[],[1],[0.45],vertical,"(390.0, 262.0)",0.43333333333333335,0.419,1,9962.116,3,0.0,same
0,478,valid,"[(1156, 770)]",[],[1],[0.85],vertical,"(390.0, 262.0)",0.8,nan,0,9967.272,0,0.0,same
0,479,valid,"[(1131, 813)]",[],[1],[0.5833333333333334],horizontal,"(890.0, 262.0)",0.9,0.54,1,9971.661,1,0.0,same
0,480,catch,"[(1131, 781)]",[],[1],[],vertical,"(390.0, 762.0)",1.7,nan,1,9976.809,1,0.0,same
0,481,catch,"[(1164, 806)]",[],[1],[],vertical,"(890.0, 262.0)",1.7,nan,1,9982.258,1,0.0,same
0,482,valid,"[(1165, 807)]",[],[1],[0.5166666666666666],vertical,"(890.0, 762.0)",0.8166666666666667,0.474,1,9987.545,2,0.0,same
0,483,catch,"[(1161, 786)]",[],[1],[],vertical,"(390.0, 262.0)",1.7,nan,1,9992.625,2,0.0,same
0,484,catch,"[(1165, 799)]",[],[1],[],vertical,"(390.0, 262.0)",1.7,nan,1,9998.507,2,0.0,same
0,485,valid,"[(1133, 798)]",[],[1],[0.5166666666666666],vertical,"(890.0, 762.0)",0.8333333333333334,0.478,1,10004.388,3,0.0,same
0,486,catch,"[(1165, 796)]",[],[1],[],horizontal,"(390.0, 262.0)",1.7,nan,1,10010.286,3,0.0,same
0,487,valid,"[(1131, 812)]",[],[1],[0.85],horizontal,"(390.0, 762.0)",0.6166666666666667,nan,0,10015.975,0,0.0,same
0,488,invalid_adjacent_other_bar,"[(1112, 812)]",[],[1],[0.6166666666666667],vertical,"(390.0, 262.0)",1.3833333333333333,0.573,1,10020.741,1,0.0,other
0,489,valid,"[(1165, 802)]",[],[1],[0.7166666666666667],horizontal,"(890.0, 762.0)",0.7833333333333333,0.676,1,10026.573,1,0.0,same
0,490,catch,"[(1165, 786)]",[],[1],[],vertical,"(390.0, 262.0)",,"('cti', 1.412),nan",0,10031.442,0,0.02,same
0,491,valid,"[(1131, 822)]",[],[1],[0.55],horizontal,"(390.0, 762.0)",1.15,0.504,1,10036.138,1,0.02,same
