block,trial,trial_type,taps_start_loc_during_fix,taps_end_loc_during_fix,taps_on_lever_during_fix,taps_on_lever_s_during_fix,bar_orientation,target_xy,cti,rt,acc,time,pulses,fa_rate_recent100,actual_invalid_type
0,1,valid,"[(1135, 808)]",[],[1],[0.4166666666666667],horizontal,"(890.0, 262.0)",1.0166666666666666,0.376,1,0.529,1,0.0,same
0,2,valid,"[(1093, 855)]",[],[1],[0.11666666666666667],horizontal,"(390.0, 262.0)",0.36666666666666664,0.085,0,9.284,0,0.0,same
0,3,catch,"[(1118, 851)]",[],[1],[],horizontal,"(890.0, 262.0)",1.7,nan,1,537.886,1,0.0,same
0,4,valid,"[(1122, 811)]",[],[1],[0.8],horizontal,"(390.0, 262.0)",0.55,0.765,1,1446.597,1,0.0,same
0,5,invalid_adjacent_other_bar,"[(1150, 809)]",[],[1],[0.6166666666666667],vertical,"(890.0, 762.0)",1.5333333333333332,0.57,1,1451.721,1,0.0,other
0,6,invalid_adjacent_other_bar,"[(1132, 786)]",[],[1],[],horizontal,"(390.0, 762.0)",,"('cti', 1.097)",0,1457.655,0,0.0,other
0,7,catch,"[(1122, 802)]",[],[1],[],horizontal,"(890.0, 262.0)",,"('cti', 1.524),nan",0,1461.788,0,0.14285714285714285,same
0,8,invalid_same_bar,"[(1135, 795)]",[],[1],[0.4666666666666667],horizontal,"(890.0, 262.0)",0.75,0.427,1,1466.689,1,0.125,same
0,9,catch,"[(1121, 782)]",[],[1],[],horizontal,"(890.0, 262.0)",1.7,nan,1,1471.371,1,0.1111111111111111,same
0,10,valid,"[(1136, 786)]",[],[1],[0.5666666666666667],vertical,"(390.0, 262.0)",0.6666666666666666,0.524,1,1476.689,1,0.1,same
0,11,catch,"[(1135, 794)]",[],[1],[],horizontal,"(890.0, 762.0)",1.7,nan,1,1481.439,2,0.09090909090909091,same
0,12,valid,"[(1146, 791)]",[],[1],[0.85],vertical,"(890.0, 762.0)",0.4166666666666667,nan,0,1487.155,0,0.08333333333333333,same
0,13,valid,"[(1116, 782)]",[],[1],[0.55],vertical,"(390.0, 262.0)",0.35,0.512,1,1490.789,1,0.07692307692307693,same
0,14,catch,"[(1158, 785)]",[],[1],[],horizontal,"(890.0, 762.0)",1.7,nan,1,1495.254,1,0.07142857142857142,same
0,15,catch,"[(1137, 789)]",[],[1],[],horizontal,"(390.0, 262.0)",1.7,nan,1,1500.471,1,0.06666666666666667,same
0,16,valid,"[(1135, 791)]",[],[1],[0.7166666666666667],vertical,"(390.0, 762.0)",0.75,0.67,1,1505.486,2,0.0625,same
0,17,valid,"[(1133, 774)]",[],[1],[0.6666666666666666],vertical,"(890.0, 762.0)",0.4,0.619,1,1511.555,2,0.058823529411764705,same
0,18,catch,"[(1134, 789)]",[],[1],[],vertical,"(890.0, 762.0)",1.7,nan,1,1516.238,2,0.05555555555555555,same
0,19,catch,"[(1149, 792)]",[],[1],[],horizontal,"(890.0, 262.0)",1.7,nan,1,1522.135,3,0.05263157894736842,same
0,20,valid,"[(1135, 786)]",[],[1],[0.5333333333333333],horizontal,"(890.0, 762.0)",0.8166666666666667,0.489,1,1528.318,3,0.05,same
0,21,catch,"[(1136, 806)]",[],[1],[],vertical,"(890.0, 262.0)",1.7,nan,1,1533.936,3,0.047619047619047616,same
0,22,valid,"[(1142, 789)]",[],[1],[0.5666666666666667],horizontal,"(390.0, 262.0)",0.36666666666666664,0.521,1,1540.171,3,0.045454545454545456,same
0,23,valid,"[(1092, 805)]",[],[1],[],vertical,"(890.0, 762.0)",,"('cti', 0.653)",0,1545.204,0,0.043478260869565216,same
0,24,valid,"[(1116, 806)]",[],[1],[0.6333333333333333],horizontal,"(890.0, 762.0)",0.7666666666666666,0.594,1,1548.839,1,0.041666666666666664,same
0,25,valid,"[(1116, 798)]",[],[1],[0.16666666666666666],horizontal,"(890.0, 262.0)",1.3166666666666667,0.131,0,1554.801,0,0.04,same
0,26,valid,"[(1066, 841)]",[],[1],[0.55],vertical,"(390.0, 262.0)",0.43333333333333335,0.51,1,1559.611,1,0.038461538461538464,same
0,27,valid,"[(1126, 802)]",[],[1],[0.85],horizontal,"(390.0, 262.0)",1.35,nan,0,1564.535,0,0.037037037037037035,same
0,28,valid,"[(1111, 800)]",[],[1],[0.7166666666666667],vertical,"(390.0, 262.0)",0.5833333333333334,0.675,1,1570.802,1,0.03571428571428571,same
0,29,catch,"[(1135, 786)]",[],[1],[],vertical,"(890.0, 262.0)",1.7,nan,1,1581.73,1,0.034482758620689655,same
0,30,valid,"[(1174, 791)]",[],[1],[0.5166666666666666],horizontal,"(890.0, 262.0)",1.5166666666666666,0.468,1,1586.88,1,0.03333333333333333,same
0,31,valid,"[(1161, 792)]",[],[1],[0.48333333333333334],vertical,"(890.0, 262.0)",1.3833333333333333,0.459,1,1592.553,2,0.03225806451612903,same
0,32,valid,"[(1150, 782)]",[],[1],[0.85],horizontal,"(390.0, 262.0)",0.9166666666666666,nan,0,1598.353,0,0.03125,same
0,33,valid,"[(1122, 802)]",[],[1],[0.65],horizontal,"(390.0, 262.0)",1.4833333333333334,0.619,1,1604.172,1,0.030303030303030304,same
0,34,invalid_same_bar,"[(1131, 792)]",[],[1],[0.4666666666666667],vertical,"(890.0, 762.0)",1.3833333333333333,0.435,1,1610.32,1,0.029411764705882353,same
0,35,valid,"[(1137, 782)]",[],[1],[0.48333333333333334],vertical,"(890.0, 762.0)",0.4,0.458,1,1615.601,1,0.02857142857142857,same
0,36,invalid_same_bar,"[(1165, 790)]",[],[1],[0.4666666666666667],vertical,"(890.0, 262.0)",0.7166666666666667,0.429,1,1620.173,2,0.027777777777777776,same
0,37,valid,"[(1156, 777)]",[],[1],[0.5333333333333333],horizontal,"(890.0, 262.0)",1.2666666666666666,0.487,1,1625.288,2,0.02702702702702703,same
0,38,valid,"[(1131, 782)]",[],[1],[0.5],horizontal,"(390.0, 262.0)",0.4,0.456,1,1631.052,2,0.02631578947368421,same
0,39,valid,"[(1162, 774)]",[],[1],[0.85],horizontal,"(390.0, 762.0)",0.35,nan,0,1636.189,0,0.02564102564102564,same
0,40,valid,"[(1137, 802)]",[],[1],[0.4666666666666667],vertical,"(390.0, 762.0)",0.4666666666666667,0.438,1,1640.519,1,0.025,same
0,41,valid,"[(1118, 773)]",[],[1],[0.4666666666666667],vertical,"(890.0, 262.0)",1.25,0.439,1,1645.153,1,0.024390243902439025,same
0,42,catch,"[(1134, 791)]",[],[1],[],horizontal,"(390.0, 762.0)",1.7,nan,1,1650.615,1,0.023809523809523808,same
0,43,valid,"[(1141, 777)]",[],[1],[0.6166666666666667],horizontal,"(890.0, 262.0)",1.1,0.59,1,1655.853,2,0.023255813953488372,same
0,44,valid,"[(1165, 791)]",[],[1],[0.45],horizontal,"(390.0, 762.0)",0.7333333333333333,0.425,1,1661.437,2,0.022727272727272728,same
0,45,valid,"[(1134, 782)]",[],[1],[0.4666666666666667],vertical,"(890.0, 762.0)",1.4166666666666667,0.44,1,1666.341,2,0.022222222222222223,same
0,46,invalid_adjacent_other_bar,"[(1135, 774)]",[],[1],[0.85],horizontal,"(890.0, 762.0)",0.5666666666666667,nan,0,1672.136,0,0.021739130434782608,other
0,47,valid,"[(1140, 769)]",[],[1],[0.5333333333333333],horizontal,"(890.0, 762.0)",1.3,0.498,1,1676.994,1,0.02127659574468085,same
0,48,catch,"[(1138, 778)]",[],[1],[],horizontal,"(890.0, 262.0)",1.7,nan,1,1682.021,1,0.020833333333333332,same
0,49,catch,"[(1137, 773)]",[],[1],[],horizontal,"(390.0, 262.0)",1.7,nan,1,1687.389,1,0.02040816326530612,same
0,50,valid,"[(1165, 801)]",[],[1],[0.5666666666666667],vertical,"(390.0, 762.0)",1.4166666666666667,0.521,1,1692.399,2,0.02,same
0,51,valid,"[(1163, 772)]",[],[1],[0.5],horizontal,"(890.0, 762.0)",1.2,0.464,1,1698.289,2,0.02,same
0,52,valid,"[(1136, 789)]",[],[1],[0.5166666666666666],vertical,"(390.0, 762.0)",1.4166666666666667,0.474,1,1703.539,2,0.02,same
0,53,catch,"[(1136, 777)]",[],[1],[],horizontal,"(390.0, 762.0)",1.7,nan,1,1709.17,3,0.02,same
0,54,catch,"[(1160, 791)]",[],[1],[],horizontal,"(390.0, 262.0)",1.7,nan,1,1715.674,3,0.02,same
0,55,valid,"[(1136, 782)]",[],[1],[0.5166666666666666],vertical,"(390.0, 762.0)",1.0166666666666666,0.475,1,1721.956,3,0.02,same
0,56,catch,"[(1131, 766)]",[],[1],[],vertical,"(390.0, 262.0)",1.7,nan,1,1727.873,3,0.02,same
0,57,valid,"[(1160, 778)]",[],[1],[0.48333333333333334],vertical,"(390.0, 262.0)",1.1833333333333333,0.441,1,1734.172,3,0.0,same
0,58,valid,"[(1158, 777)]",[],[1],[0.6166666666666667],vertical,"(390.0, 762.0)",1.5333333333333332,0.579,1,1740.054,3,0.0,same
0,59,invalid_same_bar,"[(1135, 778)]",[],[1],[0.6],vertical,"(890.0, 762.0)",0.8166666666666667,0.559,1,1746.055,3,0.0,same
0,60,valid,"[(1159, 767)]",[],[1],[0.6166666666666667],horizontal,"(890.0, 262.0)",1.1333333333333333,0.578,1,1751.781,3,0.0,same
0,61,valid,"[(1126, 784)]",[],[1],[],vertical,"(390.0, 262.0)",,"('cti', 1.299)",0,1757.75,0,0.0,same
0,62,catch,"[(1165, 791)]",[],[1],[],horizontal,"(390.0, 762.0)",1.7,nan,1,1762.023,1,0.0,same
0,63,catch,"[(1150, 773)]",[],[1],[],vertical,"(390.0, 762.0)",1.7,nan,1,1766.738,1,0.0,same
0,64,valid,"[(1137, 769)]",[],[1],[0.6833333333333333],vertical,"(890.0, 762.0)",1.4833333333333334,0.642,1,1772.122,1,0.0,same
0,65,valid,"[(1136, 767)]",[],[1],[0.6333333333333333],horizontal,"(390.0, 262.0)",1.1,0.594,1,1777.775,2,0.0,same
0,66,valid,"[(1152, 795)]",[],[1],[0.48333333333333334],vertical,"(390.0, 762.0)",0.6,0.442,1,1783.255,2,0.0,same
0,67,catch,"[(1139, 806)]",[],[1],[],horizontal,"(390.0, 762.0)",1.7,nan,1,1788.273,2,0.0,same
0,68,valid,"[(1126, 774)]",[],[1],[0.4166666666666667],horizontal,"(390.0, 762.0)",1.3166666666666667,0.379,1,1794.122,3,0.0,same
0,69,catch,"[(1156, 776)]",[],[1],[],vertical,"(390.0, 262.0)",1.7,nan,1,1800.223,3,0.0,same
0,70,valid,"[(1149, 782)]",[],[1],[0.85],horizontal,"(890.0, 762.0)",1.1166666666666667,nan,0,1805.924,0,0.0,same
0,71,valid,"[(1148, 806)]",[],[1],[0.85],horizontal,"(890.0, 262.0)",0.8166666666666667,nan,0,1810.551,0,0.0,same
0,72,valid,"[(1120, 792)]",[],[1],[0.48333333333333334],vertical,"(390.0, 262.0)",0.7666666666666666,0.44,1,1814.948,1,0.0,same
0,73,catch,"[(1137, 800)]",[],[1],[],horizontal,"(890.0, 762.0)",1.7,nan,1,1819.564,1,0.0,same
0,74,valid,"[(1136, 765)]",[],[1],[0.5166666666666666],horizontal,"(390.0, 262.0)",0.43333333333333335,0.474,1,1824.94,1,0.0,same
0,75,valid,"[(1141, 785)]",[],[1],[0.85],vertical,"(390.0, 762.0)",0.8666666666666667,nan,0,1829.605,0,0.0,same
0,76,valid,"[(1160, 790)]",[],[1],[0.85],horizontal,"(890.0, 262.0)",0.3833333333333333,nan,0,1834.555,0,0.0,same
0,77,valid,"[(1140, 786)]",[],[1],"[0.85, 0.85]",vertical,"(390.0, 262.0)",1.0833333333333333,"0.801,nan",0,1838.452,0,0.0,same
0,78,valid,"[(1123, 772)]",[],[1],[0.4666666666666667],horizontal,"(890.0, 262.0)",0.4666666666666667,0.427,1,1843.644,1,0.0,same
0,79,catch,"[(1165, 795)]",[],[1],[],vertical,"(390.0, 762.0)",1.7,nan,1,1848.191,1,0.0,same
0,80,valid,"[(1162, 780)]",[],[1],[0.45],horizontal,"(890.0, 262.0)",0.8166666666666667,0.409,1,1853.187,1,0.0,same
0,81,valid,"[(1141, 779)]",[],[1],[0.5333333333333333],vertical,"(390.0, 262.0)",0.9,0.492,1,1858.147,2,0.0,same
0,82,catch,"[(1170, 767)]",[],[1],[],horizontal,"(390.0, 762.0)",1.7,nan,1,1863.706,2,0.0,same
0,83,valid,"[(1135, 772)]",[],[1],[0.5],vertical,"(390.0, 262.0)",1.1666666666666667,0.466,1,1869.289,2,0.0,same
0,84,invalid_same_bar,"[(1141, 807)]",[],[1],[0.48333333333333334],vertical,"(390.0, 262.0)",0.45,0.441,1,1874.615,3,0.0,same
0,85,valid,"[(1141, 782)]",[],[1],[0.6166666666666667],vertical,"(390.0, 762.0)",1.2,0.568,1,1880.357,3,0.0,same
0,86,invalid_adjacent_other_bar,"[(1160, 781)]",[],[1],[0.4666666666666667],horizontal,"(890.0, 262.0)",1.5166666666666666,0.423,1,1886.325,3,0.0,other
0,87,invalid_adjacent_other_bar,"[(1122, 772)]",[],[1],"[0.85, 0.85]",vertical,"(390.0, 762.0)",1.4,"0.801,nan",0,1892.128,0,0.0,other
0,88,invalid_same_bar,"[(1135, 779)]",[],[1],[0.5166666666666666],vertical,"(890.0, 762.0)",1.4833333333333334,0.478,1,1897.842,1,0.0,same
0,89,valid,"[(1136, 772)]",[],[1],[0.5333333333333333],horizontal,"(890.0, 762.0)",0.4666666666666667,0.492,1,1903.191,1,0.0,same
0,90,catch,"[(1134, 782)]",[],[1],[],horizontal,"(890.0, 762.0)",1.7,nan,1,1907.589,1,0.0,same
0,91,catch,"[(1162, 783)]",[],[1],[],horizontal,"(390.0, 262.0)",1.7,nan,1,1912.704,2,0.0,same
0,92,invalid_same_bar,"[(1134, 786)]",[],[1],[0.5833333333333334],horizontal,"(390.0, 762.0)",0.4666666666666667,0.543,1,1918.741,2,0.0,same
0,93,invalid_adjacent_other_bar,"[(1134, 791)]",[],[1],[0.6166666666666667],horizontal,"(890.0, 762.0)",0.75,0.578,1,1923.723,2,0.0,other
0,94,valid,"[(1156, 782)]",[],[1],[0.5833333333333334],horizontal,"(890.0, 762.0)",0.95,0.539,1,1929.6,3,0.0,same
0,95,valid,"[(1135, 776)]",[],[1],[0.7166666666666667],horizontal,"(890.0, 762.0)",0.8166666666666667,0.676,1,1935.327,3,0.0,same
0,96,catch,"[(1137, 778)]",[],[1],[],horizontal,"(390.0, 762.0)",1.7,nan,1,1941.073,3,0.0,same
0,97,valid,"[(1163, 784)]",[],[1],[0.55],vertical,"(390.0, 262.0)",1.45,0.505,1,1947.223,3,0.0,same
0,98,valid,"[(1144, 774)]",[],[1],[0.6833333333333333],vertical,"(890.0, 762.0)",0.95,0.637,1,1953.403,3,0.0,same
0,99,valid,"[(1163, 782)]",[],[1],[0.48333333333333334],horizontal,"(390.0, 262.0)",0.9166666666666666,0.446,1,1959.467,3,0.0,same
0,100,catch,"[(1161, 786)]",[],[1],[],horizontal,"(390.0, 262.0)",1.7,nan,1,1964.954,3,0.0,same
0,101,invalid_adjacent_other_bar,"[(1132, 753), (1102, 768)]",[],"[0, 1]",[0.85],horizontal,"(390.0, 762.0)",0.85,nan,0,1971.068,0,0.0,other
0,102,valid,"[(1143, 781)]",[],[1],[0.5166666666666666],vertical,"(890.0, 762.0)",1.3833333333333333,0.475,1,1977.473,1,0.0,same
0,103,valid,"[(1160, 781)]",[],[1],[0.4666666666666667],vertical,"(890.0, 262.0)",0.35,0.427,1,1982.527,1,0.0,same
0,104,valid,"[(1137, 783)]",[],[1],[0.5166666666666666],horizontal,"(890.0, 762.0)",1.0333333333333332,0.477,1,1986.865,1,0.0,same
0,105,valid,"[(1156, 769)]",[],[1],[0.4666666666666667],vertical,"(890.0, 262.0)",0.8833333333333333,0.433,1,1992.363,2,0.0,same
0,106,valid,"[(1156, 787)]",[],[1],[0.6833333333333333],horizontal,"(390.0, 262.0)",0.85,0.641,1,1997.474,2,0.0,same
0,107,catch,"[(1162, 777)]",[],[1],[],vertical,"(390.0, 262.0)",,"('cti', 1.625),nan",0,2002.997,0,0.02,same
0,108,valid,"[(1160, 785)]",[],[1],[0.4666666666666667],vertical,"(890.0, 262.0)",0.5833333333333334,0.423,1,2007.557,1,0.02,same
0,109,valid,"[(1159, 765)]",[],[1],[0.85],vertical,"(390.0, 262.0)",1.2333333333333334,nan,0,2012.34,0,0.02,same
0,110,valid,"[(1161, 783)]",[],[1],[0.5333333333333333],vertical,"(390.0, 262.0)",0.65,0.496,1,2017.386,1,0.02,same
0,111,valid,"[(1164, 779)]",[],[1],[0.6166666666666667],horizontal,"(390.0, 762.0)",0.5166666666666666,0.58,1,2021.876,1,0.02,same
0,112,catch,"[(1157, 781)]",[],[1],[],vertical,"(390.0, 762.0)",1.7,nan,1,2026.223,1,0.02,same
0,113,valid,"[(1158, 802)]",[],[1],[0.5333333333333333],vertical,"(390.0, 762.0)",0.6666666666666666,0.491,1,2031.81,2,0.02,same
0,114,valid,"[(1160, 785)]",[],[1],[0.5],vertical,"(890.0, 262.0)",0.45,0.456,1,2037.047,2,0.02,same
0,115,valid,"[(1137, 786)]",[],[1],[0.5666666666666667],vertical,"(890.0, 762.0)",0.45,0.523,1,2042.19,2,0.02,same
0,116,valid,"[(1131, 779)]",[],[1],[0.5333333333333333],vertical,"(890.0, 262.0)",0.6166666666666667,0.497,1,2047.133,3,0.02,same
0,117,invalid_same_bar,"[(1168, 795)]",[],[1],[0.48333333333333334],horizontal,"(890.0, 762.0)",0.7166666666666667,0.441,1,2052.445,3,0.02,same
0,118,catch,"[(1163, 790)]",[],[1],[],vertical,"(890.0, 262.0)",1.7,nan,1,2058.205,3,0.02,same
0,119,catch,"[(1147, 793)]",[],[1],[],vertical,"(390.0, 762.0)",1.7,nan,1,2064.324,3,0.02,same
0,120,invalid_same_bar,"[(1161, 794)]",[],[1],[0.5],horizontal,"(390.0, 262.0)",0.6833333333333333,0.464,1,2070.342,3,0.02,same
0,121,valid,"[(1160, 777)]",[],[1],[0.5166666666666666],vertical,"(890.0, 262.0)",0.35,0.474,1,2075.831,3,0.02,same
0,122,valid,"[(1136, 783)]",[],[1],[0.6333333333333333],horizontal,"(890.0, 262.0)",0.43333333333333335,0.587,1,2081.256,3,0.02,same
0,123,invalid_same_bar,"[(1159, 785)]",[],[1],[0.7166666666666667],vertical,"(390.0, 762.0)",1.3833333333333333,0.667,1,2086.461,3,0.02,same
0,124,valid,"[(1156, 774)]",[],[1],[0.5166666666666666],horizontal,"(390.0, 762.0)",1.1333333333333333,0.471,1,2093.034,3,0.02,same
0,125,catch,"[(1167, 776)]",[],[1],[],horizontal,"(390.0, 762.0)",1.7,nan,1,2098.573,3,0.02,same
0,126,valid,"[(1129, 781)]",[],[1],[0.48333333333333334],horizontal,"(390.0, 262.0)",1.3333333333333333,0.437,1,2104.779,3,0.02,same
0,127,valid,"[(1128, 768)]",[],[1],[0.48333333333333334],horizontal,"(890.0, 262.0)",0.3833333333333333,0.44,1,2111.006,3,0.02,same
0,128,valid,"[(1160, 786)]",[],[1],[0.5666666666666667],horizontal,"(890.0, 262.0)",0.8333333333333334,0.528,1,2116.557,3,0.02,same
0,129,valid,"[(1166, 799)]",[],[1],[0.6666666666666666],vertical,"(890.0, 262.0)",1.0,0.618,1,2122.417,3,0.02,same
0,130,valid,"[(1151, 790)]",[],[1],[0.5666666666666667],horizontal,"(390.0, 762.0)",1.2666666666666666,0.523,1,2128.42,3,0.02,same
0,131,valid,"[(1128, 778)]",[],[1],[0.6666666666666666],horizontal,"(890.0, 262.0)",0.4,0.625,1,2134.439,3,0.02,same
0,132,invalid_same_bar,"[(1160, 787)]",[],[1],[0.5166666666666666],vertical,"(890.0, 762.0)",0.7,0.474,1,2139.492,3,0.02,same
0,133,catch,"[(1124, 773)]",[],[1],[],horizontal,"(390.0, 762.0)",1.7,nan,1,2144.806,3,0.02,same
0,134,catch,"[(1132, 793)]",[],[1],[],vertical,"(390.0, 762.0)",1.7,nan,1,2150.803,3,0.02,same
0,135,catch,"[(1160, 773)]",[],[1],[],horizontal,"(390.0, 762.0)",1.7,nan,1,2156.869,3,0.02,same
0,136,valid,"[(1142, 807)]",[],[1],[0.85],horizontal,"(390.0, 262.0)",0.6666666666666666,nan,0,2163.228,0,0.02,same
0,137,valid,"[(1121, 792)]",[],[1],[0.4666666666666667],vertical,"(890.0, 262.0)",1.4,0.423,1,2168.032,1,0.02,same
0,138,valid,"[(1160, 787)]",[],[1],[0.6],horizontal,"(390.0, 262.0)",1.35,0.557,1,2173.54,1,0.02,same
0,139,valid,"[(1180, 782)]",[],[1],[0.6166666666666667],vertical,"(890.0, 262.0)",1.3333333333333333,0.57,1,2178.782,1,0.02,same
0,140,valid,"[(1142, 786)]",[],[1],[0.5166666666666666],vertical,"(890.0, 262.0)",0.4666666666666667,0.471,1,2184.328,2,0.02,same
0,141,valid,"[(1168, 791)]",[],[1],[0.5666666666666667],horizontal,"(390.0, 762.0)",0.6,0.521,1,2189.358,2,0.02,same
0,142,invalid_adjacent_other_bar,"[(1132, 790)]",[],[1],[0.5],vertical,"(390.0, 262.0)",0.4666666666666667,0.462,1,2194.509,2,0.02,other
0,143,catch,"[(1156, 793)]",[],[1],[],vertical,"(390.0, 762.0)",1.7,nan,1,2199.431,3,0.02,same
0,144,invalid_adjacent_other_bar,"[(1155, 786)]",[],[1],[0.55],horizontal,"(390.0, 762.0)",0.9833333333333333,0.507,1,2205.94,3,0.02,other
0,145,catch,"[(1165, 790)]",[],[1],[],horizontal,"(390.0, 262.0)",1.7,nan,1,2211.976,3,0.02,same
0,146,valid,"[(1159, 791)]",[],[1],[0.6666666666666666],vertical,"(890.0, 262.0)",1.2,0.627,1,2218.074,3,0.02,same
0,147,valid,"[(1149, 788)]",[],[1],[0.55],vertical,"(890.0, 762.0)",0.5166666666666666,0.507,1,2224.252,3,0.02,same
0,148,invalid_adjacent_other_bar,"[(1124, 801)]",[],[1],[0.5],horizontal,"(390.0, 762.0)",0.9833333333333333,0.457,1,2229.59,3,0.02,other
0,149,valid,"[(1131, 784)]",[],[1],[0.6666666666666666],horizontal,"(890.0, 262.0)",0.9333333333333333,0.615,1,2235.433,3,0.02,same
0,150,valid,"[(1159, 792)]",[],[1],[0.5333333333333333],vertical,"(390.0, 262.0)",1.2166666666666666,0.489,1,2241.557,3,0.02,same
0,151,invalid_adjacent_other_bar,"[(1129, 766)]",[],[1],[0.5166666666666666],vertical,"(390.0, 762.0)",0.6,0.476,1,2247.139,3,0.02,other
0,152,catch,"[(1153, 793)]",[],[1],[],horizontal,"(390.0, 762.0)",1.7,nan,1,2252.807,3,0.02,same
0,153,catch,"[(1165, 783)]",[],[1],[],vertical,"(890.0, 262.0)",1.7,nan,1,2258.54,3,0.02,same
0,154,invalid_adjacent_other_bar,"[(1132, 785)]",[],[1],[0.5],vertical,"(890.0, 762.0)",0.9833333333333333,0.457,1,2264.403,3,0.02,other
0,155,catch,"[(1156, 782)]",[],[1],[],vertical,"(890.0, 762.0)",1.7,nan,1,2270.257,3,0.02,same
0,156,catch,"[(1131, 791)]",[],[1],[],vertical,"(390.0, 262.0)",1.7,nan,1,2276.308,3,0.02,same
0,157,valid,"[(1166, 787)]",[],[1],[0.5833333333333334],horizontal,"(890.0, 762.0)",0.5,0.539,1,2282.525,3,0.0,same
0,158,valid,"[(1161, 781)]",[],[1],[0.5166666666666666],vertical,"(390.0, 262.0)",0.35,0.482,1,2287.974,3,0.0,same
0,159,invalid_adjacent_other_bar,"[(1165, 798)]",[],[1],[0.85],horizontal,"(390.0, 762.0)",0.9833333333333333,nan,0,2293.216,0,0.0,other
0,160,valid,"[(1081, 800)]",[],[1],[0.6166666666666667],vertical,"(390.0, 762.0)",0.9,0.572,1,2298.017,1,0.0,same
0,161,valid,"[(1159, 792)]",[],[1],[0.48333333333333334],vertical,"(890.0, 262.0)",0.36666666666666664,0.446,1,2306.392,1,0.0,same
0,162,valid,"[(1153, 799)]",[],[1],[0.48333333333333334],vertical,"(890.0, 262.0)",1.1166666666666667,0.449,1,2310.497,1,0.0,same
0,163,valid,"[(1135, 792)]",[],[1],[0.2],vertical,"(390.0, 762.0)",1.1833333333333333,0.17,0,2315.718,0,0.0,same
0,164,valid,"[(1128, 791)]",[],[1],[0.5],horizontal,"(390.0, 762.0)",1.4333333333333333,0.459,1,2320.244,1,0.0,same
0,165,valid,"[(1155, 776)]",[],[1],[0.5166666666666666],vertical,"(390.0, 762.0)",0.6166666666666667,0.477,1,2325.375,1,0.0,same
0,166,valid,"[(1128, 791)]",[],[1],[0.5333333333333333],horizontal,"(890.0, 262.0)",0.35,0.49,1,2329.692,1,0.0,same
0,167,invalid_adjacent_other_bar,"[(1128, 783)]",[],[1],[0.65],horizontal,"(390.0, 262.0)",0.8333333333333334,0.612,1,2334.307,2,0.0,other
0,168,catch,"[(1128, 792)]",[],[1],[],vertical,"(890.0, 262.0)",1.7,nan,1,2340.226,2,0.0,same
0,169,catch,"[(1143, 778)]",[],[1],[],vertical,"(390.0, 762.0)",1.7,nan,1,2346.092,2,0.0,same
0,170,valid,"[(1156, 781)]",[],[1],[0.6],horizontal,"(890.0, 762.0)",0.36666666666666664,0.561,1,2351.758,3,0.0,same
0,171,catch,"[(1165, 786)]",[],[1],[],vertical,"(390.0, 762.0)",1.7,nan,1,2357.359,3,0.0,same
0,172,valid,"[(1176, 784)]",[],[1],[0.5166666666666666],vertical,"(390.0, 762.0)",1.1166666666666667,0.483,1,2363.419,3,0.0,same
0,173,invalid_adjacent_other_bar,"[(1156, 811)]",[],[1],[0.5333333333333333],vertical,"(890.0, 262.0)",1.4166666666666667,0.494,1,2368.841,3,0.0,other
0,174,valid,"[(1136, 784)]",[],[1],[0.5666666666666667],horizontal,"(390.0, 762.0)",1.15,0.524,1,2375.308,3,0.0,same
0,175,valid,"[(1135, 784)]",[],[1],[0.85],horizontal,"(390.0, 762.0)",0.48333333333333334,nan,0,2381.457,0,0.0,same
0,176,valid,"[(1086, 794)]",[],[1],[0.85],vertical,"(390.0, 762.0)",0.7,nan,0,2385.925,0,0.0,same
0,177,valid,"[(1098, 787)]",[],[1],[0.5],vertical,"(390.0, 262.0)",1.05,0.458,1,2390.375,1,0.0,same
0,178,valid,"[(1158, 786)]",[],[1],[0.4666666666666667],horizontal,"(390.0, 262.0)",1.4166666666666667,0.421,1,2395.125,1,0.0,same
0,179,catch,"[(1131, 781)]",[],[1],[],vertical,"(890.0, 762.0)",1.7,nan,1,2400.458,1,0.0,same
0,180,catch,"[(1132, 779)]",[],[1],[],vertical,"(890.0, 762.0)",1.7,nan,1,2405.442,2,0.0,same
0,181,valid,"[(1157, 786)]",[],[1],[0.55],vertical,"(890.0, 262.0)",1.4833333333333334,0.513,1,2411.558,2,0.0,same
0,182,valid,"[(1165, 756)]",[],[1],[0.85],horizontal,"(890.0, 762.0)",0.8833333333333333,nan,0,2417.542,0,0.0,same
0,183,catch,"[(1116, 789)]",[],[1],[],horizontal,"(390.0, 762.0)",1.7,nan,1,2422.425,1,0.0,same
0,184,valid,"[(1153, 764)]",[],[1],[0.5],vertical,"(890.0, 262.0)",1.2333333333333334,0.463,1,2427.441,1,0.0,same
0,185,valid,"[(1131, 781)]",[],[1],[0.4666666666666667],vertical,"(890.0, 762.0)",1.3666666666666667,0.428,1,2432.441,1,0.0,same
0,186,valid,"[(1136, 781)]",[],[1],[0.5666666666666667],horizontal,"(390.0, 262.0)",1.15,0.535,1,2437.409,2,0.0,same
0,187,catch,"[(1126, 783)]",[],[1],[],horizontal,"(390.0, 762.0)",1.7,nan,1,2442.873,2,0.0,same
0,188,catch,"[(1131, 791)]",[],[1],[],horizontal,"(890.0, 762.0)",1.7,nan,1,2448.663,2,0.0,same
0,189,invalid_same_bar,"[(1139, 796)]",[],[1],[0.4166666666666667],horizontal,"(890.0, 762.0)",1.4,0.386,1,2454.828,3,0.0,same
0,190,valid,"[(1146, 786)]",[],[1],[0.43333333333333335],vertical,"(890.0, 262.0)",1.35,0.395,1,2460.959,3,0.0,same
0,191,valid,"[(1141, 786)]",[],[1],[0.5],horizontal,"(890.0, 762.0)",0.5333333333333333,0.46,1,2467.143,3,0.0,same
0,192,valid,"[(1138, 767)]",[],[1],[0.5],vertical,"(890.0, 262.0)",0.55,0.463,1,2472.907,3,0.0,same
0,193,valid,"[(1135, 801)]",[],[1],[0.6166666666666667],vertical,"(890.0, 262.0)",0.9833333333333333,0.577,1,2478.087,3,0.0,same
0,194,valid,"[(1133, 762)]",[],[1],[0.5166666666666666],horizontal,"(390.0, 762.0)",1.15,0.474,1,2483.965,3,0.0,same
0,195,invalid_same_bar,"[(1138, 777)]",[],[1],[0.85],vertical,"(390.0, 262.0)",0.8,nan,0,2490.074,0,0.0,same
0,196,catch,"[(1121, 791)]",[],[1],[],vertical,"(390.0, 262.0)",,"('cti', 1.629),nan",0,2494.811,0,0.02,same
0,197,valid,"[(1035, 791)]",[],[1],[0.6333333333333333],vertical,"(390.0, 262.0)",1.5333333333333332,0.592,1,2499.884,1,0.02,same
0,198,valid,"[(1161, 792)]",[],[1],[0.55],vertical,"(890.0, 762.0)",0.48333333333333334,0.507,1,2505.834,1,0.02,same
0,199,valid,"[(1141, 782)]",[],[1],[0.5],vertical,"(890.0, 262.0)",0.7333333333333333,0.458,1,2510.091,1,0.02,same
0,200,valid,"[(1129, 770)]",[],[1],[0.48333333333333334],vertical,"(890.0, 262.0)",1.15,0.437,1,2514.508,2,0.02,same
0,201,invalid_same_bar,"[(1126, 795)]",[],[1],[0.3833333333333333],vertical,"(890.0, 262.0)",1.45,0.348,1,2519.96,2,0.02,same
0,202,valid,"[(1129, 789)]",[],[1],[0.6333333333333333],vertical,"(390.0, 262.0)",1.0833333333333333,0.588,1,2525.369,2,0.02,same
0,203,valid,"[(1167, 794)]",[],[1],[0.5833333333333334],vertical,"(890.0, 762.0)",0.45,0.54,1,2530.775,3,0.02,same
0,204,valid,"[(1128, 782)]",[],[1],[0.5333333333333333],horizontal,"(390.0, 762.0)",1.3833333333333333,0.493,1,2535.963,3,0.02,same
0,205,valid,"[(1126, 791)]",[],[1],[0.5166666666666666],horizontal,"(390.0, 262.0)",1.2333333333333334,0.477,1,2542.042,3,0.02,same
0,206,valid,"[(1112, 801)]",[],[1],[0.6166666666666667],horizontal,"(890.0, 262.0)",0.6,0.573,1,2547.608,3,0.02,same
0,207,valid,"[(1125, 815)]",[],[1],[0.55],horizontal,"(390.0, 262.0)",0.9666666666666667,0.51,1,2553.059,3,0.02,same
0,208,valid,"[(1131, 796)]",[],[1],[0.5666666666666667],horizontal,"(390.0, 762.0)",1.4333333333333333,0.523,1,2559.885,3,0.02,same
0,209,valid,"[(1136, 792)]",[],[1],[0.55],horizontal,"(390.0, 262.0)",1.0666666666666667,0.508,1,2566.492,3,0.02,same
0,210,catch,"[(1155, 776)]",[],[1],[0.03333333333333333],horizontal,"(890.0, 762.0)",1.7,"0.02,nan",0,2572.783,0,0.04,same
0,211,invalid_adjacent_other_bar,"[(1117, 796)]",[],[1],[0.5333333333333333],vertical,"(890.0, 762.0)",0.6666666666666666,0.496,1,2577.708,1,0.04,other
0,212,invalid_adjacent_other_bar,"[(1170, 801)]",[],[1],[0.55],vertical,"(390.0, 262.0)",1.0,0.504,1,2582.032,1,0.04,other
0,213,catch,"[(1116, 801)]",[],[1],[],horizontal,"(890.0, 762.0)",1.7,nan,1,2587.275,1,0.04,same
0,214,valid,"[(1155, 806)]",[],[1],[0.6666666666666666],horizontal,"(390.0, 262.0)",1.2666666666666666,0.621,1,2592.842,2,0.04,same
0,215,valid,"[(1165, 794)]",[],[1],[0.5166666666666666],horizontal,"(890.0, 762.0)",1.0166666666666666,0.482,1,2598.375,2,0.04,same
0,216,valid,"[(1132, 798)]",[],[1],[0.6166666666666667],vertical,"(390.0, 762.0)",1.2333333333333334,0.573,1,2603.758,2,0.04,same
0,217,catch,"[(1116, 817)]",[],[1],[],horizontal,"(890.0, 762.0)",1.7,nan,1,2609.609,3,0.04,same
0,218,invalid_same_bar,"[(1136, 790)]",[],[1],[0.7333333333333333],horizontal,"(390.0, 262.0)",1.1833333333333333,0.69,1,2616.008,3,0.04,same
0,219,catch,"[(1131, 794)]",[],[1],[],vertical,"(390.0, 262.0)",1.7,nan,1,2622.492,3,0.04,same
0,220,valid,"[(1129, 789)]",[],[1],[0.5],vertical,"(390.0, 762.0)",0.9666666666666667,0.46,1,2628.703,3,0.04,same
0,221,invalid_adjacent_other_bar,"[(1131, 803)]",[],[1],[0.85],horizontal,"(390.0, 762.0)",0.5,nan,0,2634.454,0,0.04,other
0,222,catch,"[(1116, 797)]",[],[1],[],horizontal,"(890.0, 262.0)",1.7,nan,1,2638.607,1,0.04,same
0,223,valid,"[(1136, 791)]",[],[1],[0.55],vertical,"(390.0, 262.0)",0.9833333333333333,0.517,1,2644.459,1,0.04,same
0,224,catch,"[(1131, 786)]",[],[1],[],vertical,"(890.0, 762.0)",1.7,nan,1,2649.693,1,0.04,same
0,225,valid,"[(1116, 785)]",[],[1],[0.6333333333333333],horizontal,"(890.0, 262.0)",1.3,0.59,1,2654.825,2,0.04,same
0,226,catch,"[(1136, 797)]",[],[1],[],vertical,"(890.0, 762.0)",1.7,nan,1,2660.568,2,0.04,same
0,227,catch,"[(1155, 781)]",[],[1],[],horizontal,"(390.0, 762.0)",1.7,nan,1,2666.109,2,0.04,same
0,228,valid,"[(1136, 782)]",[],[1],[0.5666666666666667],horizontal,"(390.0, 262.0)",1.4166666666666667,0.525,1,2671.954,3,0.04,same
0,229,valid,"[(1165, 805)]",[],[1],[0.6],vertical,"(890.0, 262.0)",1.1666666666666667,0.556,1,2678.342,3,0.04,same
0,230,valid,"[(1128, 800)]",[],[1],[0.6333333333333333],horizontal,"(390.0, 262.0)",1.1166666666666667,0.6,1,2684.359,3,0.04,same
0,231,valid,"[(1136, 805)]",[],[1],[0.5],vertical,"(390.0, 762.0)",0.7166666666666667,0.461,1,2689.957,3,0.04,same
0,232,valid,"[(1136, 803)]",[],[1],[0.48333333333333334],vertical,"(390.0, 262.0)",0.4666666666666667,0.449,1,2695.584,3,0.04,same
0,233,valid,"[(1161, 812)]",[],[1],[0.55],horizontal,"(890.0, 762.0)",0.8,0.51,1,2701.109,3,0.04,same
0,234,valid,"[(1131, 791)]",[],[1],[0.85],horizontal,"(390.0, 762.0)",0.35,nan,0,2706.146,0,0.04,same
0,235,valid,"[(1116, 800)]",[],[1],[0.65],horizontal,"(390.0, 762.0)",1.1666666666666667,0.609,1,2709.958,1,0.04,same
0,236,catch,"[(1165, 773)]",[],[1],[],horizontal,"(890.0, 262.0)",1.7,nan,1,2715.593,1,0.04,same
0,237,valid,"[(1106, 847)]",[],[1],[0.5333333333333333],horizontal,"(390.0, 762.0)",1.2,0.488,1,2720.901,1,0.04,same
0,238,valid,"[(1166, 820)]",[],[1],[0.55],horizontal,"(890.0, 762.0)",0.4,0.505,1,2757.026,2,0.04,same
0,239,catch,"[(1163, 797)]",[],[1],[],horizontal,"(890.0, 762.0)",1.7,nan,1,2761.864,2,0.04,same
0,240,invalid_adjacent_other_bar,"[(1141, 813)]",[],[1],[0.5666666666666667],horizontal,"(390.0, 762.0)",1.3666666666666667,0.532,1,2767.31,2,0.04,other
0,241,valid,"[(1126, 806)]",[],[1],[0.4666666666666667],vertical,"(890.0, 762.0)",0.9,0.433,1,2773.21,3,0.04,same
0,242,valid,"[(1136, 785)]",[],[1],[0.5],horizontal,"(890.0, 762.0)",1.3333333333333333,0.459,1,2779.444,3,0.04,same
0,243,invalid_same_bar,"[(1131, 795)]",[],[1],[0.85],vertical,"(390.0, 262.0)",0.4,nan,0,2785.875,0,0.04,same
0,244,valid,"[(1126, 801)]",[],[1],[0.5333333333333333],vertical,"(890.0, 762.0)",1.25,0.495,1,2790.226,1,0.04,same
0,245,valid,"[(1160, 805)]",[],[1],[0.48333333333333334],vertical,"(890.0, 262.0)",0.85,0.447,1,2795.349,1,0.04,same
0,246,invalid_adjacent_other_bar,"[(1131, 796)]",[],[1],[0.48333333333333334],horizontal,"(890.0, 262.0)",0.6666666666666666,0.443,1,2800.177,1,0.02,other
0,247,valid,"[(1119, 824)]",[],[1],[0.6],horizontal,"(890.0, 762.0)",0.8,0.557,1,2805.077,2,0.02,same
0,248,valid,"[(1126, 791)]",[],[1],[0.5833333333333334],vertical,"(890.0, 262.0)",0.35,0.551,1,2810.711,2,0.02,same
0,249,catch,"[(1131, 772)]",[],[1],[],horizontal,"(390.0, 762.0)",1.7,nan,1,2815.41,2,0.02,same
0,250,valid,"[(1139, 791)]",[],[1],[0.5166666666666666],horizontal,"(390.0, 762.0)",0.5166666666666666,0.474,1,2820.976,3,0.02,same
0,251,valid,"[(1165, 782)]",[],[1],[0.5333333333333333],horizontal,"(390.0, 762.0)",1.25,0.49,1,2826.659,3,0.02,same
0,252,valid,"[(1166, 803)]",[],[1],[0.5],horizontal,"(390.0, 262.0)",0.5166666666666666,0.458,1,2832.943,3,0.02,same
0,253,valid,"[(1159, 790)]",[],[1],[0.5],vertical,"(390.0, 762.0)",0.8333333333333334,0.458,1,2837.996,3,0.02,same
0,254,catch,"[(1163, 812)]",[],[1],[],horizontal,"(890.0, 762.0)",1.7,nan,1,2843.443,3,0.02,same
0,255,valid,"[(1131, 781)]",[],[1],[0.4666666666666667],horizontal,"(890.0, 262.0)",0.8,0.428,1,2849.165,3,0.02,same
0,256,catch,"[(1137, 780)]",[],[1],[],vertical,"(390.0, 762.0)",1.7,nan,1,2854.81,3,0.02,same
0,257,valid,"[(1163, 787)]",[],[1],[0.5],vertical,"(390.0, 262.0)",1.05,0.459,1,2860.593,3,0.02,same
0,258,invalid_adjacent_other_bar,"[(1137, 783)]",[],[1],[0.5166666666666666],horizontal,"(390.0, 762.0)",1.15,0.477,1,2866.726,3,0.02,other
0,259,valid,"[(1160, 788)]",[],[1],[0.31666666666666665],horizontal,"(390.0, 262.0)",1.3666666666666667,0.281,1,2873.053,3,0.02,same
0,260,valid,"[(1158, 786)]",[],[1],[0.85],vertical,"(390.0, 262.0)",0.9833333333333333,nan,0,2879.076,0,0.0,same
0,261,invalid_same_bar,"[(1116, 806)]",[],[1],[0.5333333333333333],horizontal,"(390.0, 762.0)",1.2166666666666666,0.492,1,2883.861,1,0.0,same
0,262,catch,"[(1165, 804)]",[],[1],[],horizontal,"(390.0, 762.0)",,"('cti', 1.488),nan",0,2889.326,0,0.02,same
0,263,valid,"[(1083, 803)]",[],[1],[0.6166666666666667],horizontal,"(890.0, 762.0)",1.2,0.58,1,2893.895,1,0.02,same
0,264,valid,"[(1170, 777)]",[],[1],[0.5],vertical,"(890.0, 762.0)",1.0166666666666666,0.458,1,2899.342,1,0.02,same
0,265,valid,"[(1140, 791)]",[],[1],[0.4],horizontal,"(890.0, 262.0)",1.35,0.361,1,2904.394,1,0.02,same
0,266,catch,"[(1160, 796)]",[],[1],[],vertical,"(390.0, 762.0)",1.7,nan,1,2909.711,2,0.02,same
0,267,catch,"[(1163, 786)]",[],[1],[],horizontal,"(390.0, 762.0)",1.7,nan,1,2915.566,2,0.02,same
0,268,valid,"[(1134, 791)]",[],[1],[0.48333333333333334],vertical,"(390.0, 262.0)",1.0666666666666667,0.448,1,2920.96,2,0.02,same
0,269,valid,"[(1158, 781)]",[],[1],[0.4666666666666667],horizontal,"(890.0, 262.0)",1.5,0.425,1,2926.244,3,0.02,same
0,270,invalid_adjacent_other_bar,"[(1132, 808)]",[],[1],[0.5],vertical,"(890.0, 262.0)",0.5833333333333334,0.461,1,2932.841,3,0.02,other
0,271,catch,"[(1157, 800)]",[],[1],[],horizontal,"(390.0, 762.0)",1.7,nan,1,2938.559,3,0.02,same
0,272,valid,"[(1132, 776)]",[],[1],[0.55],vertical,"(390.0, 762.0)",0.9,0.518,1,2944.667,3,0.02,same
0,273,valid,"[(1160, 784)]",[],[1],[0.5166666666666666],vertical,"(890.0, 762.0)",1.1,0.48,1,2950.343,3,0.02,same
0,274,invalid_same_bar,"[(1161, 781)]",[],[1],[0.6166666666666667],horizontal,"(890.0, 762.0)",1.0,0.576,1,2956.214,3,0.02,same
0,275,catch,"[(1137, 787)]",[],[1],[],vertical,"(890.0, 762.0)",1.7,nan,1,2962.304,3,0.02,same
0,276,invalid_same_bar,"[(1156, 777)]",[],[1],[0.5833333333333334],horizontal,"(390.0, 262.0)",1.05,0.539,1,2968.414,3,0.02,same
0,277,catch,"[(1131, 782)]",[],[1],[],horizontal,"(890.0, 262.0)",1.7,nan,1,2973.887,3,0.02,same
0,278,valid,"[(1126, 799)]",[],[1],[0.5166666666666666],horizontal,"(390.0, 762.0)",1.1833333333333333,0.478,1,2980.11,3,0.02,same
0,279,valid,"[(1151, 783)]",[],[1],[0.6333333333333333],vertical,"(890.0, 762.0)",1.1833333333333333,0.592,1,2985.878,3,0.02,same
0,280,valid,"[(1167, 791)]",[],[1],[0.6166666666666667],vertical,"(890.0, 762.0)",0.55,0.582,1,2992.14,3,0.02,same
0,281,valid,"[(1128, 791)]",[],[1],[0.48333333333333334],vertical,"(890.0, 262.0)",0.7166666666666667,0.443,1,2997.492,3,0.02,same
0,282,valid,"[(1162, 790)]",[],[1],[0.5833333333333334],vertical,"(890.0, 262.0)",1.1666666666666667,0.54,1,3002.826,3,0.02,same
0,283,catch,"[(1162, 795)]",[],[1],[],vertical,"(390.0, 262.0)",1.7,nan,1,3008.593,3,0.02,same
0,284,valid,"[(1132, 784)]",[],[1],[0.5166666666666666],horizontal,"(390.0, 762.0)",1.4333333333333333,0.475,1,3014.613,3,0.02,same
0,285,valid,"[(1131, 806)]",[],[1],[0.48333333333333334],horizontal,"(390.0, 262.0)",1.3666666666666667,0.44,1,3021.058,3,0.02,same
0,286,invalid_adjacent_other_bar,"[(1135, 788)]",[],[1],[0.4666666666666667],horizontal,"(390.0, 262.0)",1.1666666666666667,0.431,1,3026.873,3,0.02,other
0,287,valid,"[(1148, 791)]",[],[1],[0.85],horizontal,"(390.0, 262.0)",0.4,nan,0,3032.617,0,0.02,same
0,288,valid,"[(1069, 894)]","[(1067, 912)]",[1],[0.2],vertical,"(390.0, 762.0)",,"('bar', 0.214)",0,3036.603,0,0.02,same
0,289,catch,"[(1081, 821)]",[],[1],[],horizontal,"(890.0, 762.0)",1.7,nan,1,3261.519,1,0.02,same
0,290,valid,"[(1159, 790)]",[],[1],[0.5166666666666666],vertical,"(890.0, 762.0)",0.7166666666666667,0.478,1,3266.927,1,0.02,same
0,291,catch,"[(1142, 809)]",[],[1],[],horizontal,"(890.0, 262.0)",1.7,nan,1,3271.765,1,0.02,same
0,292,valid,"[(1132, 780)]",[],[1],[0.5666666666666667],horizontal,"(890.0, 262.0)",1.2166666666666666,0.525,1,3276.757,2,0.02,same
0,293,valid,"[(1152, 775)]",[],[1],[0.5],vertical,"(890.0, 762.0)",0.95,0.459,1,3282.663,2,0.02,same
0,294,valid,"[(1155, 793)]",[],[1],[0.6],horizontal,"(390.0, 762.0)",0.4666666666666667,0.559,1,3287.862,2,0.02,same
0,295,catch,"[(1107, 850)]",[],[1],[],horizontal,"(890.0, 262.0)",,"('cti', 1.677),nan",0,3293.077,0,0.04,same
0,296,catch,"[(1131, 778)]",[],[1],[],vertical,"(390.0, 262.0)",,"('cti', 1.157),nan",0,3298.138,0,0.06,same
0,297,valid,"[(1126, 783)]",[],[1],[0.5333333333333333],vertical,"(390.0, 762.0)",0.9833333333333333,0.496,1,3302.626,1,0.06,same
0,298,invalid_same_bar,"[(1122, 807)]",[],[1],[0.6166666666666667],vertical,"(890.0, 762.0)",1.1166666666666667,0.582,1,3308.59,1,0.06,same
0,299,valid,"[(1126, 788)]",[],[1],[0.6166666666666667],vertical,"(390.0, 262.0)",1.4,0.578,1,3313.975,1,0.06,same
0,300,valid,"[(1131, 774)]",[],[1],[0.45],horizontal,"(890.0, 262.0)",1.0166666666666666,0.417,1,3319.278,2,0.06,same
0,301,catch,"[(1155, 782)]",[],[1],[],vertical,"(390.0, 762.0)",1.7,nan,1,3324.657,2,0.06,same
0,302,valid,"[(1156, 790)]",[],[1],[0.6666666666666666],vertical,"(390.0, 262.0)",1.1,0.638,1,3330.238,2,0.06,same
0,303,valid,"[(1135, 796)]",[],[1],[0.85],horizontal,"(890.0, 762.0)",0.7166666666666667,nan,0,3336.028,0,0.06,same
0,304,catch,"[(1116, 784)]",[],[1],[],horizontal,"(890.0, 762.0)",1.7,nan,1,3340.926,1,0.06,same
0,305,invalid_same_bar,"[(1161, 791)]",[],[1],[0.48333333333333334],horizontal,"(390.0, 762.0)",1.5,0.458,1,3345.863,1,0.06,same
0,306,catch,"[(1136, 807)]",[],[1],[],vertical,"(890.0, 762.0)",1.7,nan,1,3351.481,1,0.06,same
0,307,catch,"[(1159, 793)]",[],[1],[],horizontal,"(390.0, 262.0)",1.7,nan,1,3356.714,2,0.06,same
0,308,valid,"[(1160, 791)]",[],[1],[0.5],vertical,"(890.0, 262.0)",0.36666666666666664,0.466,1,3362.667,2,0.06,same
0,309,valid,"[(1155, 765)]",[],[1],[0.4666666666666667],horizontal,"(390.0, 762.0)",0.9166666666666666,0.441,1,3367.543,2,0.06,same
0,310,valid,"[(1159, 780)]",[],[1],[0.4666666666666667],horizontal,"(890.0, 262.0)",0.5833333333333334,0.429,1,3373.003,3,0.06,same
0,311,valid,"[(1159, 786)]",[],[1],[0.6333333333333333],horizontal,"(390.0, 762.0)",0.3833333333333333,0.593,1,3378.604,3,0.06,same
0,312,catch,"[(1160, 781)]",[],[1],[],horizontal,"(390.0, 762.0)",1.7,nan,1,3384.081,3,0.04,same
0,313,valid,"[(1156, 787)]",[],[1],[0.5],vertical,"(390.0, 262.0)",0.7166666666666667,0.457,1,3389.921,3,0.04,same
0,314,valid,"[(1162, 788)]",[],[1],[0.48333333333333334],horizontal,"(890.0, 262.0)",0.85,0.44,1,3395.261,3,0.04,same
0,315,catch,"[(1161, 791)]",[],[1],[],vertical,"(390.0, 262.0)",1.7,nan,1,3400.745,3,0.04,same
0,316,catch,"[(1165, 787)]",[],[1],[],vertical,"(390.0, 262.0)",1.7,nan,1,3406.678,3,0.04,same
0,317,catch,"[(1165, 765)]",[],[1],[],horizontal,"(890.0, 262.0)",1.7,nan,1,3412.462,3,0.04,same
0,318,valid,"[(1164, 798)]",[],[1],[0.5],horizontal,"(890.0, 762.0)",1.45,0.464,1,3418.778,3,0.04,same
0,319,valid,"[(1164, 780)]",[],[1],[0.48333333333333334],horizontal,"(890.0, 762.0)",1.2,0.439,1,3425.273,3,0.04,same
0,320,invalid_same_bar,"[(1159, 769)]",[],[1],[0.85],vertical,"(390.0, 262.0)",0.9333333333333333,nan,0,3431.195,0,0.04,same
0,321,catch,"[(1077, 830)]",[],[1],[],horizontal,"(390.0, 262.0)",1.7,nan,1,3436.174,1,0.04,same
0,322,catch,"[(1137, 811)]",[],[1],[],vertical,"(390.0, 262.0)",1.7,nan,1,3442.12,1,0.04,same
0,323,valid,"[(1158, 765)]",[],[1],[0.5],horizontal,"(390.0, 262.0)",0.4666666666666667,0.458,1,3447.129,1,0.04,same
0,324,valid,"[(1165, 806)]",[],[1],[0.85],horizontal,"(890.0, 762.0)",0.5833333333333334,nan,0,3451.483,0,0.04,same
0,325,catch,"[(1080, 837)]",[],[1],[],vertical,"(890.0, 262.0)",1.7,nan,1,3456.079,1,0.04,same
0,326,valid,"[(1156, 786)]",[],[1],[0.85],horizontal,"(890.0, 762.0)",0.55,nan,0,4442.481,0,0.04,same
0,327,catch,"[(1134, 782)]",[],[1],[],vertical,"(390.0, 762.0)",1.7,nan,1,4447.331,1,0.04,same
0,328,valid,"[(1159, 799)]",[],[1],[0.85],vertical,"(890.0, 762.0)",0.9166666666666666,nan,0,4452.535,0,0.04,same
0,329,catch,"[(1107, 798)]",[],[1],[],horizontal,"(890.0, 262.0)",1.7,nan,1,4457.1,1,0.04,same
0,330,valid,"[(1158, 786)]",[],[1],[0.5],vertical,"(390.0, 262.0)",0.8833333333333333,0.461,1,4462.566,1,0.04,same
0,331,valid,"[(1134, 769)]",[],[1],[0.5166666666666666],vertical,"(890.0, 762.0)",1.4333333333333333,0.476,1,4467.388,1,0.04,same
0,332,valid,"[(1147, 771)]",[],[1],[0.5166666666666666],vertical,"(890.0, 262.0)",1.3,0.475,1,4472.842,2,0.04,same
0,333,invalid_adjacent_other_bar,"[(1134, 780)]",[],[1],[0.85],vertical,"(890.0, 762.0)",0.48333333333333334,nan,0,4478.485,0,0.04,other
0,334,invalid_adjacent_other_bar,"[(1129, 784)]",[],[1],[0.5166666666666666],vertical,"(890.0, 762.0)",1.3333333333333333,0.479,1,4482.537,1,0.04,other
0,335,valid,"[(1132, 790)]",[],[1],[0.7],vertical,"(890.0, 262.0)",0.48333333333333334,0.656,1,4488.508,1,0.04,same
0,336,invalid_adjacent_other_bar,"[(1120, 812)]",[],[1],[0.5833333333333334],horizontal,"(390.0, 762.0)",0.9333333333333333,0.542,1,4492.881,1,0.04,other
0,337,valid,"[(1126, 786)]",[],[1],[0.7],horizontal,"(390.0, 762.0)",1.2333333333333334,0.659,1,4498.366,2,0.04,same
0,338,valid,"[(1157, 785)]",[],[1],[0.85],vertical,"(390.0, 762.0)",1.5333333333333332,nan,0,4504.597,0,0.04,same
0,339,catch,"[(1131, 791)]",[],[1],[],horizontal,"(390.0, 262.0)",1.7,nan,1,4509.68,1,0.04,same
0,340,valid,"[(1158, 786)]",[],[1],[0.5166666666666666],horizontal,"(890.0, 762.0)",0.48333333333333334,0.478,1,4514.679,1,0.04,same
0,341,invalid_adjacent_other_bar,"[(1157, 795)]",[],[1],[0.5],vertical,"(890.0, 262.0)",1.0333333333333332,0.458,1,4519.365,1,0.04,other
0,342,valid,"[(1158, 791)]",[],[1],[0.5166666666666666],vertical,"(890.0, 262.0)",1.1333333333333333,0.475,1,4524.009,2,0.04,same
0,343,valid,"[(1139, 839)]",[],[1],[0.5833333333333334],vertical,"(390.0, 762.0)",1.45,0.543,1,4529.477,2,0.04,same
0,344,catch,"[(1157, 800)]",[],[1],[],horizontal,"(890.0, 762.0)",1.7,nan,1,4545.909,2,0.04,same
0,345,valid,"[(1160, 779)]",[],[1],[0.4666666666666667],horizontal,"(890.0, 762.0)",0.5833333333333334,0.428,1,4551.825,3,0.02,same
0,346,valid,"[(1130, 806)]",[],[1],[0.5333333333333333],horizontal,"(390.0, 762.0)",0.75,0.492,1,4557.311,3,0.0,same
0,347,invalid_same_bar,"[(1129, 777)]",[],[1],[0.5166666666666666],horizontal,"(890.0, 262.0)",1.0,0.475,1,4562.856,3,0.0,same
0,348,catch,"[(1155, 791)]",[],[1],[],vertical,"(890.0, 262.0)",1.7,nan,1,4568.232,3,0.0,same
0,349,invalid_adjacent_other_bar,"[(1160, 776)]",[],[1],[0.85],horizontal,"(390.0, 762.0)",1.0,nan,0,4573.949,0,0.0,other
0,350,valid,"[(1116, 777)]",[],[1],[0.48333333333333334],vertical,"(390.0, 262.0)",0.45,0.444,1,4578.6,1,0.0,same
0,351,invalid_same_bar,"[(1160, 785)]",[],[1],[0.6],vertical,"(890.0, 762.0)",1.5166666666666666,0.561,1,4583.25,1,0.0,same
0,352,catch,"[(1155, 779)]",[],[1],[],vertical,"(390.0, 762.0)",1.7,nan,1,4589.0,1,0.0,same
0,353,catch,"[(1141, 799)]",[],[1],[],horizontal,"(390.0, 262.0)",1.7,nan,1,4594.114,2,0.0,same
0,354,valid,"[(1134, 799)]",[],[1],[0.6],horizontal,"(390.0, 262.0)",1.2666666666666666,0.56,1,4599.532,2,0.0,same
0,355,invalid_same_bar,"[(1127, 795)]",[],[1],[0.6333333333333333],horizontal,"(390.0, 762.0)",0.9666666666666667,0.585,1,4605.132,2,0.0,same
0,356,valid,"[(1125, 785)]",[],[1],[0.5],vertical,"(390.0, 762.0)",1.2166666666666666,0.46,1,4610.71,3,0.0,same
0,357,catch,"[(1136, 792)]",[],[1],[],vertical,"(390.0, 262.0)",1.7,nan,1,4616.788,3,0.0,same
0,358,valid,"[(1121, 841)]",[],[1],[0.5166666666666666],horizontal,"(890.0, 762.0)",0.7833333333333333,0.474,1,4622.967,3,0.0,same
0,359,valid,"[(1131, 777)]",[],[1],[0.5333333333333333],horizontal,"(890.0, 262.0)",0.4,0.49,1,5095.619,3,0.0,same
0,360,valid,"[(1125, 797)]",[],[1],[0.48333333333333334],horizontal,"(390.0, 762.0)",1.0333333333333332,0.449,1,5100.578,3,0.0,same
0,361,catch,"[(1151, 803)]",[],[1],[],vertical,"(890.0, 262.0)",1.7,nan,1,5106.119,3,0.0,same
0,362,valid,"[(1159, 801)]",[],[1],[0.5833333333333334],horizontal,"(390.0, 762.0)",0.45,0.547,1,5112.107,3,0.0,same
0,363,valid,"[(1153, 792)]",[],[1],[0.5833333333333334],vertical,"(890.0, 262.0)",0.9333333333333333,0.544,1,5117.45,3,0.0,same
0,364,valid,"[(1157, 777)]",[],[1],[0.5166666666666666],vertical,"(890.0, 762.0)",0.8166666666666667,0.475,1,5123.312,3,0.0,same
0,365,valid,"[(1177, 802)]",[],[1],[0.6166666666666667],horizontal,"(390.0, 762.0)",0.6166666666666667,0.574,1,5128.645,3,0.0,same
0,366,valid,"[(1160, 803)]",[],[1],[0.5333333333333333],horizontal,"(390.0, 762.0)",1.2666666666666666,0.492,1,5133.816,3,0.0,same
0,367,invalid_same_bar,"[(1165, 805)]",[],[1],[0.85],horizontal,"(390.0, 762.0)",1.3166666666666667,nan,0,5140.306,0,0.0,same
0,368,valid,"[(1111, 805)]",[],[1],[0.16666666666666666],horizontal,"(390.0, 262.0)",1.4,0.134,0,5145.386,0,0.0,same
0,369,valid,"[(1019, 754)]",[],[1],[],horizontal,"(390.0, 262.0)",,"('fix', 0.069)",0,5149.986,0,0.0,same
0,370,valid,"[(1017, 767)]",[],[1],[],vertical,"(390.0, 762.0)",,"('fix', 0.184)",0,7013.29,0,0.0,same
0,371,valid,"[(1019, 811)]",[],[1],[],horizontal,"(390.0, 762.0)",,"('fix', 0.317)",0,7015.558,0,0.0,same
0,372,valid,"[(1036, 786)]",[],[1],[],vertical,"(890.0, 762.0)",,"('fix', 0.052)",0,7018.654,0,0.0,same
0,373,invalid_same_bar,"[(997, 791), (1132, 856)]",[],"[0, 1]",[0.5333333333333333],horizontal,"(890.0, 762.0)",1.0166666666666666,0.501,1,7020.902,1,0.0,same
0,374,valid,"[(1122, 829)]",[],[1],[0.6833333333333333],vertical,"(390.0, 762.0)",0.9833333333333333,0.64,1,7536.66,1,0.0,same
0,375,catch,"[(1141, 779)]",[],[1],[],vertical,"(390.0, 262.0)",1.7,nan,1,7542.321,1,0.0,same
0,376,valid,"[(1159, 817)]",[],[1],[0.5666666666666667],vertical,"(890.0, 762.0)",0.6166666666666667,0.525,1,7547.694,2,0.0,same
0,377,catch,"[(1158, 790)]",[],[1],[],vertical,"(890.0, 762.0)",,"('cti', 1.51),nan",0,7553.121,0,0.02,same
0,378,valid,"[(1125, 793)]",[],[1],[0.5833333333333334],vertical,"(890.0, 262.0)",1.3333333333333333,0.539,1,7557.895,1,0.02,same
0,379,valid,"[(1131, 798)]",[],[1],[0.5],horizontal,"(390.0, 262.0)",1.4666666666666666,0.462,1,7571.46,1,0.02,same
0,380,invalid_adjacent_other_bar,"[(1136, 796)]",[],[1],[0.85],vertical,"(390.0, 762.0)",0.55,nan,0,7577.126,0,0.02,other
0,381,valid,"[(1081, 846)]",[],[1],[0.5],horizontal,"(890.0, 262.0)",0.9166666666666666,0.463,1,7581.514,1,0.02,same
0,382,catch,"[(1132, 796)]",[],[1],[],horizontal,"(390.0, 762.0)",1.7,nan,1,7587.126,1,0.02,same
0,383,catch,"[(1116, 815)]",[],[1],[],vertical,"(890.0, 762.0)",1.7,nan,1,7592.743,1,0.02,same
0,384,invalid_adjacent_other_bar,"[(1163, 811)]",[],[1],[0.5166666666666666],horizontal,"(390.0, 262.0)",0.5833333333333334,0.479,1,7597.794,2,0.02,other
0,385,valid,"[(1165, 786)]",[],[1],[0.48333333333333334],vertical,"(890.0, 262.0)",1.0666666666666667,0.446,1,7603.294,2,0.02,same
0,386,valid,"[(1171, 798)]",[],[1],[0.6],horizontal,"(390.0, 262.0)",1.5,0.557,1,7609.042,2,0.02,same
0,387,catch,"[(1156, 806)]",[],[1],[],horizontal,"(390.0, 762.0)",1.7,nan,1,7614.91,3,0.02,same
0,388,valid,"[(1126, 777)]",[],[1],[0.5833333333333334],horizontal,"(390.0, 762.0)",0.8333333333333334,0.552,1,7621.077,3,0.02,same
0,389,valid,"[(1183, 792)]",[],[1],[0.55],horizontal,"(390.0, 762.0)",1.3833333333333333,0.509,1,7626.923,3,0.02,same
0,390,invalid_adjacent_other_bar,"[(1160, 803)]",[],[1],[0.7833333333333333],vertical,"(390.0, 262.0)",1.0666666666666667,0.74,1,7633.194,3,0.02,other
0,391,valid,"[(1184, 804)]",[],[1],[0.36666666666666664],horizontal,"(890.0, 762.0)",0.9166666666666666,0.33,1,7639.628,3,0.02,same
0,392,valid,"[(1166, 817)]",[],[1],[],vertical,"(890.0, 262.0)",,"('fix', 0.302)",0,7645.228,0,0.02,same
0,393,valid,"[(1121, 820)]",[],[1],[0.6833333333333333],horizontal,"(890.0, 762.0)",0.45,0.647,1,7647.127,1,0.02,same
0,394,catch,"[(1128, 791)]",[],[1],[],horizontal,"(890.0, 762.0)",1.7,nan,1,7651.855,1,0.02,same
0,395,valid,"[(1132, 794)]",[],[1],[0.85],horizontal,"(390.0, 762.0)",0.5666666666666667,nan,0,7656.783,0,0.02,same
0,396,invalid_same_bar,"[(1112, 811)]",[],[1],[0.85],horizontal,"(390.0, 262.0)",1.0833333333333333,nan,0,7661.428,0,0.02,same
0,397,catch,"[(1118, 825)]",[],[1],[],vertical,"(890.0, 262.0)",1.7,nan,1,7666.236,1,0.02,same
0,398,catch,"[(1151, 787)]",[],[1],[],horizontal,"(890.0, 262.0)",1.7,nan,1,7671.623,1,0.02,same
0,399,valid,"[(1128, 773)]",[],[1],[0.5333333333333333],vertical,"(890.0, 262.0)",0.6333333333333333,0.494,1,7676.633,1,0.02,same
0,400,invalid_adjacent_other_bar,"[(1155, 792)]",[],[1],[0.6],horizontal,"(390.0, 262.0)",0.7333333333333333,0.559,1,7681.233,2,0.02,other
0,401,catch,"[(1127, 791)]",[],[1],[],horizontal,"(890.0, 262.0)",1.7,nan,1,7686.399,2,0.02,same
0,402,valid,"[(1131, 796)]",[],[1],[0.85],vertical,"(390.0, 262.0)",1.0666666666666667,nan,0,7691.778,0,0.02,same
0,403,invalid_same_bar,"[(1136, 796)]",[],[1],[0.85],vertical,"(890.0, 262.0)",0.6833333333333333,nan,0,7696.947,0,0.02,same
0,404,valid,"[(1111, 812)]",[],[1],[0.55],horizontal,"(890.0, 762.0)",0.6833333333333333,0.506,1,7702.117,1,0.02,same
0,405,valid,"[(1165, 811)]",[],[1],"[0.85, 0.85]",horizontal,"(890.0, 762.0)",0.5666666666666667,"0.814,nan",0,7707.056,0,0.02,same
0,406,valid,"[(1116, 791)]",[],[1],[0.6833333333333333],vertical,"(390.0, 262.0)",0.6166666666666667,0.649,1,7711.344,1,0.02,same
0,407,valid,"[(1121, 826)]",[],[1],[0.85],vertical,"(390.0, 762.0)",0.75,nan,0,7715.937,0,0.02,same
0,408,valid,"[(1126, 792)]",[],[1],[0.5333333333333333],horizontal,"(390.0, 262.0)",1.2666666666666666,0.493,1,7720.655,1,0.02,same
0,409,valid,"[(1159, 787)]",[],[1],[0.4666666666666667],horizontal,"(390.0, 262.0)",1.5,0.435,1,7726.015,1,0.02,same
0,410,valid,"[(1160, 783)]",[],[1],[],vertical,"(890.0, 762.0)",,"('cti', 0.663)",0,7731.265,0,0.02,same
0,411,valid,"[(1160, 800)]",[],[1],[0.55],vertical,"(890.0, 762.0)",0.95,0.516,1,7735.143,1,0.02,same
0,412,valid,"[(1131, 802)]",[],[1],[0.48333333333333334],vertical,"(390.0, 762.0)",0.7166666666666667,0.44,1,7741.335,1,0.02,same
0,413,valid,"[(1160, 806)]",[],[1],[0.5833333333333334],horizontal,"(890.0, 762.0)",1.3166666666666667,0.54,1,7746.177,1,0.02,same
0,414,valid,"[(1156, 782)]",[],[1],[0.5333333333333333],horizontal,"(390.0, 762.0)",1.3333333333333333,0.496,1,7751.338,2,0.02,same
0,415,valid,"[(1159, 778)]",[],[1],[0.85],horizontal,"(390.0, 762.0)",1.3166666666666667,nan,0,7757.435,0,0.02,same
0,416,catch,"[(1121, 817)]",[],[1],[],horizontal,"(890.0, 262.0)",,"('cti', 0.806),nan",0,7762.311,0,0.04,same
0,417,catch,"[(1131, 798)]",[],[1],[],horizontal,"(890.0, 262.0)",1.7,nan,1,7767.842,1,0.04,same
0,418,valid,"[(1160, 797)]",[],[1],[0.5166666666666666],horizontal,"(390.0, 262.0)",0.9333333333333333,0.471,1,7773.068,1,0.04,same
0,419,catch,"[(1155, 796)]",[],[1],[],horizontal,"(890.0, 262.0)",1.7,nan,1,7777.776,1,0.04,same
0,420,catch,"[(1174, 791)]",[],[1],[],horizontal,"(890.0, 762.0)",1.7,nan,1,7782.894,2,0.04,same
0,421,valid,"[(1111, 797)]",[],[1],[0.55],horizontal,"(390.0, 762.0)",1.2333333333333334,0.51,1,7788.694,2,0.04,same
0,422,invalid_adjacent_other_bar,"[(1151, 789)]",[],[1],[0.55],vertical,"(390.0, 262.0)",0.55,0.514,1,7795.611,2,0.04,other
0,423,valid,"[(1162, 778)]",[],[1],[0.48333333333333334],horizontal,"(390.0, 762.0)",1.5166666666666666,0.446,1,7800.695,3,0.04,same
0,424,valid,"[(1165, 790)]",[],[1],[0.5166666666666666],horizontal,"(890.0, 762.0)",1.4333333333333333,0.475,1,7807.095,3,0.04,same
0,425,invalid_adjacent_other_bar,"[(1164, 796)]",[],[1],[],vertical,"(390.0, 762.0)",,"('cti', 0.64)",0,7813.276,0,0.04,other
0,426,valid,"[(1132, 817)]",[],[1],[0.5333333333333333],vertical,"(390.0, 762.0)",1.1,0.499,1,7816.977,1,0.04,same
0,427,valid,"[(1164, 791)]",[],[1],[0.6333333333333333],horizontal,"(390.0, 262.0)",0.5833333333333334,0.595,1,7826.194,1,0.02,same
0,428,catch,"[(1163, 791)]",[],[1],[],horizontal,"(890.0, 762.0)",1.7,nan,1,7830.953,1,0.02,same
0,429,catch,"[(1141, 796)]",[],[1],[],vertical,"(390.0, 762.0)",,"('cti', 0.619),nan",0,7836.079,0,0.04,same
0,430,valid,"[(1091, 848)]",[],[1],[0.4666666666666667],vertical,"(390.0, 262.0)",1.3166666666666667,0.428,1,7840.022,1,0.04,same
0,431,valid,"[(1157, 809)]",[],[1],[0.6333333333333333],horizontal,"(390.0, 762.0)",0.8,0.593,1,7847.143,1,0.04,same
0,432,valid,"[(1121, 796)]",[],[1],[0.5166666666666666],vertical,"(390.0, 262.0)",1.5166666666666666,0.475,1,7852.478,1,0.04,same
0,433,catch,"[(1175, 811)]",[],[1],[],horizontal,"(890.0, 262.0)",1.7,nan,1,7858.361,2,0.04,same
0,434,catch,"[(1157, 798)]",[],[1],[],vertical,"(890.0, 762.0)",1.7,nan,1,7863.627,2,0.04,same
0,435,catch,"[(1129, 786)]",[],[1],[],horizontal,"(390.0, 762.0)",1.7,nan,1,7869.526,2,0.04,same
0,436,valid,"[(1139, 782)]",[],[1],[0.85],vertical,"(890.0, 762.0)",1.3666666666666667,nan,0,7875.357,0,0.04,same
0,437,valid,"[(1116, 807)]",[],[1],[0.6],horizontal,"(890.0, 262.0)",0.9666666666666667,0.565,1,7881.194,1,0.04,same
0,438,valid,"[(1126, 775)]",[],[1],[0.5166666666666666],horizontal,"(390.0, 262.0)",0.65,0.478,1,7886.47,1,0.04,same
0,439,valid,"[(1126, 787)]",[],[1],[0.4666666666666667],horizontal,"(890.0, 262.0)",0.35,0.433,1,7891.03,1,0.04,same
0,440,invalid_same_bar,"[(1131, 809)]",[],[1],[0.6666666666666666],horizontal,"(890.0, 762.0)",0.35,0.622,1,7895.829,2,0.04,same
0,441,valid,"[(1089, 850)]",[],[1],[0.48333333333333334],vertical,"(890.0, 762.0)",1.0166666666666666,0.444,1,7900.994,2,0.04,same
0,442,catch,"[(1123, 803)]",[],[1],[],horizontal,"(890.0, 262.0)",1.7,nan,1,8027.695,2,0.04,same
0,443,valid,"[(1126, 790)]",[],[1],[0.48333333333333334],vertical,"(390.0, 262.0)",0.4,0.448,1,8033.587,3,0.04,same
0,444,valid,"[(1153, 808)]",[],[1],[0.6333333333333333],horizontal,"(890.0, 262.0)",1.0166666666666666,0.59,1,8038.812,3,0.04,same
0,445,invalid_same_bar,"[(1160, 790)]",[],[1],[0.6166666666666667],vertical,"(890.0, 762.0)",1.05,0.579,1,8044.744,3,0.04,same
0,446,catch,"[(1151, 801)]",[],[1],[],vertical,"(890.0, 762.0)",1.7,nan,1,8050.363,3,0.04,same
0,447,catch,"[(1155, 799)]",[],[1],[],vertical,"(890.0, 762.0)",1.7,nan,1,8056.417,3,0.04,same
0,448,valid,"[(1154, 796)]",[],[1],[],horizontal,"(390.0, 762.0)",,"('cti', 1.173)",0,8062.58,0,0.04,same
0,449,catch,"[(1121, 829)]",[],[1],[],horizontal,"(890.0, 262.0)",1.7,nan,1,8067.045,1,0.04,same
0,450,catch,"[(1162, 807)]",[],[1],[],vertical,"(890.0, 762.0)",1.7,nan,1,8072.179,1,0.04,same
0,451,valid,"[(1126, 796)]",[],[1],[0.5333333333333333],horizontal,"(890.0, 262.0)",1.3333333333333333,0.493,1,8077.777,1,0.04,same
0,452,valid,"[(1124, 791)]",[],[1],[0.6166666666666667],horizontal,"(390.0, 762.0)",0.9833333333333333,0.572,1,8082.828,2,0.04,same
0,453,valid,"[(1128, 772)]",[],[1],[0.5166666666666666],horizontal,"(890.0, 762.0)",1.2833333333333332,0.475,1,8088.579,2,0.04,same
0,454,catch,"[(1159, 791)]",[],[1],[],horizontal,"(390.0, 262.0)",1.7,nan,1,8094.109,2,0.04,same
0,455,valid,"[(1190, 772)]",[],[1],[0.3],horizontal,"(890.0, 262.0)",1.5333333333333332,0.263,1,8100.022,3,0.04,same
0,456,valid,"[(1177, 791)]",[],[1],[0.5166666666666666],vertical,"(390.0, 762.0)",0.9833333333333333,0.475,1,8106.063,3,0.04,same
0,457,valid,"[(1159, 760)]",[],[1],[0.5],horizontal,"(890.0, 262.0)",0.4666666666666667,0.458,1,8111.494,3,0.04,same
0,458,valid,"[(1137, 796)]",[],[1],[0.5666666666666667],vertical,"(890.0, 762.0)",1.3333333333333333,0.525,1,8116.962,3,0.04,same
0,459,valid,"[(1144, 777)]",[],[1],[0.5666666666666667],horizontal,"(890.0, 762.0)",1.0666666666666667,0.533,1,8122.812,3,0.04,same
0,460,valid,"[(1164, 797)]",[],[1],[0.55],horizontal,"(890.0, 262.0)",0.4166666666666667,0.509,1,8128.61,3,0.04,same
0,461,valid,"[(1155, 774)]",[],[1],[0.85],vertical,"(890.0, 762.0)",1.1166666666666667,nan,0,8133.962,0,0.04,same
0,462,catch,"[(1136, 796)]",[],[1],[],vertical,"(890.0, 262.0)",1.7,nan,1,8139.074,1,0.04,same
0,463,catch,"[(1138, 791)]",[],[1],[],vertical,"(890.0, 262.0)",1.7,nan,1,8144.186,1,0.04,same
0,464,valid,"[(1160, 799)]",[],[1],[0.5833333333333334],horizontal,"(890.0, 262.0)",1.1,0.543,1,8149.552,1,0.04,same
0,465,catch,"[(1161, 803)]",[],[1],[],horizontal,"(890.0, 762.0)",1.7,nan,1,8154.617,2,0.04,same
0,466,valid,"[(1093, 810)]",[],[1],[0.5166666666666666],horizontal,"(890.0, 262.0)",1.2,0.473,1,8160.447,2,0.02,same
0,467,catch,"[(1134, 772)]",[],[1],[],vertical,"(390.0, 762.0)",1.7,nan,1,8172.327,2,0.02,same
0,468,valid,"[(1148, 792)]",[],[1],[0.6666666666666666],horizontal,"(890.0, 262.0)",0.95,0.629,1,8177.763,3,0.02,same
0,469,catch,"[(1161, 765)]",[],[1],[],horizontal,"(890.0, 762.0)",1.7,nan,1,8183.969,3,0.02,same
0,470,valid,"[(1132, 781)]",[],[1],[0.55],vertical,"(890.0, 762.0)",1.3333333333333333,0.519,1,8190.06,3,0.02,same
0,471,invalid_same_bar,"[(1150, 820)]",[],[1],[0.7],horizontal,"(890.0, 762.0)",0.43333333333333335,0.655,1,8196.625,3,0.02,same
0,472,valid,"[(1171, 781)]",[],[1],[0.6833333333333333],vertical,"(890.0, 762.0)",0.95,0.642,1,8201.689,3,0.02,same
0,473,valid,"[(1158, 776)]",[],[1],[0.65],vertical,"(890.0, 262.0)",0.95,0.606,1,8207.879,3,0.02,same
0,474,valid,"[(1136, 802)]",[],[1],[0.5666666666666667],horizontal,"(890.0, 762.0)",1.3166666666666667,0.526,1,8213.853,3,0.02,same
0,475,valid,"[(1131, 793)]",[],[1],[0.85],vertical,"(390.0, 262.0)",1.0333333333333332,nan,0,8219.995,0,0.02,same
0,476,valid,"[(1095, 801)]",[],[1],[0.48333333333333334],vertical,"(890.0, 262.0)",1.4166666666666667,0.45,1,8224.988,1,0.02,same
0,477,valid,"[(1141, 782)]",[],[1],[0.5833333333333334],vertical,"(390.0, 762.0)",0.4,0.54,1,8230.702,1,0.02,same
0,478,valid,"[(1112, 794)]",[],[1],[0.75],horizontal,"(390.0, 762.0)",0.5333333333333333,0.703,1,8235.435,1,0.02,same
0,479,catch,"[(1165, 819)]",[],[1],[],horizontal,"(390.0, 262.0)",1.7,nan,1,8240.282,2,0.0,same
0,480,valid,"[(1146, 772)]",[],[1],[0.6],horizontal,"(390.0, 762.0)",0.55,0.56,1,8245.786,2,0.0,same
0,481,valid,"[(1178, 796)]",[],[1],[0.5],horizontal,"(390.0, 262.0)",0.7166666666666667,0.47,1,8251.212,2,0.0,same
0,482,valid,"[(1126, 767)]",[],[1],[0.5833333333333334],vertical,"(390.0, 262.0)",0.5166666666666666,0.538,1,8256.036,3,0.0,same
0,483,valid,"[(1162, 784)]",[],[1],[0.5333333333333333],vertical,"(390.0, 262.0)",0.45,0.49,1,8261.549,3,0.0,same
0,484,valid,"[(1161, 791)]",[],[1],[0.6666666666666666],vertical,"(390.0, 762.0)",0.7166666666666667,0.622,1,8266.863,3,0.0,same
0,485,catch,"[(1161, 786)]",[],[1],[],horizontal,"(890.0, 262.0)",1.7,nan,1,8272.489,3,0.0,same
0,486,valid,"[(1131, 775)]",[],[1],[0.5166666666666666],vertical,"(890.0, 762.0)",1.25,0.478,1,8278.65,3,0.0,same
0,487,valid,"[(1161, 774)]",[],[1],[0.55],horizontal,"(390.0, 262.0)",1.15,0.509,1,8284.737,3,0.0,same
0,488,catch,"[(1167, 772)]",[],[1],[],horizontal,"(890.0, 262.0)",1.7,nan,1,8290.435,3,0.0,same
0,489,valid,"[(1131, 762)]",[],[1],[0.65],horizontal,"(890.0, 262.0)",1.3333333333333333,0.603,1,8296.464,3,0.0,same
0,490,valid,"[(1165, 801)]",[],[1],[0.6333333333333333],vertical,"(390.0, 262.0)",1.4333333333333333,0.589,1,8302.626,3,0.0,same
0,491,valid,"[(1131, 776)]",[],[1],[0.5166666666666666],horizontal,"(890.0, 262.0)",0.55,0.477,1,8308.78,3,0.0,same
0,492,invalid_same_bar,"[(1170, 777)]",[],[1],[0.5666666666666667],horizontal,"(390.0, 262.0)",0.7166666666666667,0.524,1,8314.478,3,0.0,same
0,493,valid,"[(1160, 795)]",[],[1],[0.6666666666666666],vertical,"(890.0, 762.0)",1.1666666666666667,0.624,1,8319.996,3,0.0,same
0,494,valid,"[(1164, 801)]",[],[1],[0.4166666666666667],horizontal,"(390.0, 762.0)",1.4166666666666667,0.378,1,8326.196,3,0.0,same
0,495,valid,"[(1159, 791)]",[],[1],[0.5666666666666667],vertical,"(890.0, 262.0)",1.0833333333333333,0.527,1,8332.065,3,0.0,same
0,496,catch,"[(1160, 791)]",[],[1],[],horizontal,"(890.0, 762.0)",1.7,nan,1,8337.68,3,0.0,same
0,497,catch,"[(1160, 794)]",[],[1],[],horizontal,"(890.0, 762.0)",1.7,nan,1,8343.597,3,0.0,same
0,498,valid,"[(1131, 786)]",[],[1],[0.55],vertical,"(890.0, 762.0)",1.3,0.508,1,8349.48,3,0.0,same
0,499,catch,"[(1161, 815)]",[],[1],[],horizontal,"(390.0, 762.0)",1.7,nan,1,8355.461,3,0.0,same
0,500,invalid_adjacent_other_bar,"[(1153, 782)]",[],[1],[0.85],horizontal,"(890.0, 762.0)",0.9166666666666666,nan,0,8361.462,0,0.0,other
0,501,valid,"[(1085, 786)]",[],[1],[0.85],vertical,"(390.0, 262.0)",1.0166666666666666,nan,0,8366.497,0,0.0,same
0,502,valid,"[(1088, 816)]",[],[1],[0.5333333333333333],vertical,"(890.0, 262.0)",1.2833333333333332,0.497,1,8371.346,1,0.0,same
0,503,invalid_adjacent_other_bar,"[(1159, 779)]",[],[1],[0.5333333333333333],horizontal,"(390.0, 262.0)",1.35,0.492,1,8376.513,1,0.0,other
0,504,catch,"[(1161, 825)]",[],[1],[],vertical,"(390.0, 262.0)",1.7,nan,1,8381.967,1,0.0,same
0,505,valid,"[(1154, 830)]",[],[1],[0.5166666666666666],vertical,"(890.0, 762.0)",0.5833333333333334,0.481,1,8387.296,2,0.0,same
0,506,invalid_adjacent_other_bar,"[(1160, 799)]",[],[1],[0.55],vertical,"(890.0, 262.0)",0.6333333333333333,0.512,1,8392.105,2,0.0,other
0,507,valid,"[(1126, 799)]",[],[1],[0.7166666666666667],vertical,"(390.0, 762.0)",0.9833333333333333,0.67,1,8397.013,2,0.0,same
0,508,valid,"[(1143, 795)]",[],[1],[0.5333333333333333],horizontal,"(890.0, 262.0)",1.5166666666666666,0.492,1,8403.064,3,0.0,same
0,509,valid,"[(1154, 760)]",[],[1],[0.6166666666666667],vertical,"(390.0, 762.0)",1.3166666666666667,0.576,1,8409.791,3,0.0,same
0,510,catch,"[(1157, 795)]",[],[1],[],vertical,"(890.0, 762.0)",1.7,nan,1,8416.153,3,0.0,same
0,511,valid,"[(1137, 786)]",[],[1],[0.5666666666666667],vertical,"(890.0, 262.0)",0.8333333333333334,0.524,1,8421.925,3,0.0,same
0,512,valid,"[(1164, 814)]",[],[1],[0.5166666666666666],vertical,"(390.0, 262.0)",0.8166666666666667,0.473,1,8427.643,3,0.0,same
0,513,valid,"[(1122, 795)]",[],[1],[0.55],vertical,"(890.0, 762.0)",1.5,0.512,1,8433.258,3,0.0,same
0,514,valid,"[(1131, 796)]",[],[1],[0.6333333333333333],horizontal,"(390.0, 262.0)",0.65,0.589,1,8439.464,3,0.0,same
0,515,catch,"[(1161, 798)]",[],[1],[],horizontal,"(390.0, 262.0)",1.7,nan,1,8445.498,3,0.0,same
0,516,catch,"[(1162, 791)]",[],[1],[],horizontal,"(390.0, 262.0)",1.7,nan,1,8451.28,3,0.0,same
0,517,catch,"[(1160, 801)]",[],[1],[],vertical,"(390.0, 762.0)",1.7,nan,1,8457.531,3,0.0,same
0,518,invalid_adjacent_other_bar,"[(1136, 791)]",[],[1],[0.6333333333333333],horizontal,"(890.0, 762.0)",1.5333333333333332,0.594,1,8463.349,3,0.0,other
0,519,valid,"[(1160, 795)]",[],[1],[0.6166666666666667],vertical,"(890.0, 762.0)",0.35,0.57,1,8469.613,3,0.0,same
0,520,valid,"[(1170, 807)]",[],[1],[0.5166666666666666],vertical,"(390.0, 762.0)",1.2,0.479,1,8475.448,3,0.0,same
0,521,valid,"[(1164, 791)]",[],[1],[0.5333333333333333],horizontal,"(390.0, 762.0)",1.0166666666666666,0.495,1,8481.016,3,0.0,same
0,522,valid,"[(1131, 806)]",[],[1],[0.5166666666666666],vertical,"(890.0, 762.0)",1.4166666666666667,0.478,1,8487.046,3,0.0,same
0,523,valid,"[(1131, 779)]",[],[1],[0.7],vertical,"(390.0, 262.0)",0.8666666666666667,0.656,1,8493.62,3,0.0,same
0,524,invalid_adjacent_other_bar,"[(1161, 802)]",[],[1],[0.6666666666666666],vertical,"(390.0, 762.0)",1.2833333333333332,0.63,1,8499.71,3,0.0,other
0,525,valid,"[(1126, 795)]",[],[1],[0.5666666666666667],vertical,"(890.0, 262.0)",0.3833333333333333,0.527,1,8506.168,3,0.0,same
0,526,catch,"[(1157, 796)]",[],[1],[],vertical,"(390.0, 262.0)",1.7,nan,1,8511.297,3,0.0,same
0,527,invalid_same_bar,"[(1136, 808)]",[],[1],[0.55],horizontal,"(890.0, 762.0)",0.6333333333333333,0.503,1,8517.143,3,0.0,same
0,528,catch,"[(1160, 805)]",[],[1],[],vertical,"(890.0, 762.0)",1.7,nan,1,8522.43,3,0.0,same
0,529,catch,"[(1131, 806)]",[],[1],[],vertical,"(890.0, 762.0)",1.7,nan,1,8528.313,3,0.0,same
0,530,valid,"[(1160, 790)]",[],[1],[0.5166666666666666],vertical,"(890.0, 262.0)",0.6666666666666666,0.474,1,8534.804,3,0.0,same
0,531,valid,"[(1158, 786)]",[],[1],[0.4666666666666667],horizontal,"(890.0, 262.0)",1.05,0.43,1,8540.531,3,0.0,same
0,532,valid,"[(1161, 809)]",[],[1],[0.85],vertical,"(390.0, 762.0)",0.4166666666666667,nan,0,8546.495,0,0.0,same
0,533,invalid_same_bar,"[(1089, 871)]",[],[1],[0.4666666666666667],horizontal,"(390.0, 262.0)",1.2833333333333332,0.425,1,8550.805,1,0.0,same
0,534,catch,"[(1127, 779)]",[],[1],[],vertical,"(890.0, 262.0)",1.7,nan,1,8594.048,1,0.0,same
0,535,valid,"[(1131, 803)]",[],[1],[0.6333333333333333],horizontal,"(390.0, 762.0)",1.4166666666666667,0.591,1,8599.927,1,0.0,same
0,536,valid,"[(1121, 821)]",[],[1],[0.55],horizontal,"(390.0, 762.0)",1.25,0.508,1,8605.33,2,0.0,same
0,537,valid,"[(1175, 781)]",[],[1],[0.6166666666666667],horizontal,"(390.0, 762.0)",0.5166666666666666,0.589,1,8611.265,2,0.0,same
0,538,invalid_adjacent_other_bar,"[(1168, 785)]",[],[1],[0.5666666666666667],vertical,"(890.0, 262.0)",1.5,0.533,1,8616.092,2,0.0,other
0,539,valid,"[(1167, 794)]",[],[1],[0.5],horizontal,"(890.0, 762.0)",1.2833333333333332,0.459,1,8622.447,3,0.0,same
0,540,valid,"[(1158, 788)]",[],[1],[0.5666666666666667],vertical,"(390.0, 762.0)",1.2333333333333334,0.534,1,8629.18,3,0.0,same
0,541,valid,"[(1165, 776)]",[],[1],[0.5166666666666666],horizontal,"(890.0, 762.0)",0.9666666666666667,0.478,1,8635.615,3,0.0,same
0,542,catch,"[(1175, 792)]",[],[1],[],vertical,"(390.0, 262.0)",1.7,nan,1,8641.23,3,0.0,same
0,543,catch,"[(1171, 807)]",[],[1],[],horizontal,"(890.0, 762.0)",1.7,nan,1,8647.381,3,0.0,same
0,544,catch,"[(1165, 795)]",[],[1],[],vertical,"(390.0, 762.0)",1.7,nan,1,8653.114,3,0.0,same
0,545,valid,"[(1175, 789)]",[],[1],[0.5333333333333333],vertical,"(390.0, 762.0)",0.75,0.495,1,8659.197,3,0.0,same
0,546,valid,"[(1170, 795)]",[],[1],[0.5333333333333333],vertical,"(390.0, 262.0)",0.85,0.493,1,8664.473,3,0.0,same
0,547,valid,"[(1169, 790)]",[],[1],[0.6833333333333333],horizontal,"(390.0, 262.0)",0.6833333333333333,0.643,1,8669.955,3,0.0,same
0,548,catch,"[(1165, 791)]",[],[1],[],horizontal,"(390.0, 762.0)",1.7,nan,1,8676.02,3,0.0,same
0,549,valid,"[(1165, 808)]",[],[1],[0.85],horizontal,"(390.0, 262.0)",1.5333333333333332,nan,0,8682.001,0,0.0,same
0,550,invalid_adjacent_other_bar,"[(1151, 800)]",[],[1],[0.55],horizontal,"(390.0, 762.0)",1.1666666666666667,0.512,1,8687.173,1,0.0,other
0,551,valid,"[(1131, 790)]",[],[1],[0.85],vertical,"(390.0, 762.0)",0.9166666666666666,nan,0,8692.599,0,0.0,same
0,552,catch,"[(1131, 820)]",[],[1],[],horizontal,"(390.0, 762.0)",,"('cti', 0.558),nan",0,8697.647,0,0.02,same
0,553,valid,"[(1132, 791)]",[],[1],[0.48333333333333334],horizontal,"(390.0, 762.0)",1.45,0.444,1,8701.514,1,0.02,same
0,554,invalid_adjacent_other_bar,"[(1168, 778)]",[],[1],[0.5166666666666666],vertical,"(890.0, 762.0)",0.55,0.474,1,8707.164,1,0.02,other
0,555,valid,"[(1114, 782)]",[],[1],[0.5666666666666667],horizontal,"(890.0, 762.0)",1.3,0.523,1,8711.58,1,0.02,same
0,556,valid,"[(1131, 806)]",[],[1],[0.5166666666666666],vertical,"(390.0, 762.0)",0.6333333333333333,0.476,1,8717.492,2,0.02,same
0,557,catch,"[(1126, 822)]",[],[1],[],vertical,"(390.0, 262.0)",,"('cti', 0.508),nan",0,8723.012,0,0.04,same
0,558,valid,"[(1092, 832)]",[],[1],[0.5333333333333333],horizontal,"(390.0, 262.0)",1.15,0.505,1,8726.948,1,0.04,same
0,559,catch,"[(1165, 806)]",[],[1],[],horizontal,"(890.0, 262.0)",1.7,nan,1,8735.822,1,0.04,same
0,560,valid,"[(1156, 787)]",[],[1],[0.3333333333333333],horizontal,"(890.0, 262.0)",0.8833333333333333,0.297,1,8740.898,1,0.04,same
0,561,valid,"[(1152, 786)]",[],[1],[0.48333333333333334],horizontal,"(890.0, 262.0)",1.05,0.447,1,8745.765,2,0.04,same
0,562,catch,"[(1156, 760)]",[],[1],[],vertical,"(390.0, 762.0)",1.7,nan,1,8751.164,2,0.04,same
0,563,catch,"[(1166, 795)]",[],[1],[],horizontal,"(390.0, 762.0)",1.7,nan,1,8756.669,2,0.04,same
0,564,catch,"[(1147, 785)]",[],[1],[],vertical,"(390.0, 262.0)",1.7,nan,1,8762.063,3,0.04,same
0,565,catch,"[(1163, 790)]",[],[1],[],vertical,"(890.0, 262.0)",1.7,nan,1,8768.069,3,0.04,same
0,566,invalid_same_bar,"[(1179, 800)]",[],[1],[0.85],vertical,"(390.0, 262.0)",1.05,nan,0,8773.733,0,0.04,same
0,567,invalid_adjacent_other_bar,"[(1134, 805)]",[],[1],[0.48333333333333334],vertical,"(890.0, 262.0)",1.05,0.442,1,8778.475,1,0.04,other
0,568,valid,"[(1175, 809)]",[],[1],[0.55],horizontal,"(890.0, 262.0)",0.85,0.508,1,8783.565,1,0.04,same
0,569,valid,"[(1168, 790)]",[],[1],[0.5833333333333334],vertical,"(390.0, 762.0)",1.05,0.55,1,8788.741,1,0.04,same
0,570,valid,"[(1154, 798)]",[],[1],[0.5333333333333333],vertical,"(890.0, 762.0)",1.4,0.491,1,8794.131,2,0.04,same
0,571,catch,"[(1137, 795)]",[],[1],[],horizontal,"(890.0, 262.0)",1.7,nan,1,8800.232,2,0.04,same
0,572,valid,"[(1136, 810)]",[],[1],[],vertical,"(390.0, 762.0)",,"('cti', 0.524)",0,8805.514,0,0.04,same
0,573,valid,"[(1135, 796)]",[],[1],[0.5166666666666666],horizontal,"(390.0, 262.0)",0.48333333333333334,0.485,1,8809.214,1,0.04,same
0,574,valid,"[(1175, 770)]",[],[1],[0.6666666666666666],vertical,"(390.0, 262.0)",1.0,0.622,1,8813.834,1,0.04,same
0,575,valid,"[(1162, 778)]",[],[1],[0.1],vertical,"(890.0, 262.0)",1.3833333333333333,0.07,0,8819.064,0,0.04,same
0,576,valid,"[(1105, 816)]",[],[1],[0.5166666666666666],horizontal,"(890.0, 762.0)",0.8666666666666667,0.482,1,8823.632,1,0.04,same
0,577,catch,"[(1146, 801)]",[],[1],[],horizontal,"(390.0, 262.0)",1.7,nan,1,8828.316,1,0.04,same
0,578,catch,"[(1157, 800)]",[],[1],[],horizontal,"(890.0, 262.0)",1.7,nan,1,8833.43,1,0.04,same
0,579,catch,"[(1151, 802)]",[],[1],[],horizontal,"(390.0, 262.0)",1.7,nan,1,8838.865,2,0.04,same
0,580,valid,"[(1168, 796)]",[],[1],[0.4666666666666667],vertical,"(890.0, 262.0)",1.45,0.428,1,8845.097,2,0.04,same
0,581,valid,"[(1130, 783)]",[],[1],[0.6],horizontal,"(390.0, 762.0)",1.4,0.559,1,8850.798,2,0.04,same
0,582,invalid_adjacent_other_bar,"[(1131, 813)]",[],[1],[0.85],horizontal,"(890.0, 762.0)",0.8833333333333333,nan,0,8857.046,0,0.04,other
0,583,valid,"[(1136, 808)]",[],[1],[0.5833333333333334],horizontal,"(390.0, 262.0)",0.8666666666666667,0.549,1,8862.149,1,0.04,same
0,584,catch,"[(1147, 795)]",[],[1],[],vertical,"(390.0, 762.0)",1.7,nan,1,8866.858,1,0.04,same
0,585,invalid_same_bar,"[(1160, 783)]",[],[1],[0.5],horizontal,"(890.0, 262.0)",1.4166666666666667,0.46,1,8872.246,1,0.04,same
0,586,valid,"[(1161, 798)]",[],[1],[0.5666666666666667],horizontal,"(390.0, 762.0)",1.05,0.53,1,8877.735,2,0.04,same
0,587,valid,"[(1132, 794)]",[],[1],[0.5333333333333333],horizontal,"(390.0, 762.0)",0.7833333333333333,0.491,1,8883.365,2,0.04,same
0,588,valid,"[(1168, 794)]",[],[1],[0.5333333333333333],horizontal,"(890.0, 262.0)",1.1666666666666667,0.498,1,8888.363,2,0.04,same
0,589,valid,"[(1160, 778)]",[],[1],[0.6166666666666667],horizontal,"(890.0, 762.0)",1.25,0.577,1,8893.815,3,0.04,same
0,590,invalid_same_bar,"[(1175, 807)]",[],[1],[0.55],vertical,"(890.0, 762.0)",0.7,0.512,1,8900.061,3,0.04,same
0,591,valid,"[(1162, 784)]",[],[1],[0.5666666666666667],vertical,"(390.0, 262.0)",0.45,0.526,1,8905.481,3,0.04,same
0,592,valid,"[(1161, 795)]",[],[1],[0.5],horizontal,"(890.0, 762.0)",1.2666666666666666,0.468,1,8910.738,3,0.04,same
0,593,invalid_adjacent_other_bar,"[(1171, 792)]",[],[1],[0.6],vertical,"(890.0, 262.0)",0.7333333333333333,0.556,1,8916.627,3,0.04,other
0,594,valid,"[(1173, 794)]",[],[1],[0.5166666666666666],horizontal,"(390.0, 762.0)",0.5333333333333333,0.479,1,8922.531,3,0.04,same
0,595,valid,"[(1167, 786)]",[],[1],[0.85],horizontal,"(890.0, 762.0)",0.5166666666666666,nan,0,8928.114,0,0.04,same
0,596,catch,"[(1138, 795)]",[],[1],[],vertical,"(390.0, 762.0)",1.7,nan,1,8932.833,1,0.04,same
0,597,valid,"[(1169, 772)]",[],[1],[0.5333333333333333],horizontal,"(890.0, 262.0)",1.3166666666666667,0.49,1,8938.102,1,0.04,same
0,598,valid,"[(1169, 791)]",[],[1],[0.55],vertical,"(890.0, 262.0)",0.3833333333333333,0.507,1,8943.473,1,0.04,same
0,599,catch,"[(1136, 774)]",[],[1],[],horizontal,"(390.0, 762.0)",1.7,nan,1,8947.882,2,0.04,same
0,600,valid,"[(1152, 779)]",[],[1],[0.5833333333333334],vertical,"(890.0, 262.0)",1.3833333333333333,0.539,1,8953.798,2,0.04,same
0,601,valid,"[(1139, 812)]",[],[1],[0.5333333333333333],horizontal,"(890.0, 762.0)",1.1,0.494,1,8959.949,2,0.04,same
0,602,valid,"[(1125, 828)]",[],[1],[0.5166666666666666],vertical,"(890.0, 262.0)",0.6,0.476,1,8965.731,3,0.02,same
0,603,valid,"[(1170, 783)]",[],[1],[0.5],horizontal,"(390.0, 262.0)",1.1333333333333333,0.472,1,8971.332,3,0.02,same
0,604,catch,"[(1131, 798)]",[],[1],[],vertical,"(890.0, 762.0)",1.7,nan,1,8976.869,3,0.02,same
0,605,valid,"[(1148, 812)]",[],[1],[0.85],horizontal,"(390.0, 762.0)",1.2666666666666666,nan,0,8983.208,0,0.02,same
0,606,invalid_same_bar,"[(1136, 800)]",[],[1],[0.5666666666666667],horizontal,"(890.0, 262.0)",1.1666666666666667,0.525,1,8988.221,1,0.02,same
0,607,valid,"[(1161, 804)]",[],[1],[0.6333333333333333],vertical,"(890.0, 762.0)",0.8833333333333333,0.593,1,8993.383,1,0.0,same
0,608,valid,"[(1169, 781)]",[],[1],[0.6333333333333333],horizontal,"(390.0, 262.0)",1.1666666666666667,0.589,1,8998.332,1,0.0,same
0,609,valid,"[(1166, 803)]",[],[1],[0.5166666666666666],vertical,"(890.0, 262.0)",1.4666666666666666,0.473,1,9003.592,2,0.0,same
0,610,valid,"[(1161, 785)]",[],[1],[0.5166666666666666],vertical,"(390.0, 262.0)",1.3166666666666667,0.481,1,9009.616,2,0.0,same
0,611,valid,"[(1159, 809)]",[],[1],[0.5333333333333333],horizontal,"(890.0, 262.0)",0.8666666666666667,0.491,1,9015.124,2,0.0,same
0,612,valid,"[(1136, 820)]",[],[1],[0.6666666666666666],horizontal,"(390.0, 262.0)",1.1,0.629,1,9020.5,3,0.0,same
0,613,valid,"[(1165, 801)]",[],[1],[0.5],vertical,"(390.0, 262.0)",0.5166666666666666,0.466,1,9026.865,3,0.0,same
0,614,valid,"[(1144, 794)]",[],[1],[0.85],horizontal,"(390.0, 262.0)",1.2666666666666666,nan,0,9032.083,0,0.0,same
0,615,catch,"[(1121, 790)]",[],[1],[],vertical,"(390.0, 262.0)",1.7,nan,1,9037.549,1,0.0,same
0,616,valid,"[(1165, 794)]",[],[1],[0.5333333333333333],vertical,"(890.0, 762.0)",0.36666666666666664,0.496,1,9042.747,1,0.0,same
0,617,catch,"[(1156, 786)]",[],[1],[],vertical,"(390.0, 262.0)",1.7,nan,1,9047.532,1,0.0,same
0,618,valid,"[(1138, 821)]",[],[1],[0.5333333333333333],horizontal,"(390.0, 262.0)",1.05,0.498,1,9052.475,2,0.0,same
0,619,valid,"[(1131, 780)]",[],[1],[0.5833333333333334],horizontal,"(390.0, 762.0)",1.2166666666666666,0.542,1,9057.647,2,0.0,same
0,620,valid,"[(1151, 786)]",[],[1],[0.5333333333333333],vertical,"(890.0, 762.0)",1.2666666666666666,0.495,1,9062.933,2,0.0,same
0,621,valid,"[(1157, 787)]",[],[1],[0.5666666666666667],vertical,"(390.0, 262.0)",0.5,0.525,1,9068.525,3,0.0,same
0,622,valid,"[(1159, 785)]",[],[1],[0.5166666666666666],vertical,"(390.0, 262.0)",0.5,0.483,1,9074.116,3,0.0,same
0,623,valid,"[(1142, 786)]",[],[1],[0.5333333333333333],horizontal,"(390.0, 262.0)",0.9666666666666667,0.499,1,9079.53,3,0.0,same
0,624,valid,"[(1142, 762)]",[],[1],[0.5333333333333333],vertical,"(890.0, 762.0)",1.2666666666666666,0.507,1,9085.176,3,0.0,same
0,625,valid,"[(1159, 797)]",[],[1],[0.5333333333333333],horizontal,"(390.0, 262.0)",0.8833333333333333,0.506,1,9091.362,3,0.0,same
0,626,valid,"[(1156, 794)]",[],[1],[0.65],vertical,"(390.0, 262.0)",1.2666666666666666,0.607,1,9096.955,3,0.0,same
0,627,catch,"[(1156, 783)]",[],[1],[],horizontal,"(890.0, 762.0)",1.7,nan,1,9103.319,3,0.0,same
0,628,valid,"[(1156, 782)]",[],[1],[0.5666666666666667],horizontal,"(390.0, 262.0)",1.3166666666666667,0.525,1,9109.116,3,0.0,same
0,629,valid,"[(1161, 788)]",[],[1],[0.85],vertical,"(890.0, 762.0)",0.6333333333333333,nan,0,9115.67,0,0.0,same
0,630,valid,"[(1116, 803)]",[],[1],[0.8],horizontal,"(890.0, 762.0)",0.8833333333333333,0.761,1,9119.918,1,0.0,same
0,631,valid,"[(1168, 810)]",[],[1],[0.65],horizontal,"(390.0, 762.0)",0.7,0.621,1,9125.347,1,0.0,same
0,632,catch,"[(1160, 793)]",[],[1],[],horizontal,"(390.0, 262.0)",1.7,nan,1,9130.746,1,0.0,same
0,633,valid,"[(1165, 806)]",[],[1],[0.5166666666666666],horizontal,"(390.0, 762.0)",0.5,0.487,1,9136.197,2,0.0,same
0,634,catch,"[(1165, 797)]",[],[1],[],vertical,"(890.0, 762.0)",1.7,nan,1,9141.414,2,0.0,same
0,635,valid,"[(1159, 780)]",[],[1],[0.5166666666666666],horizontal,"(390.0, 262.0)",0.7333333333333333,0.491,1,9147.132,2,0.0,same
0,636,catch,"[(1134, 794)]",[],[1],[],vertical,"(390.0, 762.0)",1.7,nan,1,9152.64,3,0.0,same
0,637,valid,"[(1165, 759)]",[],[1],[0.6333333333333333],vertical,"(890.0, 262.0)",0.9333333333333333,0.594,1,9158.583,3,0.0,same
0,638,invalid_adjacent_other_bar,"[(1156, 789)]",[],[1],[0.5333333333333333],horizontal,"(390.0, 262.0)",0.9333333333333333,0.497,1,9164.365,3,0.0,other
0,639,valid,"[(1156, 806)]",[],[1],[0.6],horizontal,"(890.0, 762.0)",0.6833333333333333,0.56,1,9170.094,3,0.0,same
0,640,invalid_adjacent_other_bar,"[(1167, 795)]",[],[1],[0.55],horizontal,"(890.0, 762.0)",1.25,0.505,1,9175.815,3,0.0,other
0,641,catch,"[(1146, 812)]",[],[1],[],vertical,"(890.0, 262.0)",1.7,nan,1,9181.541,3,0.0,same
0,642,valid,"[(1167, 797)]",[],[1],[0.5833333333333334],horizontal,"(890.0, 762.0)",0.5666666666666667,0.541,1,9187.349,3,0.0,same
0,643,valid,"[(1162, 817)]",[],[1],[0.5],vertical,"(890.0, 262.0)",1.2833333333333332,0.459,1,9192.649,3,0.0,same
0,644,catch,"[(1165, 785)]",[],[1],[],horizontal,"(390.0, 762.0)",1.7,nan,1,9198.848,3,0.0,same
0,645,valid,"[(1166, 812)]",[],[1],[0.55],vertical,"(390.0, 762.0)",1.5,0.507,1,9205.282,3,0.0,same
0,646,valid,"[(1165, 793)]",[],[1],[0.5333333333333333],horizontal,"(890.0, 762.0)",1.0,0.495,1,9212.045,3,0.0,same
0,647,catch,"[(1130, 781)]",[],[1],[],vertical,"(390.0, 262.0)",1.7,nan,1,9218.067,3,0.0,same
0,648,valid,"[(1164, 787)]",[],[1],[0.5166666666666666],horizontal,"(890.0, 762.0)",1.45,0.475,1,9224.067,3,0.0,same
0,649,valid,"[(1165, 798)]",[],[1],[0.5],vertical,"(890.0, 262.0)",0.85,0.462,1,9230.633,3,0.0,same
0,650,valid,"[(1157, 786)]",[],[1],[0.55],horizontal,"(890.0, 762.0)",0.3833333333333333,0.511,1,9236.317,3,0.0,same
0,651,valid,"[(1156, 811)]",[],[1],[0.85],horizontal,"(390.0, 762.0)",0.55,nan,0,9241.8,0,0.0,same
0,652,catch,"[(1143, 811)]",[],[1],[],vertical,"(390.0, 762.0)",1.7,nan,1,9246.349,1,0.0,same
0,653,invalid_adjacent_other_bar,"[(1156, 810)]",[],[1],[0.5666666666666667],horizontal,"(390.0, 762.0)",0.8,0.535,1,9251.462,1,0.0,other
0,654,invalid_adjacent_other_bar,"[(1121, 781)]",[],[1],[0.85],vertical,"(890.0, 762.0)",1.1,nan,0,9256.017,0,0.0,other
0,655,valid,"[(1138, 798)]",[],[1],[0.5333333333333333],vertical,"(390.0, 762.0)",0.9833333333333333,0.498,1,9260.831,1,0.0,same
0,656,catch,"[(1144, 781)]",[],[1],[],horizontal,"(390.0, 762.0)",1.7,nan,1,9265.744,1,0.0,same
0,657,catch,"[(1166, 801)]",[],[1],[],horizontal,"(390.0, 262.0)",1.7,nan,1,9270.8,1,0.0,same
0,658,valid,"[(1164, 790)]",[],[1],[0.5333333333333333],horizontal,"(390.0, 762.0)",1.2833333333333332,0.487,1,9276.067,2,0.0,same
0,659,valid,"[(1162, 784)]",[],[1],[0.5166666666666666],vertical,"(390.0, 262.0)",0.3833333333333333,0.476,1,9282.184,2,0.0,same
0,660,valid,"[(1131, 792)]",[],[1],[0.6],horizontal,"(890.0, 262.0)",1.4166666666666667,0.559,1,9287.316,2,0.0,same
0,661,valid,"[(1162, 803)]",[],[1],[0.5166666666666666],vertical,"(890.0, 762.0)",1.0666666666666667,0.478,1,9293.398,3,0.0,same
0,662,valid,"[(1126, 778)]",[],[1],[0.65],horizontal,"(390.0, 262.0)",0.4666666666666667,0.61,1,9299.384,3,0.0,same
0,663,valid,"[(1161, 794)]",[],[1],[0.6],vertical,"(890.0, 762.0)",0.95,0.559,1,9304.9,3,0.0,same
0,664,valid,"[(1157, 794)]",[],[1],[0.4666666666666667],horizontal,"(390.0, 262.0)",1.5166666666666666,0.428,1,9310.517,3,0.0,same
0,665,catch,"[(1153, 786)]",[],[1],[],horizontal,"(390.0, 762.0)",1.7,nan,1,9317.036,3,0.0,same
0,666,valid,"[(1160, 790)]",[],[1],[0.5666666666666667],horizontal,"(890.0, 262.0)",0.5,0.529,1,9323.316,3,0.0,same
0,667,valid,"[(1162, 785)]",[],[1],[0.6833333333333333],horizontal,"(390.0, 262.0)",1.0666666666666667,0.643,1,9329.064,3,0.0,same
0,668,valid,"[(1158, 787)]",[],[1],[0.5333333333333333],horizontal,"(890.0, 762.0)",0.9833333333333333,0.493,1,9334.767,3,0.0,same
0,669,valid,"[(1134, 790)]",[],[1],[0.7166666666666667],horizontal,"(890.0, 262.0)",1.1666666666666667,0.669,1,9341.034,3,0.0,same
0,670,valid,"[(1163, 795)]",[],[1],[0.6833333333333333],horizontal,"(390.0, 762.0)",1.25,0.641,1,9347.516,3,0.0,same
0,671,catch,"[(1160, 797)]",[],[1],[],vertical,"(390.0, 262.0)",1.7,nan,1,9353.839,3,0.0,same
0,672,valid,"[(1131, 801)]",[],[1],[0.7166666666666667],horizontal,"(890.0, 762.0)",1.2333333333333334,0.68,1,9359.885,3,0.0,same
0,673,invalid_adjacent_other_bar,"[(1158, 796)]",[],[1],[0.6166666666666667],horizontal,"(390.0, 262.0)",0.6666666666666666,0.575,1,9366.615,3,0.0,other
0,674,catch,"[(1150, 795)]",[],[1],[],horizontal,"(390.0, 762.0)",1.7,nan,1,9372.201,3,0.0,same
0,675,catch,"[(1158, 795)]",[],[1],[],vertical,"(890.0, 262.0)",1.7,nan,1,9378.067,3,0.0,same
0,676,valid,"[(1161, 782)]",[],[1],[0.55],vertical,"(390.0, 262.0)",1.1333333333333333,0.51,1,9384.251,3,0.0,same
0,677,valid,"[(1158, 782)]",[],[1],[0.55],horizontal,"(390.0, 262.0)",1.3,0.51,1,9389.955,3,0.0,same
0,678,valid,"[(1133, 783)]",[],[1],[0.5333333333333333],horizontal,"(890.0, 762.0)",0.8666666666666667,0.497,1,9395.899,3,0.0,same
0,679,invalid_adjacent_other_bar,"[(1126, 790)]",[],[1],[0.5333333333333333],vertical,"(390.0, 262.0)",0.7833333333333333,0.49,1,9401.817,3,0.0,other
0,680,catch,"[(1132, 806)]",[],[1],[],vertical,"(390.0, 762.0)",1.7,nan,1,9407.696,3,0.0,same
0,681,invalid_same_bar,"[(1132, 785)]",[],[1],[0.7666666666666666],horizontal,"(390.0, 262.0)",1.4,0.721,1,9413.437,3,0.0,same
0,682,catch,"[(1165, 801)]",[],[1],[],vertical,"(890.0, 262.0)",1.7,nan,1,9419.77,3,0.0,same
0,683,catch,"[(1159, 772)]",[],[1],[],horizontal,"(390.0, 262.0)",1.7,nan,1,9425.632,3,0.0,same
0,684,valid,"[(1107, 806)]",[],[1],[0.75],horizontal,"(890.0, 262.0)",1.3833333333333333,0.708,1,9431.689,3,0.0,same
0,685,invalid_same_bar,"[(1163, 772)]",[],[1],[0.85],vertical,"(390.0, 762.0)",0.4666666666666667,nan,0,9438.213,0,0.0,same
0,686,valid,"[(1086, 844)]",[],[1],[0.5],horizontal,"(390.0, 262.0)",1.35,0.458,1,9442.601,1,0.0,same
0,687,catch,"[(1156, 824)]",[],[1],[],horizontal,"(390.0, 262.0)",1.7,nan,1,9473.651,1,0.0,same
0,688,catch,"[(1166, 816)]",[],[1],[],horizontal,"(890.0, 762.0)",1.7,nan,1,9479.17,1,0.0,same
0,689,valid,"[(1134, 808)]",[],[1],[0.5333333333333333],vertical,"(890.0, 762.0)",0.6,0.493,1,9484.537,2,0.0,same
0,690,catch,"[(1160, 806)]",[],[1],[],horizontal,"(390.0, 262.0)",1.7,nan,1,9489.884,2,0.0,same
0,691,catch,"[(1151, 790)]",[],[1],[],horizontal,"(390.0, 262.0)",1.7,nan,1,9495.368,2,0.0,same
0,692,catch,"[(1151, 796)]",[],[1],[],vertical,"(890.0, 262.0)",1.7,nan,1,9501.068,3,0.0,same
0,693,catch,"[(1157, 788)]",[],[1],[],horizontal,"(390.0, 762.0)",1.7,nan,1,9507.317,3,0.0,same
0,694,valid,"[(1160, 780)]",[],[1],[0.6333333333333333],horizontal,"(890.0, 262.0)",1.4166666666666667,0.594,1,9513.061,3,0.0,same
0,695,valid,"[(1132, 816)]",[],[1],[0.55],horizontal,"(890.0, 762.0)",0.5166666666666666,0.505,1,9519.671,3,0.0,same
0,696,catch,"[(1137, 792)]",[],[1],[],vertical,"(390.0, 262.0)",1.7,nan,1,9525.369,3,0.0,same
0,697,valid,"[(1159, 765)]",[],[1],[0.55],vertical,"(890.0, 762.0)",0.5166666666666666,0.513,1,9531.527,3,0.0,same
0,698,valid,"[(1132, 763)]",[],[1],[0.5166666666666666],vertical,"(390.0, 262.0)",0.9666666666666667,0.48,1,9536.855,3,0.0,same
0,699,valid,"[(1131, 768)]",[],[1],[0.85],vertical,"(890.0, 762.0)",0.9,nan,0,9542.375,0,0.0,same
0,700,catch,"[(1088, 809)]",[],[1],[],vertical,"(890.0, 762.0)",1.7,nan,1,9547.5,1,0.0,same
0,701,valid,"[(1159, 810)]",[],[1],[0.6166666666666667],vertical,"(390.0, 262.0)",0.9,0.575,1,9552.815,1,0.0,same
0,702,invalid_adjacent_other_bar,"[(1165, 785)]",[],[1],[0.5666666666666667],horizontal,"(890.0, 762.0)",0.95,0.522,1,9558.144,1,0.0,other
0,703,valid,"[(1160, 766)]",[],[1],[0.5666666666666667],horizontal,"(890.0, 762.0)",1.45,0.519,1,9562.817,2,0.0,same
0,704,catch,"[(1159, 790)]",[],[1],[],horizontal,"(890.0, 262.0)",,"('cti', 1.581),nan",0,9568.818,0,0.02,same
0,705,catch,"[(1126, 797)]",[],[1],[],horizontal,"(390.0, 762.0)",1.7,nan,1,9573.725,1,0.02,same
0,706,invalid_same_bar,"[(1136, 810)]",[],[1],[0.6333333333333333],vertical,"(890.0, 762.0)",0.36666666666666664,0.584,1,9579.118,1,0.02,same
0,707,valid,"[(1165, 801)]",[],[1],[0.65],horizontal,"(390.0, 762.0)",0.7166666666666667,0.607,1,9583.83,1,0.02,same
0,708,catch,"[(1159, 791)]",[],[1],[],horizontal,"(890.0, 262.0)",1.7,nan,1,9588.317,2,0.02,same
0,709,catch,"[(1165, 808)]",[],[1],[],vertical,"(890.0, 262.0)",1.7,nan,1,9594.079,2,0.02,same
0,710,invalid_adjacent_other_bar,"[(1151, 787)]",[],[1],[0.55],vertical,"(890.0, 262.0)",0.4166666666666667,0.505,1,9599.951,2,0.02,other
0,711,valid,"[(1111, 781)]",[],[1],[0.55],vertical,"(890.0, 262.0)",0.3833333333333333,0.51,1,9604.685,3,0.02,same
0,712,valid,"[(1160, 791)]",[],[1],[0.85],vertical,"(390.0, 762.0)",0.3833333333333333,nan,0,9610.167,0,0.02,same
0,713,valid,"[(1122, 811)]",[],[1],[0.5166666666666666],horizontal,"(890.0, 262.0)",0.3833333333333333,0.476,1,9614.062,1,0.02,same
0,714,valid,"[(1159, 777)]",[],[1],[0.5333333333333333],vertical,"(390.0, 262.0)",1.0666666666666667,0.491,1,9618.673,1,0.02,same
0,715,catch,"[(1162, 785)]",[],[1],[],vertical,"(390.0, 262.0)",1.7,nan,1,9623.684,1,0.02,same
0,716,valid,"[(1142, 796)]",[],[1],[0.6],horizontal,"(890.0, 762.0)",1.5166666666666666,0.557,1,9629.385,2,0.02,same
0,717,valid,"[(1159, 799)]",[],[1],[0.85],vertical,"(890.0, 762.0)",0.43333333333333335,nan,0,9635.639,0,0.02,same
0,718,valid,"[(1112, 792)]",[],[1],[0.5333333333333333],vertical,"(390.0, 262.0)",0.8833333333333333,0.494,1,9639.868,1,0.02,same
0,719,valid,"[(1150, 800)]",[],[1],[0.55],vertical,"(890.0, 262.0)",0.5666666666666667,0.506,1,9644.386,1,0.02,same
0,720,valid,"[(1131, 766)]",[],[1],[0.55],horizontal,"(390.0, 762.0)",1.4,0.51,1,9648.98,1,0.02,same
0,721,catch,"[(1134, 811)]",[],[1],[],vertical,"(890.0, 762.0)",1.7,nan,1,9654.486,2,0.02,same
0,722,invalid_adjacent_other_bar,"[(1160, 763)]",[],[1],[0.55],vertical,"(390.0, 262.0)",1.5166666666666666,0.505,1,9660.383,2,0.02,other
0,723,valid,"[(1165, 781)]",[],[1],[0.7833333333333333],vertical,"(390.0, 262.0)",1.3333333333333333,0.735,1,9665.938,2,0.02,same
0,724,catch,"[(1131, 766)]",[],[1],[],vertical,"(390.0, 762.0)",1.7,nan,1,9671.785,3,0.02,same
0,725,invalid_same_bar,"[(1136, 765)]",[],[1],[0.65],vertical,"(390.0, 262.0)",1.4,0.611,1,9677.907,3,0.02,same
0,726,valid,"[(1132, 772)]",[],[1],[0.5333333333333333],vertical,"(390.0, 762.0)",1.5,0.492,1,9684.185,3,0.02,same
0,727,invalid_adjacent_other_bar,"[(1128, 809)]",[],[1],[0.5833333333333334],vertical,"(390.0, 762.0)",1.2333333333333334,0.553,1,9690.3,3,0.02,other
0,728,valid,"[(1165, 803)]",[],[1],[0.6833333333333333],horizontal,"(390.0, 762.0)",0.6,0.634,1,9696.409,3,0.02,same
0,729,catch,"[(1156, 789)]",[],[1],[],vertical,"(390.0, 762.0)",1.7,nan,1,9701.719,3,0.02,same
0,730,valid,"[(1157, 772)]",[],[1],[0.6166666666666667],vertical,"(890.0, 262.0)",0.6,0.573,1,9708.035,3,0.02,same
0,731,invalid_same_bar,"[(1161, 794)]",[],[1],[0.5666666666666667],vertical,"(890.0, 762.0)",0.7666666666666666,0.528,1,9713.435,3,0.02,same
0,732,valid,"[(1162, 787)]",[],[1],[0.85],horizontal,"(390.0, 762.0)",0.4666666666666667,nan,0,9719.434,0,0.02,same
0,733,valid,"[(1092, 786)]",[],[1],[0.85],vertical,"(890.0, 262.0)",1.2,nan,0,9723.951,0,0.02,same
0,734,valid,"[(1141, 782)]",[],[1],[0.5166666666666666],horizontal,"(890.0, 762.0)",0.8833333333333333,0.473,1,9728.976,1,0.02,same
0,735,invalid_same_bar,"[(1160, 789)]",[],[1],[0.5833333333333334],vertical,"(390.0, 762.0)",1.0666666666666667,0.536,1,9734.019,1,0.02,same
0,736,valid,"[(1160, 786)]",[],[1],[0.85],vertical,"(390.0, 762.0)",0.9833333333333333,nan,0,9739.311,0,0.02,same
0,737,valid,"[(1142, 801)]",[],[1],[0.5],horizontal,"(390.0, 762.0)",0.8166666666666667,0.459,1,9743.985,1,0.02,same
0,738,valid,"[(1093, 816)]",[],[1],[0.6],horizontal,"(890.0, 762.0)",0.9833333333333333,0.565,1,9749.153,1,0.02,same
0,739,valid,"[(1163, 772)]",[],[1],[0.5166666666666666],vertical,"(390.0, 262.0)",0.8833333333333333,0.479,1,9754.468,1,0.02,same
0,740,valid,"[(1131, 779)]",[],[1],[0.6],vertical,"(390.0, 262.0)",0.5666666666666667,0.56,1,9759.268,2,0.02,same
0,741,valid,"[(1161, 811)]",[],[1],[0.5833333333333334],vertical,"(390.0, 262.0)",0.55,0.543,1,9764.468,2,0.02,same
0,742,invalid_same_bar,"[(1087, 839)]",[],[1],[0.85],vertical,"(890.0, 262.0)",1.15,nan,0,9769.401,0,0.02,same
0,743,valid,"[(1160, 803)]",[],[1],[0.6],vertical,"(390.0, 262.0)",1.5333333333333332,0.558,1,9774.919,1,0.02,same
0,744,catch,"[(1132, 773)]",[],[1],[],horizontal,"(390.0, 762.0)",1.7,nan,1,9780.318,1,0.02,same
0,745,valid,"[(1162, 792)]",[],[1],[0.5333333333333333],vertical,"(890.0, 262.0)",1.2166666666666666,0.497,1,9785.018,1,0.02,same
0,746,valid,"[(1160, 793)]",[],[1],[0.6833333333333333],horizontal,"(890.0, 262.0)",1.2166666666666666,0.639,1,9790.469,2,0.02,same
0,747,catch,"[(1128, 783)]",[],[1],[],horizontal,"(890.0, 762.0)",1.7,nan,1,9796.185,2,0.02,same
0,748,valid,"[(1131, 780)]",[],[1],[0.5333333333333333],vertical,"(390.0, 762.0)",1.45,0.49,1,9801.543,2,0.02,same
0,749,valid,"[(1162, 788)]",[],[1],[0.5],horizontal,"(890.0, 262.0)",1.1666666666666667,0.461,1,9807.752,3,0.02,same
0,750,catch,"[(1166, 802)]",[],[1],[],vertical,"(390.0, 762.0)",1.7,nan,1,9813.97,3,0.02,same
0,751,valid,"[(1160, 786)]",[],[1],[0.6],horizontal,"(390.0, 762.0)",1.45,0.558,1,9820.084,3,0.02,same
0,752,catch,"[(1161, 778)]",[],[1],[],horizontal,"(890.0, 262.0)",1.7,nan,1,9826.686,3,0.02,same
0,753,valid,"[(1169, 783)]",[],[1],[0.85],horizontal,"(890.0, 762.0)",0.9833333333333333,nan,0,9832.701,0,0.02,same
0,754,valid,"[(1124, 797)]",[],[1],[0.6333333333333333],vertical,"(890.0, 262.0)",0.35,0.592,1,9837.485,1,0.0,same
0,755,valid,"[(1139, 778)]",[],[1],[0.5],horizontal,"(390.0, 262.0)",1.4833333333333334,0.464,1,9841.85,1,0.0,same
0,756,valid,"[(1131, 789)]",[],[1],[0.6333333333333333],horizontal,"(890.0, 762.0)",0.6833333333333333,0.59,1,9847.623,1,0.0,same
0,757,catch,"[(1137, 813)]",[],[1],[],vertical,"(890.0, 262.0)",1.7,nan,1,9852.614,2,0.0,same
0,758,catch,"[(1119, 830)]",[],[1],[],horizontal,"(890.0, 762.0)",1.7,nan,1,9858.589,2,0.0,same
0,759,valid,"[(1131, 806)]",[],[1],[0.6166666666666667],vertical,"(390.0, 762.0)",0.4,0.581,1,9864.385,2,0.0,same
0,760,valid,"[(1156, 789)]",[],[1],[0.55],vertical,"(390.0, 762.0)",0.43333333333333335,0.507,1,9869.296,3,0.0,same
0,761,valid,"[(1116, 828)]",[],[1],[0.85],vertical,"(390.0, 262.0)",1.45,nan,0,9874.951,0,0.0,same
0,762,valid,"[(1110, 792)]",[],[1],[0.7666666666666666],vertical,"(890.0, 762.0)",0.5166666666666666,0.717,1,9880.793,1,0.0,same
0,763,valid,"[(1141, 803)]",[],[1],[0.6333333333333333],horizontal,"(390.0, 262.0)",1.5333333333333332,0.59,1,9886.073,1,0.0,same
0,764,valid,"[(1132, 752), (1122, 812)]",[],"[0, 1]",[0.6],vertical,"(390.0, 762.0)",1.5333333333333332,0.555,1,9891.886,1,0.0,same
0,765,catch,"[(1175, 782)]",[],[1],[],horizontal,"(890.0, 762.0)",1.7,nan,1,9899.602,2,0.0,same
0,766,catch,"[(1107, 831)]",[],[1],[],horizontal,"(390.0, 762.0)",1.7,nan,1,9905.226,2,0.0,same
0,767,valid,"[(1090, 842)]",[],[1],[0.5666666666666667],vertical,"(390.0, 762.0)",0.4,0.534,1,9911.203,2,0.0,same
0,768,catch,"[(1123, 812)]",[],[1],[],horizontal,"(890.0, 762.0)",1.7,nan,1,9916.536,3,0.0,same
0,769,valid,"[(1131, 791)]",[],[1],[0.85],horizontal,"(890.0, 762.0)",1.3166666666666667,nan,0,9922.774,0,0.0,same
0,770,valid,"[(1126, 772)]",[],[1],[0.55],horizontal,"(390.0, 262.0)",0.75,0.514,1,9928.12,1,0.0,same
0,771,valid,"[(1157, 812)]",[],[1],[0.35],vertical,"(890.0, 262.0)",1.45,0.313,1,9933.067,1,0.0,same
0,772,valid,"[(1157, 781)]",[],[1],[0.6166666666666667],vertical,"(390.0, 262.0)",0.3833333333333333,0.573,1,9938.868,1,0.0,same
0,773,catch,"[(1131, 787)]",[],[1],[],vertical,"(390.0, 762.0)",1.7,nan,1,9943.193,2,0.0,same
0,774,valid,"[(1165, 806)]",[],[1],[0.55],horizontal,"(890.0, 762.0)",0.3833333333333333,0.513,1,9949.319,2,0.0,same
0,775,valid,"[(1160, 791)]",[],[1],[0.5333333333333333],horizontal,"(890.0, 762.0)",0.5333333333333333,0.498,1,9953.967,2,0.0,same
0,776,catch,"[(1160, 787)]",[],[1],[],horizontal,"(890.0, 262.0)",1.7,nan,1,9958.817,3,0.0,same
0,777,valid,"[(1114, 807)]",[],[1],[0.5],vertical,"(890.0, 762.0)",0.55,0.462,1,9964.713,3,0.0,same
0,778,catch,"[(1148, 782)]",[],[1],[],horizontal,"(890.0, 762.0)",1.7,nan,1,9971.186,3,0.0,same
0,779,valid,"[(1137, 772)]",[],[1],[0.5666666666666667],horizontal,"(890.0, 262.0)",0.4666666666666667,0.533,1,9976.969,3,0.0,same
0,780,valid,"[(1165, 816)]",[],[1],[0.5666666666666667],vertical,"(390.0, 762.0)",0.43333333333333335,0.52,1,9982.741,3,0.0,same
0,781,valid,"[(1131, 767)]",[],[1],[0.55],vertical,"(890.0, 762.0)",1.3333333333333333,0.506,1,9988.198,3,0.0,same
0,782,valid,"[(1157, 786)]",[],[1],[0.5333333333333333],vertical,"(890.0, 762.0)",0.55,0.495,1,9994.266,3,0.0,same
0,783,catch,"[(1141, 796)]",[],[1],[],vertical,"(890.0, 762.0)",1.7,nan,1,10000.107,3,0.0,same
0,784,valid,"[(1136, 780)]",[],[1],[0.65],horizontal,"(390.0, 262.0)",0.65,0.607,1,10006.252,3,0.0,same
0,785,catch,"[(1131, 808)]",[],[1],[],horizontal,"(890.0, 262.0)",1.7,nan,1,10012.281,3,0.0,same
0,786,valid,"[(1148, 786)]",[],[1],[0.6666666666666666],vertical,"(890.0, 262.0)",1.1,0.622,1,10018.336,3,0.0,same
0,787,catch,"[(1131, 796)]",[],[1],[],vertical,"(890.0, 762.0)",1.7,nan,1,10024.125,3,0.0,same
0,788,valid,"[(1135, 777)]",[],[1],[0.65],vertical,"(890.0, 262.0)",0.6666666666666666,0.607,1,10030.037,3,0.0,same
0,789,valid,"[(1161, 811)]",[],[1],[0.5833333333333334],horizontal,"(890.0, 762.0)",1.15,0.54,1,10035.468,3,0.0,same
0,790,valid,"[(1160, 783)]",[],[1],[0.5833333333333334],vertical,"(890.0, 262.0)",0.8166666666666667,0.547,1,10041.494,3,0.0,same
0,791,valid,"[(1122, 811)]",[],[1],[0.5166666666666666],vertical,"(390.0, 262.0)",0.8666666666666667,0.483,1,10046.736,3,0.0,same
0,792,valid,"[(1157, 778)]",[],[1],[0.5166666666666666],vertical,"(390.0, 262.0)",1.35,0.477,1,10052.469,3,0.0,same
0,793,valid,"[(1139, 780)]",[],[1],[0.55],horizontal,"(390.0, 262.0)",0.5666666666666667,0.506,1,10058.269,3,0.0,same
0,794,valid,"[(1152, 787)]",[],[1],[0.55],vertical,"(390.0, 262.0)",1.0833333333333333,0.512,1,10064.136,3,0.0,same
0,795,invalid_adjacent_other_bar,"[(1167, 809)]",[],[1],[0.85],vertical,"(390.0, 262.0)",1.3333333333333333,nan,0,10070.06,0,0.0,other
0,796,valid,"[(1088, 865)]",[],[1],[0.5666666666666667],vertical,"(890.0, 762.0)",1.25,0.523,1,10075.164,1,0.0,same
0,797,valid,"[(1146, 812)]",[],[1],[0.85],vertical,"(390.0, 262.0)",0.3833333333333333,nan,0,10235.519,0,0.0,same
0,798,valid,"[(1126, 829)]",[],[1],[0.6833333333333333],vertical,"(390.0, 262.0)",0.4166666666666667,0.639,1,10239.881,1,0.0,same
0,799,valid,"[(1153, 811)]",[],[1],[0.5],vertical,"(890.0, 762.0)",1.15,0.461,1,10244.369,1,0.0,same
0,800,valid,"[(1165, 782)]",[],[1],[0.6],horizontal,"(890.0, 762.0)",1.2166666666666666,0.555,1,10249.331,1,0.0,same
0,801,valid,"[(1126, 812)]",[],[1],[0.6333333333333333],horizontal,"(390.0, 262.0)",0.9833333333333333,0.595,1,10254.956,2,0.0,same
0,802,valid,"[(1144, 806)]",[],[1],[0.55],horizontal,"(890.0, 262.0)",1.2166666666666666,0.507,1,10260.896,2,0.0,same
0,803,valid,"[(1128, 806)]",[],[1],[0.5833333333333334],horizontal,"(390.0, 262.0)",1.1833333333333333,0.544,1,10266.947,2,0.0,same
0,804,valid,"[(1134, 809)]",[],[1],[0.5666666666666667],horizontal,"(890.0, 262.0)",0.55,0.524,1,10272.671,3,0.0,same
0,805,catch,"[(1131, 769)]",[],[1],[],vertical,"(890.0, 762.0)",1.7,nan,1,10278.137,3,0.0,same
0,806,valid,"[(1151, 779)]",[],[1],[0.55],vertical,"(390.0, 762.0)",0.4166666666666667,0.506,1,10284.101,3,0.0,same
0,807,valid,"[(1132, 804)]",[],[1],[0.65],horizontal,"(890.0, 262.0)",0.6,0.612,1,10289.686,3,0.0,same
0,808,valid,"[(1118, 804)]",[],[1],[0.55],horizontal,"(390.0, 262.0)",0.65,0.51,1,10295.242,3,0.0,same
0,809,catch,"[(1038, 895)]","[(1038, 910)]",[1],[0.18333333333333332],horizontal,"(890.0, 262.0)",,"('bar', 0.196),nan",0,10301.019,0,0.02,same
0,810,valid,"[(1121, 810)]",[],[1],[0.55],horizontal,"(890.0, 262.0)",0.95,0.504,1,10303.804,1,0.02,same
0,811,valid,"[(1144, 782)]",[],[1],[0.85],horizontal,"(390.0, 262.0)",1.1,nan,0,10308.697,0,0.02,same
0,812,valid,"[(1131, 784)]",[],[1],[0.5333333333333333],horizontal,"(890.0, 262.0)",1.3833333333333333,0.491,1,10313.887,1,0.02,same
0,813,valid,"[(1172, 777)]",[],[1],[0.5666666666666667],horizontal,"(890.0, 762.0)",0.5,0.526,1,10319.787,1,0.02,same
0,814,valid,"[(1162, 785)]",[],[1],[0.5666666666666667],vertical,"(890.0, 762.0)",0.75,0.523,1,10324.286,1,0.02,same
0,815,valid,"[(1121, 805)]",[],[1],[0.5666666666666667],horizontal,"(390.0, 762.0)",1.1666666666666667,0.521,1,10328.895,2,0.02,same
0,816,valid,"[(1156, 781)]",[],[1],[0.85],vertical,"(390.0, 762.0)",1.2333333333333334,nan,0,10334.854,0,0.02,same
0,817,valid,"[(1116, 807)]",[],[1],[0.6833333333333333],vertical,"(390.0, 262.0)",0.7333333333333333,0.642,1,10339.953,1,0.02,same
0,818,valid,"[(1170, 802)]",[],[1],[0.5333333333333333],horizontal,"(390.0, 762.0)",0.43333333333333335,0.494,1,10345.104,1,0.02,same
0,819,valid,"[(1153, 777)]",[],[1],[0.65],horizontal,"(390.0, 762.0)",0.9,0.602,1,10349.903,1,0.02,same
0,820,valid,"[(1116, 785)]",[],[1],[0.55],horizontal,"(390.0, 762.0)",0.9833333333333333,0.507,1,10355.277,2,0.02,same
0,821,valid,"[(1143, 791)]",[],[1],[0.5666666666666667],vertical,"(890.0, 762.0)",1.4,0.523,1,10363.93,2,0.02,same
0,822,invalid_adjacent_other_bar,"[(1137, 796)]",[],[1],[0.5833333333333334],vertical,"(890.0, 762.0)",0.7833333333333333,0.542,1,10369.981,2,0.02,other
0,823,valid,"[(1160, 801)]",[],[1],[0.5666666666666667],horizontal,"(890.0, 762.0)",1.2833333333333332,0.523,1,10375.553,3,0.02,same
0,824,valid,"[(1160, 796)]",[],[1],[0.5166666666666666],horizontal,"(390.0, 762.0)",0.9333333333333333,0.473,1,10381.82,3,0.02,same
0,825,valid,"[(1161, 764)]",[],[1],[0.6333333333333333],horizontal,"(890.0, 762.0)",1.25,0.591,1,10387.738,3,0.02,same
0,826,valid,"[(1137, 802)]",[],[1],[0.55],vertical,"(390.0, 262.0)",0.5666666666666667,0.508,1,10393.554,3,0.02,same
0,827,valid,"[(1169, 789)]",[],[1],[0.5],horizontal,"(890.0, 762.0)",0.65,0.465,1,10399.239,3,0.02,same
0,828,catch,"[(1160, 806)]",[],[1],[],vertical,"(890.0, 262.0)",1.7,nan,1,10404.553,3,0.02,same
0,829,valid,"[(1143, 773)]",[],[1],[0.45],vertical,"(390.0, 762.0)",1.5,0.425,1,10410.637,3,0.02,same
0,830,invalid_same_bar,"[(1162, 790)]",[],[1],[0.5166666666666666],horizontal,"(890.0, 262.0)",1.5333333333333332,0.475,1,10416.983,3,0.02,same
0,831,valid,"[(1138, 784)]",[],[1],[0.7166666666666667],horizontal,"(890.0, 262.0)",0.6833333333333333,0.667,1,10423.454,3,0.02,same
0,832,valid,"[(1141, 775)]",[],[1],[0.55],horizontal,"(390.0, 762.0)",0.35,0.506,1,10429.105,3,0.02,same
0,833,catch,"[(1165, 776)]",[],[1],[],horizontal,"(890.0, 262.0)",1.7,nan,1,10434.529,3,0.02,same
0,834,valid,"[(1131, 808)]",[],[1],[0.5166666666666666],vertical,"(390.0, 262.0)",1.05,0.474,1,10440.387,3,0.02,same
0,835,valid,"[(1147, 785)]",[],[1],[0.5333333333333333],vertical,"(890.0, 762.0)",0.5333333333333333,0.494,1,10446.014,3,0.02,same
0,836,valid,"[(1164, 801)]",[],[1],[0.48333333333333334],vertical,"(890.0, 262.0)",0.7333333333333333,0.439,1,10451.685,3,0.02,same
0,837,valid,"[(1087, 811)]",[],[1],[0.85],vertical,"(390.0, 762.0)",1.35,nan,0,10457.503,0,0.02,same
0,838,valid,"[(1114, 811)]",[],[1],[0.85],vertical,"(390.0, 762.0)",0.8333333333333334,nan,0,10462.881,0,0.02,same
0,839,valid,"[(1111, 813)]",[],[1],[0.7],horizontal,"(390.0, 762.0)",0.9833333333333333,0.655,1,10467.48,1,0.02,same
0,840,valid,"[(1175, 811)]",[],[1],[0.5666666666666667],vertical,"(890.0, 262.0)",0.9833333333333333,0.526,1,10472.803,1,0.02,same
0,841,valid,"[(1134, 806)]",[],[1],[0.55],horizontal,"(390.0, 762.0)",0.9833333333333333,0.506,1,10477.676,1,0.02,same
0,842,valid,"[(1175, 783)]",[],[1],[0.85],vertical,"(890.0, 762.0)",0.7333333333333333,nan,0,10483.149,0,0.02,same
0,843,catch,"[(1126, 813)]",[],[1],[],horizontal,"(890.0, 262.0)",1.7,nan,1,10488.553,1,0.02,same
0,844,valid,"[(1160, 788)]",[],[1],[0.4666666666666667],horizontal,"(890.0, 762.0)",1.5166666666666666,0.428,1,10493.65,1,0.02,same
0,845,invalid_same_bar,"[(1160, 780)]",[],[1],[0.5666666666666667],vertical,"(890.0, 762.0)",0.85,0.519,1,10499.283,1,0.02,same
0,846,valid,"[(1144, 801)]",[],[1],[0.85],horizontal,"(390.0, 762.0)",1.0833333333333333,nan,0,10503.779,0,0.02,same
0,847,catch,"[(1148, 798)]",[],[1],[],vertical,"(390.0, 262.0)",1.7,nan,1,10508.659,1,0.02,same
0,848,catch,"[(1175, 773)]",[],[1],[],horizontal,"(390.0, 762.0)",1.7,nan,1,10514.0,1,0.02,same
0,849,valid,"[(1131, 792)]",[],[1],[0.6666666666666666],horizontal,"(390.0, 762.0)",0.9166666666666666,0.63,1,10519.004,1,0.02,same
0,850,valid,"[(1131, 768)]",[],[1],[0.65],vertical,"(390.0, 762.0)",1.0333333333333332,0.614,1,10524.169,2,0.02,same
0,851,valid,"[(1141, 791)]",[],[1],[0.5166666666666666],horizontal,"(390.0, 262.0)",0.36666666666666664,0.474,1,10529.881,2,0.02,same
0,852,valid,"[(1162, 783)]",[],[1],[0.5833333333333334],horizontal,"(390.0, 762.0)",1.2166666666666666,0.54,1,10534.704,2,0.02,same
0,853,valid,"[(1160, 803)]",[],[1],[0.85],horizontal,"(390.0, 762.0)",0.85,nan,0,10540.42,0,0.02,same
0,854,valid,"[(1122, 796)]",[],[1],[0.55],vertical,"(390.0, 762.0)",0.7166666666666667,0.515,1,10545.309,1,0.02,same
0,855,valid,"[(1134, 785)]",[],[1],[0.8],horizontal,"(390.0, 262.0)",1.4833333333333334,0.758,1,10549.962,1,0.02,same
0,856,valid,"[(1162, 790)]",[],[1],[0.6333333333333333],vertical,"(390.0, 262.0)",0.9,0.591,1,10555.488,1,0.02,same
