block,trial,trial_type,taps_start_loc_during_fix,taps_end_loc_during_fix,taps_on_lever_during_fix,taps_on_lever_s_during_fix,bar_orientation,target_xy,cti,rt,acc,time,pulses,fa_rate_recent100,actual_invalid_type
0,1,valid,"[(1072, 856)]",[],[1],[0.36666666666666664],horizontal,"(390.0, 762.0)",1.1833333333333333,0.33,1,0.62,1,0.0,same
0,2,valid,"[(1126, 850)]",[],[1],[0.55],vertical,"(390.0, 262.0)",1.1666666666666667,0.512,1,12.137,1,0.0,same
0,3,valid,"[(1156, 809)]",[],[1],[0.85],horizontal,"(890.0, 762.0)",0.9833333333333333,nan,0,50.986,0,0.0,same
0,4,invalid_same_bar,"[(1160, 833)]",[],[1],[0.6166666666666667],vertical,"(390.0, 262.0)",1.2166666666666666,0.589,1,56.177,1,0.0,same
0,5,valid,"[(1159, 792)]",[],[1],[0.8333333333333334],vertical,"(390.0, 262.0)",0.6833333333333333,0.779,1,62.067,1,0.0,same
0,6,valid,"[(1164, 798)]",[],[1],[0.5666666666666667],vertical,"(390.0, 762.0)",0.7333333333333333,0.52,1,67.139,1,0.0,same
0,7,catch,"[(1172, 794)]",[],[1],[],vertical,"(390.0, 762.0)",1.7,nan,1,72.017,2,0.0,same
0,8,catch,"[(1162, 811)]",[],[1],[],horizontal,"(390.0, 762.0)",1.7,nan,1,77.414,2,0.0,same
0,9,valid,"[(1163, 804)]",[],[1],[0.5166666666666666],vertical,"(390.0, 262.0)",0.9833333333333333,0.484,1,83.202,2,0.0,same
0,10,valid,"[(1162, 780)]",[],[1],[0.4],horizontal,"(890.0, 262.0)",1.25,0.37,1,88.907,3,0.0,same
0,11,catch,"[(1162, 787)]",[],[1],[],horizontal,"(890.0, 262.0)",1.7,nan,1,95.397,3,0.0,same
0,12,valid,"[(1170, 784)]",[],[1],[0.6],vertical,"(390.0, 262.0)",1.1666666666666667,0.572,1,101.764,3,0.0,same
0,13,valid,"[(1176, 796)]",[],[1],[0.55],horizontal,"(390.0, 762.0)",1.2166666666666666,0.525,1,108.147,3,0.0,same
0,14,valid,"[(1172, 781)]",[],[1],[0.5666666666666667],horizontal,"(390.0, 262.0)",1.2166666666666666,0.543,1,114.319,3,0.0,same
0,15,valid,"[(1168, 799)]",[],[1],[0.5],horizontal,"(890.0, 262.0)",0.5,0.466,1,120.414,3,0.0,same
0,16,catch,"[(1158, 779)]",[],[1],[],vertical,"(890.0, 762.0)",1.7,nan,1,126.026,3,0.0,same
0,17,catch,"[(1188, 784)]",[],[1],[],vertical,"(390.0, 262.0)",1.7,nan,1,131.903,3,0.0,same
0,18,valid,"[(1175, 783)]",[],[1],[0.6166666666666667],horizontal,"(390.0, 762.0)",0.4166666666666667,0.586,1,137.981,3,0.0,same
0,19,valid,"[(1175, 802)]",[],[1],[0.7],vertical,"(890.0, 762.0)",1.05,0.672,1,143.197,3,0.0,same
0,20,valid,"[(1175, 791)]",[],[1],[0.7833333333333333],horizontal,"(390.0, 762.0)",0.6,0.755,1,149.316,3,0.0,same
0,21,valid,"[(1180, 799)]",[],[1],[0.5833333333333334],vertical,"(890.0, 762.0)",0.7333333333333333,0.541,1,155.229,3,0.0,same
0,22,valid,"[(1160, 793)]",[],[1],[0.6],vertical,"(890.0, 762.0)",0.9666666666666667,0.578,1,160.895,3,0.0,same
0,23,valid,"[(1131, 808)]",[],[1],[0.65],horizontal,"(390.0, 262.0)",1.0,0.609,1,167.03,3,0.0,same
0,24,valid,"[(1173, 807)]",[],[1],[0.5166666666666666],horizontal,"(890.0, 762.0)",0.8166666666666667,0.477,1,173.019,3,0.0,same
0,25,catch,"[(1158, 784)]",[],[1],[],horizontal,"(390.0, 262.0)",1.7,nan,1,178.505,3,0.0,same
0,26,catch,"[(1159, 779)]",[],[1],[],vertical,"(890.0, 762.0)",1.7,nan,1,184.198,3,0.0,same
0,27,catch,"[(1168, 795)]",[],[1],[],horizontal,"(890.0, 262.0)",1.7,nan,1,189.981,3,0.0,same
0,28,valid,"[(1176, 803)]",[],[1],[0.7],vertical,"(390.0, 262.0)",1.1,0.649,1,196.051,3,0.0,same
0,29,invalid_same_bar,"[(1165, 817)]",[],[1],[0.85],horizontal,"(390.0, 762.0)",0.5,nan,0,202.214,0,0.0,same
0,30,valid,"[(1158, 810)]",[],[1],[0.65],vertical,"(890.0, 762.0)",0.4,0.607,1,206.543,1,0.0,same
0,31,valid,"[(1179, 777)]",[],[1],[0.5666666666666667],horizontal,"(390.0, 262.0)",0.85,0.525,1,211.728,1,0.0,same
0,32,catch,"[(1176, 756)]",[],[1],[],horizontal,"(390.0, 262.0)",1.7,nan,1,216.706,1,0.0,same
0,33,catch,"[(1174, 755)]",[],[1],[],horizontal,"(890.0, 762.0)",1.7,nan,1,222.103,2,0.0,same
0,34,valid,"[(1176, 779)]",[],[1],[0.5666666666666667],horizontal,"(390.0, 762.0)",0.4666666666666667,0.53,1,227.696,2,0.0,same
0,35,valid,"[(1186, 775)]",[],[1],[0.4],horizontal,"(390.0, 762.0)",1.4666666666666666,0.364,1,232.584,2,0.0,same
0,36,catch,"[(1176, 770)]",[],[1],[],horizontal,"(390.0, 262.0)",1.7,nan,1,238.658,3,0.0,same
0,37,valid,"[(1174, 789)]",[],[1],[0.5666666666666667],horizontal,"(390.0, 762.0)",1.35,0.526,1,244.651,3,0.0,same
0,38,valid,"[(1161, 782)]",[],[1],[0.5666666666666667],vertical,"(890.0, 262.0)",1.1166666666666667,0.535,1,250.784,3,0.0,same
0,39,valid,"[(1169, 764)]",[],[1],[0.5333333333333333],horizontal,"(390.0, 262.0)",0.7333333333333333,0.502,1,256.75,3,0.0,same
0,40,valid,"[(1179, 784)]",[],[1],[0.5333333333333333],horizontal,"(890.0, 762.0)",1.3333333333333333,0.489,1,262.416,3,0.0,same
0,41,valid,"[(1159, 775)]",[],[1],[0.6333333333333333],horizontal,"(390.0, 762.0)",1.3333333333333333,0.591,1,268.6,3,0.0,same
0,42,catch,"[(1159, 779)]",[],[1],[],vertical,"(390.0, 262.0)",1.7,nan,1,274.334,3,0.0,same
0,43,valid,"[(1190, 793)]",[],[1],[0.6666666666666666],horizontal,"(390.0, 762.0)",0.6833333333333333,0.621,1,280.301,3,0.0,same
0,44,catch,"[(1175, 795)]",[],[1],[],horizontal,"(890.0, 262.0)",1.7,nan,1,285.732,3,0.0,same
0,45,valid,"[(1188, 783)]",[],[1],[0.6833333333333333],horizontal,"(390.0, 762.0)",0.4166666666666667,0.645,1,291.651,3,0.0,same
0,46,catch,"[(1165, 777)]",[],[1],[],horizontal,"(890.0, 762.0)",1.7,nan,1,296.9,3,0.0,same
0,47,valid,"[(1155, 786)]",[],[1],[0.7666666666666666],vertical,"(890.0, 262.0)",1.25,0.722,1,302.817,3,0.0,same
0,48,valid,"[(1164, 785)]",[],[1],[0.5666666666666667],horizontal,"(890.0, 262.0)",0.85,0.531,1,308.666,3,0.0,same
0,49,valid,"[(1164, 812)]",[],[1],[0.6],horizontal,"(890.0, 262.0)",0.36666666666666664,0.562,1,314.751,3,0.0,same
0,50,catch,"[(1158, 773)]",[],[1],[],horizontal,"(390.0, 262.0)",,"('cti', 1.615),nan",0,319.868,0,0.02,same
0,51,catch,"[(1179, 789)]",[],[1],[],vertical,"(890.0, 262.0)",1.7,nan,1,324.684,1,0.02,same
0,52,valid,"[(1170, 771)]",[],[1],[0.6833333333333333],horizontal,"(390.0, 762.0)",0.9166666666666666,0.646,1,330.018,1,0.02,same
0,53,catch,"[(1179, 773)]",[],[1],[],vertical,"(890.0, 262.0)",1.7,nan,1,335.284,1,0.02,same
0,54,valid,"[(1178, 769)]",[],[1],[0.5333333333333333],horizontal,"(390.0, 762.0)",1.2,0.494,1,340.268,2,0.02,same
0,55,catch,"[(1175, 788)]",[],[1],[],vertical,"(390.0, 262.0)",1.7,nan,1,346.335,2,0.02,same
0,56,catch,"[(1170, 770)]",[],[1],[],horizontal,"(890.0, 762.0)",1.7,nan,1,351.817,2,0.02,same
0,57,invalid_adjacent_other_bar,"[(1171, 777)]",[],[1],[0.7666666666666666],horizontal,"(390.0, 262.0)",0.6666666666666666,0.718,1,357.619,3,0.02,other
0,58,catch,"[(1160, 799)]",[],[1],[],vertical,"(390.0, 262.0)",1.7,nan,1,363.35,3,0.02,same
0,59,valid,"[(1174, 785)]",[],[1],[0.65],horizontal,"(890.0, 762.0)",1.4333333333333333,0.609,1,369.561,3,0.02,same
0,60,catch,"[(1168, 792)]",[],[1],[],vertical,"(390.0, 262.0)",1.7,nan,1,375.468,3,0.02,same
0,61,valid,"[(1175, 786)]",[],[1],[0.6166666666666667],vertical,"(890.0, 262.0)",0.6333333333333333,0.574,1,381.802,3,0.02,same
0,62,catch,"[(1160, 764)]",[],[1],[],vertical,"(890.0, 762.0)",1.7,nan,1,387.302,3,0.02,same
0,63,valid,"[(1155, 783)]",[],[1],[0.85],horizontal,"(390.0, 762.0)",0.45,nan,0,393.151,0,0.02,same
0,64,catch,"[(1170, 811)]",[],[1],[],vertical,"(390.0, 762.0)",1.7,nan,1,397.608,1,0.02,same
0,65,catch,"[(1175, 777)]",[],[1],[],vertical,"(890.0, 262.0)",1.7,nan,1,402.868,1,0.02,same
0,66,valid,"[(1170, 768)]",[],[1],[0.6166666666666667],horizontal,"(890.0, 262.0)",0.3833333333333333,0.571,1,407.744,1,0.02,same
0,67,catch,"[(1175, 771)]",[],[1],[],horizontal,"(390.0, 262.0)",1.7,nan,1,411.809,2,0.02,same
0,68,catch,"[(1180, 784)]",[],[1],[],vertical,"(890.0, 262.0)",1.7,nan,1,417.767,2,0.02,same
0,69,valid,"[(1166, 771)]",[],[1],[0.7666666666666666],vertical,"(390.0, 262.0)",0.8833333333333333,0.721,1,423.223,2,0.02,same
0,70,valid,"[(1175, 804)]",[],[1],[0.85],horizontal,"(890.0, 262.0)",0.7833333333333333,nan,0,428.892,0,0.02,same
0,71,valid,"[(1160, 818)]",[],[1],[0.75],vertical,"(890.0, 762.0)",0.8666666666666667,0.706,1,433.325,1,0.02,same
0,72,valid,"[(1172, 779)]",[],[1],[0.6333333333333333],horizontal,"(390.0, 262.0)",0.9833333333333333,0.597,1,438.267,1,0.02,same
0,73,valid,"[(1175, 769)]",[],[1],[0.75],horizontal,"(890.0, 262.0)",1.1333333333333333,0.711,1,443.118,1,0.02,same
0,74,valid,"[(1166, 787)]",[],[1],[0.7666666666666666],horizontal,"(390.0, 762.0)",0.6166666666666667,0.726,1,448.558,2,0.02,same
0,75,valid,"[(1159, 763)]",[],[1],[0.85],horizontal,"(390.0, 762.0)",0.9833333333333333,nan,0,454.168,0,0.02,same
0,76,invalid_adjacent_other_bar,"[(1136, 784)]",[],[1],[0.85],horizontal,"(390.0, 762.0)",1.1333333333333333,nan,0,458.929,0,0.02,other
0,77,catch,"[(1158, 807)]",[],[1],[],horizontal,"(890.0, 762.0)",1.7,nan,1,464.061,1,0.02,same
0,78,invalid_adjacent_other_bar,"[(1170, 803)]",[],[1],[0.7833333333333333],horizontal,"(890.0, 262.0)",0.6333333333333333,0.744,1,468.856,1,0.02,other
0,79,invalid_adjacent_other_bar,"[(1180, 781)]",[],[1],[0.85],horizontal,"(390.0, 262.0)",0.8,nan,0,473.635,0,0.02,other
0,80,valid,"[(1164, 809)]",[],[1],[0.85],vertical,"(890.0, 762.0)",1.0833333333333333,nan,0,477.885,0,0.02,same
0,81,valid,"[(1152, 817)]",[],[1],[0.7333333333333333],horizontal,"(390.0, 262.0)",1.0666666666666667,0.693,1,482.87,1,0.02,same
0,82,valid,"[(1174, 794)]",[],[1],[0.55],horizontal,"(890.0, 762.0)",1.35,0.514,1,488.208,1,0.02,same
0,83,catch,"[(1175, 779)]",[],[1],[0.03333333333333333],horizontal,"(890.0, 262.0)",1.7,"0.019,nan",0,493.452,0,0.04,same
0,84,valid,"[(1158, 825)]",[],[1],[0.6833333333333333],horizontal,"(890.0, 762.0)",1.1,0.639,1,498.484,1,0.04,same
0,85,catch,"[(1163, 801)]",[],[1],[],horizontal,"(390.0, 762.0)",1.7,nan,1,506.084,1,0.04,same
0,86,valid,"[(1166, 813)]",[],[1],[0.6333333333333333],vertical,"(390.0, 762.0)",1.15,0.595,1,511.318,1,0.04,same
0,87,valid,"[(1173, 804)]",[],[1],[0.6166666666666667],vertical,"(890.0, 762.0)",0.3833333333333333,0.576,1,516.635,2,0.04,same
0,88,valid,"[(1183, 789)]",[],[1],[0.5333333333333333],horizontal,"(390.0, 762.0)",1.3,0.493,1,522.069,2,0.04,same
0,89,valid,"[(1167, 798)]",[],[1],[0.85],horizontal,"(890.0, 762.0)",1.0,nan,0,528.117,0,0.04,same
0,90,valid,"[(1143, 788)]",[],[1],[0.7333333333333333],vertical,"(890.0, 762.0)",1.0,0.685,1,533.302,1,0.04,same
0,91,catch,"[(1177, 776)]",[],[1],[],horizontal,"(390.0, 762.0)",1.7,nan,1,538.631,1,0.04,same
0,92,valid,"[(1171, 800)]",[],[1],[0.5833333333333334],vertical,"(390.0, 762.0)",1.5166666666666666,0.55,1,544.251,1,0.04,same
0,93,valid,"[(1174, 797)]",[],[1],[0.6],horizontal,"(890.0, 262.0)",0.5666666666666667,0.561,1,549.652,2,0.04,same
0,94,valid,"[(1163, 775)]",[],[1],[0.85],vertical,"(890.0, 762.0)",1.1333333333333333,nan,0,554.637,0,0.04,same
0,95,valid,"[(1131, 803)]",[],[1],[0.85],horizontal,"(890.0, 762.0)",0.48333333333333334,nan,0,559.362,0,0.04,same
0,96,catch,"[(1158, 784)]",[],[1],[],vertical,"(890.0, 762.0)",1.7,nan,1,563.687,1,0.04,same
0,97,valid,"[(1170, 798)]",[],[1],[0.6333333333333333],horizontal,"(890.0, 262.0)",0.6833333333333333,0.591,1,569.202,1,0.04,same
0,98,valid,"[(1161, 783)]",[],[1],[0.5333333333333333],horizontal,"(390.0, 262.0)",0.8333333333333334,0.49,1,573.881,1,0.04,same
0,99,valid,"[(1165, 772)]",[],[1],[0.85],horizontal,"(390.0, 262.0)",0.5833333333333334,nan,0,578.883,0,0.04,same
0,100,valid,"[(1137, 803)]",[],[1],[0.55],vertical,"(390.0, 762.0)",0.9333333333333333,0.508,1,583.334,1,0.02,same
0,101,valid,"[(1155, 773)]",[],[1],[0.5666666666666667],horizontal,"(890.0, 762.0)",1.0333333333333332,0.526,1,588.297,1,0.02,same
0,102,valid,"[(1162, 791)]",[],[1],[0.65],vertical,"(890.0, 262.0)",0.48333333333333334,0.609,1,593.221,1,0.02,same
0,103,valid,"[(1156, 795)]",[],[1],[0.7333333333333333],horizontal,"(390.0, 262.0)",1.15,0.696,1,598.197,2,0.02,same
0,104,valid,"[(1158, 778)]",[],[1],[0.55],vertical,"(890.0, 262.0)",0.7,0.508,1,604.419,2,0.02,same
0,105,valid,"[(1179, 805)]",[],[1],[0.8],horizontal,"(890.0, 262.0)",0.4166666666666667,0.75,1,609.135,2,0.02,same
0,106,catch,"[(1175, 778)]",[],[1],[],vertical,"(890.0, 762.0)",1.7,nan,1,614.483,3,0.02,same
0,107,valid,"[(1174, 773)]",[],[1],[0.7],horizontal,"(390.0, 262.0)",0.35,0.652,1,620.719,3,0.02,same
0,108,invalid_same_bar,"[(1175, 790)]",[],[1],[0.85],horizontal,"(390.0, 262.0)",0.8666666666666667,nan,0,625.835,0,0.02,same
0,109,catch,"[(1157, 794)]",[],[1],[],horizontal,"(890.0, 762.0)",1.7,nan,1,630.834,1,0.02,same
0,110,valid,"[(1160, 790)]",[],[1],[0.55],horizontal,"(890.0, 762.0)",0.5666666666666667,0.503,1,636.421,1,0.02,same
0,111,valid,"[(1158, 778)]",[],[1],[0.7166666666666667],horizontal,"(890.0, 762.0)",1.4833333333333334,0.677,1,641.199,1,0.02,same
0,112,valid,"[(1160, 789)]",[],[1],[0.6166666666666667],vertical,"(890.0, 262.0)",1.2333333333333334,0.579,1,646.68,2,0.02,same
0,113,catch,"[(1159, 794)]",[],[1],[],vertical,"(390.0, 262.0)",1.7,nan,1,652.261,2,0.02,same
0,114,catch,"[(1176, 816)]",[],[1],[],vertical,"(890.0, 262.0)",1.7,nan,1,657.719,2,0.02,same
0,115,invalid_same_bar,"[(1159, 779)]",[],[1],[0.65],vertical,"(890.0, 262.0)",0.8,0.605,1,663.611,3,0.02,same
0,116,valid,"[(1160, 783)]",[],[1],[0.6166666666666667],vertical,"(890.0, 262.0)",0.7333333333333333,0.573,1,669.236,3,0.02,same
0,117,catch,"[(1154, 783)]",[],[1],[],horizontal,"(890.0, 262.0)",1.7,nan,1,675.001,3,0.02,same
0,118,valid,"[(1175, 790)]",[],[1],[0.7166666666666667],horizontal,"(390.0, 262.0)",1.45,0.673,1,680.65,3,0.02,same
0,119,valid,"[(1177, 797)]",[],[1],[0.55],horizontal,"(390.0, 762.0)",1.4,0.509,1,686.852,3,0.02,same
0,120,valid,"[(1180, 805)]",[],[1],[0.55],vertical,"(890.0, 262.0)",1.35,0.506,1,693.285,3,0.02,same
0,121,valid,"[(1165, 779)]",[],[1],[0.5666666666666667],horizontal,"(890.0, 762.0)",0.4166666666666667,0.522,1,699.35,3,0.02,same
0,122,invalid_adjacent_other_bar,"[(1163, 779)]",[],[1],[0.8],vertical,"(390.0, 262.0)",1.0666666666666667,0.751,1,704.404,3,0.02,other
0,123,valid,"[(1170, 803)]",[],[1],[0.6166666666666667],horizontal,"(390.0, 762.0)",0.6666666666666666,0.578,1,710.752,3,0.02,same
0,124,invalid_same_bar,"[(1168, 789)]",[],[1],[0.5833333333333334],horizontal,"(390.0, 262.0)",0.65,0.541,1,716.36,3,0.02,same
0,125,valid,"[(1175, 789)]",[],[1],[0.7],horizontal,"(390.0, 762.0)",0.45,0.657,1,721.519,3,0.02,same
0,126,valid,"[(1169, 785)]",[],[1],[0.55],vertical,"(890.0, 762.0)",0.3833333333333333,0.507,1,726.745,3,0.02,same
0,127,valid,"[(1162, 781)]",[],[1],[0.5166666666666666],horizontal,"(390.0, 262.0)",1.1833333333333333,0.481,1,731.635,3,0.02,same
0,128,catch,"[(1154, 794)]",[],[1],[],vertical,"(390.0, 262.0)",1.7,nan,1,737.688,3,0.02,same
0,129,catch,"[(1162, 784)]",[],[1],[],horizontal,"(390.0, 762.0)",1.7,nan,1,743.604,3,0.02,same
0,130,catch,"[(1157, 792)]",[],[1],[],vertical,"(390.0, 262.0)",1.7,nan,1,749.635,3,0.02,same
0,131,valid,"[(1165, 781)]",[],[1],[0.55],horizontal,"(390.0, 262.0)",0.5,0.509,1,755.736,3,0.02,same
0,132,valid,"[(1156, 779)]",[],[1],[0.65],vertical,"(390.0, 262.0)",1.0833333333333333,0.604,1,761.348,3,0.02,same
0,133,valid,"[(1161, 808)]",[],[1],[0.6166666666666667],horizontal,"(390.0, 762.0)",1.1833333333333333,0.577,1,767.649,3,0.0,same
0,134,catch,"[(1150, 799)]",[],[1],[],vertical,"(390.0, 762.0)",1.7,nan,1,773.785,3,0.0,same
0,135,valid,"[(1157, 792)]",[],[1],[0.6166666666666667],horizontal,"(890.0, 762.0)",1.4666666666666666,0.571,1,779.365,3,0.0,same
0,136,valid,"[(1164, 774)]",[],[1],[0.65],horizontal,"(390.0, 262.0)",0.75,0.603,1,785.386,3,0.0,same
0,137,valid,"[(1175, 806)]",[],[1],[0.6333333333333333],vertical,"(890.0, 262.0)",1.2166666666666666,0.585,1,790.865,3,0.0,same
0,138,catch,"[(1170, 785)]",[],[1],[],horizontal,"(390.0, 762.0)",1.7,nan,1,797.19,3,0.0,same
0,139,invalid_adjacent_other_bar,"[(1159, 784)]",[],[1],[0.6666666666666666],horizontal,"(390.0, 762.0)",1.25,0.621,1,803.011,3,0.0,other
0,140,invalid_same_bar,"[(1164, 794)]",[],[1],[0.65],horizontal,"(890.0, 762.0)",1.0,0.609,1,808.952,3,0.0,same
0,141,valid,"[(1170, 789)]",[],[1],[0.6666666666666666],horizontal,"(390.0, 262.0)",0.9833333333333333,0.625,1,815.147,3,0.0,same
0,142,valid,"[(1175, 789)]",[],[1],[0.55],horizontal,"(390.0, 262.0)",0.4666666666666667,0.504,1,820.989,3,0.0,same
0,143,catch,"[(1160, 780)]",[],[1],[],horizontal,"(390.0, 762.0)",1.7,nan,1,825.997,3,0.0,same
0,144,invalid_adjacent_other_bar,"[(1166, 789)]",[],[1],[0.55],horizontal,"(390.0, 262.0)",0.8833333333333333,0.509,1,831.853,3,0.0,other
0,145,valid,"[(1166, 781)]",[],[1],[0.5833333333333334],horizontal,"(390.0, 762.0)",1.4166666666666667,0.542,1,837.22,3,0.0,same
0,146,valid,"[(1146, 783)]",[],[1],[],vertical,"(890.0, 762.0)",,"('cti', 0.553)",0,843.269,0,0.0,same
0,147,valid,"[(1144, 818)]",[],[1],[0.85],vertical,"(390.0, 762.0)",0.5666666666666667,nan,0,847.183,0,0.0,same
0,148,valid,"[(1140, 805)]",[],[1],[0.5666666666666667],vertical,"(390.0, 762.0)",0.8833333333333333,0.532,1,853.857,1,0.0,same
0,149,catch,"[(1200, 804)]",[],[1],[],vertical,"(890.0, 262.0)",1.7,nan,1,859.019,1,0.0,same
0,150,catch,"[(1166, 782)]",[],[1],[],vertical,"(390.0, 262.0)",1.7,nan,1,863.925,1,0.0,same
0,151,valid,"[(1168, 778)]",[],[1],[0.6],horizontal,"(390.0, 762.0)",1.0166666666666666,0.562,1,869.219,2,0.0,same
0,152,invalid_adjacent_other_bar,"[(1166, 793)]",[],[1],[0.6333333333333333],horizontal,"(390.0, 762.0)",0.48333333333333334,0.586,1,874.785,2,0.0,other
0,153,catch,"[(1173, 806)]",[],[1],[],horizontal,"(890.0, 262.0)",1.7,nan,1,880.185,2,0.0,same
0,154,valid,"[(1166, 811)]",[],[1],[0.7],vertical,"(890.0, 262.0)",0.6166666666666667,0.654,1,885.603,3,0.0,same
0,155,valid,"[(1175, 795)]",[],[1],[0.5666666666666667],horizontal,"(390.0, 262.0)",0.6,0.53,1,891.302,3,0.0,same
0,156,valid,"[(1171, 780)]",[],[1],[0.6333333333333333],vertical,"(390.0, 762.0)",1.45,0.584,1,896.952,3,0.0,same
0,157,valid,"[(1170, 780)]",[],[1],[0.6],horizontal,"(390.0, 262.0)",0.5833333333333334,0.554,1,903.153,3,0.0,same
0,158,catch,"[(1161, 786)]",[],[1],[],vertical,"(890.0, 262.0)",1.7,nan,1,908.419,3,0.0,same
0,159,valid,"[(1156, 783)]",[],[1],[0.6833333333333333],vertical,"(390.0, 262.0)",0.8,0.636,1,914.564,3,0.0,same
0,160,valid,"[(1158, 789)]",[],[1],[0.05],vertical,"(390.0, 762.0)",1.0833333333333333,0.021,0,920.27,0,0.0,same
0,161,catch,"[(1116, 851)]",[],[1],[],vertical,"(890.0, 262.0)",,"('cti', 1.443),nan",0,924.718,0,0.02,same
0,162,valid,"[(1156, 823)]",[],[1],[0.6166666666666667],horizontal,"(390.0, 762.0)",1.0333333333333332,0.574,1,969.172,1,0.02,same
0,163,catch,"[(1174, 820)]",[],[1],[],horizontal,"(390.0, 762.0)",1.7,nan,1,974.372,1,0.02,same
0,164,catch,"[(1210, 814)]",[],[1],[],horizontal,"(890.0, 762.0)",1.7,nan,1,979.202,1,0.02,same
0,165,valid,"[(1199, 804)]",[],[1],[0.65],vertical,"(890.0, 262.0)",0.7166666666666667,0.609,1,984.603,2,0.02,same
0,166,valid,"[(1174, 808)]",[],[1],[0.85],vertical,"(890.0, 262.0)",1.0,nan,0,989.663,0,0.02,same
0,167,valid,"[(1158, 791)]",[],[1],[0.6166666666666667],horizontal,"(390.0, 262.0)",1.2166666666666666,0.579,1,994.62,1,0.02,same
0,168,valid,"[(1176, 819)]",[],[1],[0.6666666666666666],vertical,"(890.0, 262.0)",1.05,0.627,1,1000.193,1,0.02,same
0,169,valid,"[(1176, 783)]",[],[1],[0.5333333333333333],vertical,"(390.0, 262.0)",1.4,0.487,1,1005.354,1,0.02,same
0,170,valid,"[(1201, 808)]",[],[1],[0.85],horizontal,"(390.0, 262.0)",0.5666666666666667,nan,0,1010.97,0,0.02,same
0,171,valid,"[(1163, 798)]",[],[1],[0.6333333333333333],horizontal,"(390.0, 262.0)",1.4166666666666667,0.589,1,1015.941,1,0.02,same
0,172,valid,"[(1175, 778)]",[],[1],[0.5666666666666667],horizontal,"(390.0, 262.0)",0.5666666666666667,0.519,1,1021.237,1,0.02,same
0,173,valid,"[(1178, 791)]",[],[1],[0.5333333333333333],vertical,"(390.0, 262.0)",0.5666666666666667,0.492,1,1025.804,1,0.02,same
0,174,valid,"[(1175, 790)]",[],[1],[0.5833333333333334],horizontal,"(890.0, 762.0)",1.1166666666666667,0.54,1,1030.739,2,0.02,same
0,175,valid,"[(1176, 786)]",[],[1],[0.6333333333333333],horizontal,"(890.0, 262.0)",1.15,0.583,1,1036.656,2,0.02,same
0,176,catch,"[(1167, 808)]",[],[1],[],vertical,"(890.0, 762.0)",1.7,nan,1,1042.479,2,0.02,same
0,177,catch,"[(1162, 806)]",[],[1],[],horizontal,"(390.0, 262.0)",1.7,nan,1,1048.054,3,0.02,same
0,178,valid,"[(1138, 810)]",[],[1],[0.5833333333333334],horizontal,"(390.0, 262.0)",1.3833333333333333,0.551,1,1054.179,3,0.02,same
0,179,catch,"[(1165, 789)]",[],[1],[],vertical,"(890.0, 762.0)",1.7,nan,1,1060.506,3,0.02,same
0,180,valid,"[(1179, 795)]",[],[1],[0.6],horizontal,"(390.0, 262.0)",1.2,0.554,1,1066.367,3,0.02,same
0,181,valid,"[(1167, 790)]",[],[1],[0.85],horizontal,"(390.0, 762.0)",1.05,nan,0,1072.119,0,0.02,same
0,182,valid,"[(1156, 803)]",[],[1],[0.6666666666666666],horizontal,"(390.0, 262.0)",0.7333333333333333,0.629,1,1076.753,1,0.02,same
0,183,valid,"[(1175, 795)]",[],[1],[0.5833333333333334],horizontal,"(890.0, 762.0)",0.6,0.545,1,1081.453,1,0.02,same
0,184,valid,"[(1175, 798)]",[],[1],[0.55],vertical,"(390.0, 762.0)",1.3166666666666667,0.508,1,1085.72,1,0.02,same
0,185,catch,"[(1186, 786)]",[],[1],[],vertical,"(890.0, 762.0)",1.7,nan,1,1091.009,2,0.02,same
0,186,valid,"[(1175, 813)]",[],[1],[0.55],horizontal,"(390.0, 762.0)",0.7833333333333333,0.504,1,1096.491,2,0.02,same
0,187,catch,"[(1176, 809)]",[],[1],[],vertical,"(390.0, 262.0)",1.7,nan,1,1102.087,2,0.02,same
0,188,valid,"[(1171, 808)]",[],[1],[0.5333333333333333],vertical,"(890.0, 262.0)",1.0666666666666667,0.491,1,1108.049,3,0.02,same
0,189,valid,"[(1172, 796)]",[],[1],[0.6333333333333333],vertical,"(890.0, 262.0)",0.9166666666666666,0.586,1,1113.799,3,0.02,same
0,190,catch,"[(1197, 808)]",[],[1],[],vertical,"(390.0, 262.0)",1.7,nan,1,1119.586,3,0.02,same
0,191,valid,"[(1158, 799)]",[],[1],[0.5166666666666666],horizontal,"(390.0, 262.0)",0.3833333333333333,0.475,1,1125.503,3,0.02,same
0,192,catch,"[(1160, 788)]",[],[1],[],horizontal,"(390.0, 762.0)",1.7,nan,1,1130.636,3,0.02,same
0,193,catch,"[(1172, 787)]",[],[1],[],vertical,"(890.0, 262.0)",1.7,nan,1,1136.569,3,0.02,same
0,194,valid,"[(1159, 786)]",[],[1],[0.65],horizontal,"(390.0, 762.0)",1.5333333333333332,0.606,1,1142.293,3,0.02,same
0,195,valid,"[(1160, 799)]",[],[1],[0.85],horizontal,"(390.0, 262.0)",0.4166666666666667,nan,0,1148.487,0,0.02,same
0,196,catch,"[(1144, 791)]",[],[1],[],vertical,"(390.0, 262.0)",1.7,nan,1,1152.369,1,0.02,same
0,197,valid,"[(1170, 808)]",[],[1],[0.5166666666666666],vertical,"(390.0, 262.0)",1.25,0.472,1,1157.82,1,0.02,same
0,198,valid,"[(1166, 799)]",[],[1],[0.5],vertical,"(890.0, 262.0)",1.4833333333333334,0.458,1,1162.892,1,0.02,same
0,199,valid,"[(1174, 793)]",[],[1],[0.6833333333333333],horizontal,"(390.0, 762.0)",0.6,0.646,1,1168.574,2,0.02,same
0,200,valid,"[(1170, 790)]",[],[1],[0.5833333333333334],vertical,"(390.0, 262.0)",0.3833333333333333,0.535,1,1174.103,2,0.02,same
0,201,valid,"[(1169, 781)]",[],[1],[0.6333333333333333],horizontal,"(390.0, 762.0)",0.7,0.589,1,1178.861,2,0.02,same
0,202,valid,"[(1160, 803)]",[],[1],[0.55],vertical,"(890.0, 762.0)",0.7833333333333333,0.505,1,1183.968,3,0.02,same
0,203,valid,"[(1160, 804)]",[],[1],[0.7],horizontal,"(890.0, 262.0)",0.55,0.653,1,1189.81,3,0.02,same
0,204,valid,"[(1160, 796)]",[],[1],[0.85],vertical,"(390.0, 762.0)",1.2333333333333334,nan,0,1195.364,0,0.02,same
0,205,valid,"[(1154, 804)]",[],[1],[0.55],horizontal,"(390.0, 762.0)",0.95,0.504,1,1200.552,1,0.02,same
0,206,valid,"[(1160, 781)]",[],[1],[0.6833333333333333],vertical,"(390.0, 762.0)",1.05,0.644,1,1205.503,1,0.02,same
0,207,valid,"[(1167, 797)]",[],[1],[0.6166666666666667],horizontal,"(890.0, 262.0)",1.1333333333333333,0.587,1,1210.721,1,0.02,same
0,208,valid,"[(1165, 792)]",[],[1],[0.85],horizontal,"(390.0, 262.0)",1.0,nan,0,1216.087,0,0.02,same
0,209,valid,"[(1161, 795)]",[],[1],[0.6333333333333333],vertical,"(890.0, 762.0)",0.8666666666666667,0.586,1,1221.203,1,0.02,same
0,210,valid,"[(1195, 812)]",[],[1],[0.85],horizontal,"(890.0, 762.0)",0.48333333333333334,nan,0,1226.654,0,0.02,same
0,211,invalid_adjacent_other_bar,"[(1136, 782)]",[],[1],[0.8],vertical,"(390.0, 262.0)",1.05,0.75,1,1230.953,1,0.0,other
0,212,valid,"[(1160, 790)]",[],[1],[0.6166666666666667],horizontal,"(390.0, 762.0)",0.9,0.571,1,1236.495,1,0.0,same
0,213,valid,"[(1170, 795)]",[],[1],[0.6666666666666666],horizontal,"(390.0, 762.0)",0.8333333333333334,0.627,1,1241.37,1,0.0,same
0,214,catch,"[(1166, 780)]",[],[1],[],horizontal,"(390.0, 262.0)",1.7,nan,1,1246.416,2,0.0,same
0,215,valid,"[(1165, 799)]",[],[1],[0.5833333333333334],horizontal,"(890.0, 262.0)",0.9333333333333333,0.54,1,1252.22,2,0.0,same
0,216,catch,"[(1171, 793)]",[],[1],[],horizontal,"(390.0, 262.0)",1.7,nan,1,1257.436,2,0.0,same
0,217,valid,"[(1167, 796)]",[],[1],[0.6166666666666667],vertical,"(890.0, 262.0)",0.4666666666666667,0.574,1,1263.091,3,0.0,same
0,218,catch,"[(1164, 789)]",[],[1],[],vertical,"(890.0, 762.0)",1.7,nan,1,1268.741,3,0.0,same
0,219,valid,"[(1190, 824)]",[],[1],[0.5833333333333334],horizontal,"(890.0, 762.0)",1.0166666666666666,0.54,1,1274.347,3,0.0,same
0,220,catch,"[(1158, 816)]",[],[1],[],horizontal,"(890.0, 262.0)",1.7,nan,1,1280.552,3,0.0,same
0,221,catch,"[(1151, 823)]",[],[1],[],horizontal,"(890.0, 762.0)",,"('cti', 1.549),nan",0,1287.493,0,0.02,same
0,222,valid,"[(1116, 811)]",[],[1],[0.5333333333333333],horizontal,"(890.0, 262.0)",1.4,0.491,1,1292.007,1,0.02,same
0,223,valid,"[(1155, 798)]",[],[1],[0.36666666666666664],horizontal,"(890.0, 262.0)",1.2166666666666666,0.327,1,1312.347,1,0.02,same
0,224,valid,"[(1159, 774)]",[],[1],[0.6666666666666666],horizontal,"(890.0, 262.0)",0.55,0.619,1,1317.859,1,0.02,same
0,225,valid,"[(1175, 778)]",[],[1],[0.5666666666666667],horizontal,"(890.0, 762.0)",1.45,0.521,1,1322.753,2,0.02,same
0,226,valid,"[(1175, 790)]",[],[1],[0.6333333333333333],horizontal,"(890.0, 262.0)",0.36666666666666664,0.585,1,1328.487,2,0.02,same
0,227,catch,"[(1205, 808)]",[],[1],[],horizontal,"(890.0, 762.0)",1.7,nan,1,1333.452,2,0.02,same
0,228,catch,"[(1170, 822)]",[],[1],[],horizontal,"(890.0, 262.0)",1.7,nan,1,1339.703,3,0.02,same
0,229,valid,"[(1155, 791)]",[],[1],[0.6166666666666667],horizontal,"(390.0, 762.0)",0.5833333333333334,0.574,1,1346.165,3,0.02,same
0,230,invalid_adjacent_other_bar,"[(1175, 789)]",[],[1],[0.85],horizontal,"(890.0, 762.0)",0.55,nan,0,1351.08,0,0.02,other
0,231,valid,"[(1136, 798)]",[],[1],[0.7],horizontal,"(890.0, 762.0)",0.4,0.652,1,1355.569,1,0.02,same
0,232,valid,"[(1170, 796)]",[],[1],[0.6],horizontal,"(390.0, 262.0)",0.4,0.553,1,1360.039,1,0.02,same
0,233,valid,"[(1157, 794)]",[],[1],[0.5166666666666666],horizontal,"(890.0, 762.0)",0.65,0.475,1,1364.294,1,0.02,same
0,234,valid,"[(1173, 803)]",[],[1],[0.6666666666666666],horizontal,"(390.0, 262.0)",1.0166666666666666,0.624,1,1369.15,2,0.02,same
0,235,catch,"[(1166, 803)]",[],[1],[],vertical,"(890.0, 262.0)",1.7,nan,1,1374.956,2,0.02,same
0,236,catch,"[(1191, 798)]",[],[1],[],horizontal,"(890.0, 762.0)",1.7,nan,1,1380.669,2,0.02,same
0,237,valid,"[(1171, 789)]",[],[1],[0.5666666666666667],horizontal,"(390.0, 262.0)",1.0,0.53,1,1386.805,3,0.02,same
0,238,valid,"[(1170, 796)]",[],[1],[0.55],vertical,"(890.0, 762.0)",0.9166666666666666,0.507,1,1393.225,3,0.02,same
0,239,valid,"[(1170, 778)]",[],[1],[0.65],vertical,"(890.0, 262.0)",0.7333333333333333,0.605,1,1398.837,3,0.02,same
0,240,invalid_adjacent_other_bar,"[(1160, 817)]",[],[1],[0.5666666666666667],vertical,"(390.0, 262.0)",0.8333333333333334,0.524,1,1404.155,3,0.02,other
0,241,valid,"[(1175, 809)]",[],[1],[0.5666666666666667],horizontal,"(390.0, 262.0)",1.4333333333333333,0.521,1,1409.909,3,0.02,same
0,242,valid,"[(1173, 814)]",[],[1],[0.31666666666666665],horizontal,"(890.0, 762.0)",1.4333333333333333,0.278,1,1416.241,3,0.02,same
0,243,valid,"[(1181, 782)]",[],[1],[0.6333333333333333],horizontal,"(390.0, 262.0)",1.2833333333333332,0.585,1,1422.369,3,0.02,same
0,244,catch,"[(1170, 813)]",[],[1],[],vertical,"(390.0, 262.0)",1.7,nan,1,1428.291,3,0.02,same
0,245,valid,"[(1176, 785)]",[],[1],[0.6666666666666666],vertical,"(890.0, 262.0)",0.8666666666666667,0.62,1,1434.421,3,0.02,same
0,246,valid,"[(1160, 778)]",[],[1],[0.3833333333333333],vertical,"(390.0, 762.0)",1.4333333333333333,0.347,1,1440.391,3,0.02,same
0,247,valid,"[(1159, 780)]",[],[1],[0.5666666666666667],vertical,"(890.0, 762.0)",1.5333333333333332,0.522,1,1446.42,3,0.02,same
0,248,valid,"[(1193, 803)]",[],[1],[0.65],vertical,"(890.0, 762.0)",1.3333333333333333,0.608,1,1452.5,3,0.02,same
0,249,valid,"[(1158, 787)]",[],[1],[0.65],horizontal,"(390.0, 262.0)",0.4,0.603,1,1458.734,3,0.02,same
0,250,valid,"[(1159, 789)]",[],[1],[0.5833333333333334],horizontal,"(890.0, 262.0)",1.2833333333333332,0.539,1,1464.487,3,0.02,same
0,251,invalid_same_bar,"[(1165, 809)]",[],[1],[0.5833333333333334],horizontal,"(890.0, 762.0)",1.3166666666666667,0.538,1,1470.671,3,0.02,same
0,252,valid,"[(1160, 808)]",[],[1],[0.5333333333333333],horizontal,"(890.0, 262.0)",0.36666666666666664,0.494,1,1476.591,3,0.02,same
0,253,invalid_same_bar,"[(1174, 798)]",[],[1],[0.85],vertical,"(890.0, 262.0)",0.9,nan,0,1481.854,0,0.02,same
0,254,valid,"[(1141, 825)]",[],[1],[0.5],vertical,"(390.0, 762.0)",1.1166666666666667,0.46,1,1486.708,1,0.02,same
0,255,catch,"[(1161, 779)]",[],[1],[],horizontal,"(890.0, 762.0)",1.7,nan,1,1492.172,1,0.02,same
0,256,valid,"[(1177, 802)]",[],[1],[0.6333333333333333],vertical,"(390.0, 262.0)",1.0666666666666667,0.596,1,1497.436,1,0.02,same
0,257,catch,"[(1161, 809)]",[],[1],[],horizontal,"(390.0, 762.0)",1.7,nan,1,1503.071,2,0.02,same
0,258,catch,"[(1171, 789)]",[],[1],[],horizontal,"(390.0, 262.0)",1.7,nan,1,1508.955,2,0.02,same
0,259,valid,"[(1158, 789)]",[],[1],[0.6],horizontal,"(390.0, 262.0)",0.6833333333333333,0.562,1,1514.529,2,0.02,same
0,260,valid,"[(1176, 773)]",[],[1],[0.85],vertical,"(890.0, 262.0)",0.6666666666666666,nan,0,1519.883,0,0.02,same
0,261,valid,"[(1138, 809)]",[],[1],[0.85],horizontal,"(390.0, 762.0)",0.8333333333333334,nan,0,1524.337,0,0.02,same
0,262,valid,"[(1136, 798)]",[],[1],[0.6333333333333333],horizontal,"(890.0, 262.0)",0.3833333333333333,0.591,1,1529.638,1,0.02,same
0,263,catch,"[(1160, 789)]",[],[1],[],vertical,"(890.0, 262.0)",1.7,nan,1,1533.779,1,0.02,same
0,264,valid,"[(1170, 799)]",[],[1],[0.7166666666666667],horizontal,"(390.0, 262.0)",1.3833333333333333,0.674,1,1539.075,1,0.02,same
0,265,valid,"[(1172, 790)]",[],[1],[0.7333333333333333],horizontal,"(390.0, 762.0)",1.0,0.697,1,1544.86,2,0.02,same
0,266,valid,"[(1176, 803)]",[],[1],[0.7833333333333333],vertical,"(890.0, 762.0)",0.65,0.739,1,1550.638,2,0.02,same
0,267,invalid_adjacent_other_bar,"[(1178, 808)]",[],[1],[0.5666666666666667],horizontal,"(390.0, 262.0)",1.4166666666666667,0.53,1,1555.923,2,0.02,other
0,268,valid,"[(1175, 805)]",[],[1],[0.5833333333333334],horizontal,"(390.0, 262.0)",1.2333333333333334,0.541,1,1561.963,3,0.02,same
0,269,valid,"[(1179, 787)]",[],[1],[0.5],vertical,"(890.0, 262.0)",1.3333333333333333,0.457,1,1567.92,3,0.02,same
0,270,catch,"[(1176, 809)]",[],[1],[],horizontal,"(890.0, 262.0)",1.7,nan,1,1574.069,3,0.02,same
0,271,valid,"[(1172, 809)]",[],[1],[0.55],horizontal,"(390.0, 762.0)",0.5166666666666666,0.505,1,1580.138,3,0.0,same
0,272,valid,"[(1160, 774)]",[],[1],[0.5],vertical,"(890.0, 262.0)",1.1166666666666667,0.463,1,1585.493,3,0.0,same
0,273,valid,"[(1160, 779)]",[],[1],[0.6166666666666667],vertical,"(890.0, 262.0)",1.0833333333333333,0.575,1,1591.149,3,0.0,same
0,274,valid,"[(1158, 789)]",[],[1],[0.6166666666666667],horizontal,"(890.0, 762.0)",1.2666666666666666,0.574,1,1596.678,3,0.0,same
0,275,valid,"[(1175, 795)]",[],[1],[0.5166666666666666],horizontal,"(890.0, 262.0)",1.5333333333333332,0.477,1,1603.054,3,0.0,same
0,276,valid,"[(1171, 797)]",[],[1],[0.5333333333333333],vertical,"(890.0, 262.0)",1.4,0.485,1,1609.354,3,0.0,same
0,277,catch,"[(1161, 799)]",[],[1],[],vertical,"(390.0, 262.0)",1.7,nan,1,1615.439,3,0.0,same
0,278,invalid_same_bar,"[(1170, 789)]",[],[1],[0.5666666666666667],vertical,"(390.0, 262.0)",1.5,0.525,1,1621.322,3,0.0,same
0,279,valid,"[(1164, 793)]",[],[1],[0.5666666666666667],horizontal,"(890.0, 762.0)",0.35,0.524,1,1627.565,3,0.0,same
0,280,valid,"[(1169, 799)]",[],[1],[0.7],vertical,"(890.0, 262.0)",0.35,0.654,1,1632.843,3,0.0,same
0,281,catch,"[(1166, 790)]",[],[1],[],vertical,"(890.0, 762.0)",1.7,nan,1,1638.139,3,0.0,same
0,282,valid,"[(1170, 812)]",[],[1],[0.5166666666666666],horizontal,"(890.0, 262.0)",1.45,0.474,1,1644.255,3,0.0,same
0,283,catch,"[(1175, 816)]",[],[1],[],horizontal,"(890.0, 762.0)",1.7,nan,1,1650.889,3,0.0,same
0,284,valid,"[(1166, 783)]",[],[1],[0.7666666666666666],vertical,"(890.0, 762.0)",1.1833333333333333,0.722,1,1656.955,3,0.0,same
0,285,valid,"[(1175, 798)]",[],[1],[0.5833333333333334],horizontal,"(390.0, 762.0)",0.5,0.541,1,1663.195,3,0.0,same
0,286,valid,"[(1175, 810)]",[],[1],[0.8166666666666667],vertical,"(890.0, 262.0)",0.48333333333333334,0.774,1,1668.582,3,0.0,same
0,287,valid,"[(1159, 813)]",[],[1],[0.7166666666666667],vertical,"(390.0, 762.0)",0.5833333333333334,0.669,1,1674.554,3,0.0,same
0,288,valid,"[(1163, 799)]",[],[1],[0.4],horizontal,"(390.0, 262.0)",1.45,0.361,1,1684.257,3,0.0,same
0,289,valid,"[(1150, 882)]",[],[1],[0.5666666666666667],horizontal,"(890.0, 262.0)",1.5,0.521,1,1690.73,3,0.0,same
0,290,valid,"[(1172, 818)]",[],[1],[0.6166666666666667],vertical,"(890.0, 762.0)",0.65,0.572,1,1729.188,3,0.0,same
0,291,valid,"[(1172, 808)]",[],[1],[0.5333333333333333],vertical,"(390.0, 262.0)",0.7166666666666667,0.497,1,1734.723,3,0.0,same
0,292,valid,"[(1175, 797)]",[],[1],[0.31666666666666665],vertical,"(390.0, 762.0)",1.3333333333333333,0.278,1,1740.196,3,0.0,same
0,293,valid,"[(1180, 799)]",[],[1],[0.4],vertical,"(890.0, 762.0)",0.9666666666666667,0.365,1,1746.352,3,0.0,same
0,294,valid,"[(1164, 809)]",[],[1],[0.65],vertical,"(390.0, 262.0)",0.7,0.612,1,1751.922,3,0.0,same
0,295,valid,"[(1160, 785)]",[],[1],[0.8],vertical,"(890.0, 262.0)",0.43333333333333335,0.756,1,1757.233,3,0.0,same
0,296,catch,"[(1158, 787)]",[],[1],[],vertical,"(890.0, 262.0)",1.7,nan,1,1762.939,3,0.0,same
0,297,valid,"[(1163, 809)]",[],[1],[0.7833333333333333],horizontal,"(890.0, 762.0)",1.15,0.736,1,1768.956,3,0.0,same
0,298,valid,"[(1174, 803)]",[],[1],[0.5833333333333334],horizontal,"(390.0, 762.0)",1.3166666666666667,0.549,1,1775.291,3,0.0,same
0,299,valid,"[(1200, 812)]",[],[1],[0.5333333333333333],horizontal,"(890.0, 762.0)",0.5,0.494,1,1781.243,3,0.0,same
0,300,valid,"[(1160, 785)]",[],[1],[0.5166666666666666],horizontal,"(890.0, 262.0)",0.9,0.473,1,1786.272,3,0.0,same
0,301,valid,"[(1131, 852)]",[],[1],[0.6666666666666666],vertical,"(390.0, 262.0)",0.5666666666666667,0.634,1,1792.139,3,0.0,same
0,302,valid,"[(1180, 810)]",[],[1],[0.6666666666666666],vertical,"(390.0, 762.0)",0.5166666666666666,0.63,1,1798.239,3,0.0,same
0,303,valid,"[(1174, 810)]",[],[1],[0.65],vertical,"(890.0, 762.0)",0.75,0.615,1,1803.899,3,0.0,same
0,304,catch,"[(1170, 808)]",[],[1],[],horizontal,"(890.0, 762.0)",1.7,nan,1,1809.625,3,0.0,same
0,305,valid,"[(1170, 813)]",[],[1],[0.7],horizontal,"(890.0, 762.0)",1.25,0.657,1,1815.337,3,0.0,same
0,306,valid,"[(1175, 790)]",[],[1],[0.5833333333333334],horizontal,"(390.0, 762.0)",1.0833333333333333,0.54,1,1821.221,3,0.0,same
0,307,valid,"[(1156, 787)]",[],[1],[0.65],vertical,"(390.0, 262.0)",0.7166666666666667,0.607,1,1827.085,3,0.0,same
0,308,valid,"[(1164, 798)]",[],[1],[0.6833333333333333],horizontal,"(390.0, 262.0)",1.1666666666666667,0.639,1,1832.68,3,0.0,same
0,309,valid,"[(1171, 789)]",[],[1],[0.5666666666666667],horizontal,"(390.0, 762.0)",0.7166666666666667,0.532,1,1838.705,3,0.0,same
0,310,valid,"[(1151, 786)]",[],[1],[0.6333333333333333],horizontal,"(390.0, 762.0)",0.5,0.591,1,1844.306,3,0.0,same
0,311,valid,"[(1176, 793)]",[],[1],[0.85],horizontal,"(390.0, 262.0)",0.75,nan,0,1849.923,0,0.0,same
0,312,valid,"[(1129, 781)]",[],[1],[0.75],horizontal,"(890.0, 762.0)",0.95,0.703,1,1854.322,1,0.0,same
0,313,catch,"[(1160, 778)]",[],[1],[],vertical,"(890.0, 262.0)",1.7,nan,1,1859.755,1,0.0,same
0,314,valid,"[(1166, 792)]",[],[1],[0.7666666666666666],horizontal,"(390.0, 762.0)",0.95,0.724,1,1865.034,1,0.0,same
0,315,valid,"[(1161, 779)]",[],[1],[0.5333333333333333],vertical,"(890.0, 762.0)",1.0833333333333333,0.51,1,1870.547,2,0.0,same
0,316,catch,"[(1176, 791)]",[],[1],[],vertical,"(890.0, 762.0)",1.7,nan,1,1875.799,2,0.0,same
0,317,catch,"[(1168, 783)]",[],[1],[],vertical,"(390.0, 762.0)",1.7,nan,1,1881.188,2,0.0,same
0,318,valid,"[(1151, 814)]",[],[1],[0.6166666666666667],vertical,"(390.0, 262.0)",1.3333333333333333,0.58,1,1886.699,3,0.0,same
0,319,invalid_adjacent_other_bar,"[(1165, 792)]",[],[1],[0.5833333333333334],horizontal,"(390.0, 762.0)",1.3666666666666667,0.543,1,1892.888,3,0.0,other
0,320,valid,"[(1161, 780)]",[],[1],[0.85],horizontal,"(890.0, 262.0)",1.4333333333333333,nan,0,1899.285,0,0.0,same
0,321,valid,"[(1142, 804)]",[],[1],[0.55],horizontal,"(390.0, 762.0)",0.5166666666666666,0.509,1,1904.545,1,0.0,same
0,322,valid,"[(1160, 806)]",[],[1],[0.85],horizontal,"(890.0, 762.0)",0.5166666666666666,nan,0,1908.881,0,0.0,same
0,323,valid,"[(1146, 813)]",[],[1],[0.48333333333333334],vertical,"(890.0, 762.0)",1.35,0.443,1,1913.201,1,0.0,same
0,324,valid,"[(1171, 806)]",[],[1],[0.5166666666666666],vertical,"(890.0, 262.0)",0.35,0.478,1,1918.99,1,0.0,same
0,325,valid,"[(1170, 804)]",[],[1],[0.5666666666666667],vertical,"(390.0, 262.0)",1.2666666666666666,0.523,1,1923.181,1,0.0,same
0,326,valid,"[(1175, 808)]",[],[1],[0.75],vertical,"(890.0, 762.0)",0.43333333333333335,0.702,1,1928.692,2,0.0,same
0,327,valid,"[(1171, 800)]",[],[1],[0.6166666666666667],horizontal,"(390.0, 262.0)",0.8833333333333333,0.577,1,1933.671,2,0.0,same
0,328,catch,"[(1175, 808)]",[],[1],[],horizontal,"(890.0, 262.0)",1.7,nan,1,1938.64,2,0.0,same
0,329,valid,"[(1185, 812)]",[],[1],[0.7833333333333333],vertical,"(890.0, 762.0)",1.0166666666666666,0.737,1,1944.422,3,0.0,same
0,330,catch,"[(1199, 792)]",[],[1],[],vertical,"(390.0, 762.0)",1.7,nan,1,1950.674,3,0.0,same
0,331,catch,"[(1174, 812)]",[],[1],[],vertical,"(390.0, 762.0)",1.7,nan,1,1956.288,3,0.0,same
0,332,catch,"[(1175, 799)]",[],[1],[],horizontal,"(890.0, 762.0)",1.7,nan,1,1962.207,3,0.0,same
0,333,catch,"[(1175, 808)]",[],[1],[],horizontal,"(390.0, 262.0)",1.7,nan,1,1968.574,3,0.0,same
0,334,valid,"[(1154, 799)]",[],[1],[0.65],horizontal,"(390.0, 262.0)",0.7666666666666666,0.608,1,1974.48,3,0.0,same
0,335,valid,"[(1175, 816)]",[],[1],[0.5333333333333333],vertical,"(890.0, 262.0)",1.4166666666666667,0.496,1,1980.136,3,0.0,same
0,336,valid,"[(1180, 809)]",[],[1],[0.6],horizontal,"(890.0, 262.0)",0.65,0.558,1,1986.522,3,0.0,same
0,337,valid,"[(1160, 786)]",[],[1],[0.55],horizontal,"(390.0, 762.0)",0.7333333333333333,0.514,1,1992.327,3,0.0,same
0,338,valid,"[(1166, 813)]",[],[1],[0.5833333333333334],vertical,"(390.0, 762.0)",1.2333333333333334,0.54,1,1997.921,3,0.0,same
0,339,valid,"[(1177, 808)]",[],[1],[0.8166666666666667],vertical,"(890.0, 762.0)",1.0666666666666667,0.77,1,2004.106,3,0.0,same
0,340,valid,"[(1174, 812)]",[],[1],[0.6],horizontal,"(890.0, 262.0)",1.3333333333333333,0.556,1,2010.446,3,0.0,same
0,341,valid,"[(1160, 808)]",[],[1],[0.5833333333333334],vertical,"(890.0, 762.0)",1.0166666666666666,0.539,1,2016.606,3,0.0,same
0,342,valid,"[(1176, 802)]",[],[1],[0.85],horizontal,"(890.0, 262.0)",0.4166666666666667,nan,0,2022.09,0,0.0,same
0,343,valid,"[(1161, 807)]",[],[1],[0.55],vertical,"(390.0, 762.0)",0.9333333333333333,0.508,1,2026.165,1,0.0,same
0,344,valid,"[(1170, 783)]",[],[1],[0.5666666666666667],vertical,"(890.0, 262.0)",0.5666666666666667,0.529,1,2031.5,1,0.0,same
0,345,valid,"[(1180, 794)]",[],[1],[0.5166666666666666],horizontal,"(890.0, 762.0)",0.35,0.474,1,2035.878,1,0.0,same
0,346,catch,"[(1160, 786)]",[],[1],[],vertical,"(890.0, 762.0)",1.7,nan,1,2040.286,2,0.0,same
0,347,valid,"[(1166, 785)]",[],[1],[0.5666666666666667],vertical,"(390.0, 262.0)",0.4166666666666667,0.526,1,2046.355,2,0.0,same
0,348,valid,"[(1177, 803)]",[],[1],[0.55],horizontal,"(890.0, 762.0)",0.3833333333333333,0.518,1,2051.289,2,0.0,same
0,349,valid,"[(1172, 794)]",[],[1],[0.7333333333333333],horizontal,"(890.0, 262.0)",0.7666666666666666,0.689,1,2056.216,3,0.0,same
0,350,valid,"[(1175, 804)]",[],[1],[0.6],horizontal,"(390.0, 762.0)",1.3666666666666667,0.561,1,2062.379,3,0.0,same
0,351,valid,"[(1175, 789)]",[],[1],[0.65],vertical,"(890.0, 262.0)",0.8166666666666667,0.607,1,2068.531,3,0.0,same
0,352,catch,"[(1180, 813)]",[],[1],[],vertical,"(390.0, 262.0)",1.7,nan,1,2074.539,3,0.0,same
0,353,valid,"[(1161, 788)]",[],[1],[0.6666666666666666],vertical,"(890.0, 262.0)",1.1166666666666667,0.623,1,2080.662,3,0.0,same
0,354,valid,"[(1175, 783)]",[],[1],[0.55],horizontal,"(890.0, 762.0)",0.36666666666666664,0.51,1,2086.945,3,0.0,same
0,355,catch,"[(1170, 785)]",[],[1],[],vertical,"(890.0, 262.0)",1.7,nan,1,2092.464,3,0.0,same
0,356,catch,"[(1174, 781)]",[],[1],[],horizontal,"(390.0, 262.0)",1.7,nan,1,2098.226,3,0.0,same
0,357,valid,"[(1175, 808)]",[],[1],[0.7166666666666667],horizontal,"(890.0, 762.0)",1.15,0.686,1,2104.007,3,0.0,same
0,358,catch,"[(1171, 801)]",[],[1],[],vertical,"(890.0, 762.0)",1.7,nan,1,2109.973,3,0.0,same
0,359,catch,"[(1156, 813)]",[],[1],[],vertical,"(890.0, 762.0)",1.7,nan,1,2115.906,3,0.0,same
0,360,valid,"[(1176, 811)]",[],[1],[0.85],horizontal,"(890.0, 762.0)",0.8833333333333333,nan,0,2122.206,0,0.0,same
0,361,valid,"[(1157, 800)]",[],[1],[0.65],vertical,"(390.0, 262.0)",1.4333333333333333,0.607,1,2127.132,1,0.0,same
0,362,catch,"[(1174, 808)]",[],[1],[],vertical,"(390.0, 262.0)",1.7,nan,1,2132.473,1,0.0,same
0,363,catch,"[(1177, 808)]",[],[1],[],vertical,"(890.0, 262.0)",1.7,nan,1,2137.791,1,0.0,same
0,364,valid,"[(1192, 812)]",[],[1],[0.5833333333333334],horizontal,"(890.0, 762.0)",0.4166666666666667,0.542,1,2143.185,2,0.0,same
0,365,catch,"[(1177, 808)]",[],[1],[],vertical,"(390.0, 762.0)",1.7,nan,1,2148.508,2,0.0,same
0,366,valid,"[(1155, 805)]",[],[1],[0.6333333333333333],vertical,"(890.0, 762.0)",0.7166666666666667,0.596,1,2154.373,2,0.0,same
0,367,catch,"[(1173, 816)]",[],[1],[],horizontal,"(390.0, 762.0)",1.7,nan,1,2159.607,3,0.0,same
0,368,valid,"[(1155, 794)]",[],[1],[0.6666666666666666],vertical,"(890.0, 762.0)",1.1833333333333333,0.627,1,2166.024,3,0.0,same
0,369,valid,"[(1136, 793)]",[],[1],[0.5666666666666667],horizontal,"(890.0, 262.0)",1.4333333333333333,0.524,1,2172.252,3,0.0,same
0,370,valid,"[(1172, 799)]",[],[1],[0.5],vertical,"(890.0, 762.0)",0.45,0.464,1,2178.54,3,0.0,same
0,371,valid,"[(1156, 789)]",[],[1],[0.5666666666666667],vertical,"(890.0, 762.0)",1.2666666666666666,0.531,1,2184.006,3,0.0,same
0,372,valid,"[(1156, 790)]",[],[1],[0.85],vertical,"(390.0, 762.0)",0.6833333333333333,nan,0,2190.374,0,0.0,same
0,373,valid,"[(1143, 794)]",[],[1],[0.15],horizontal,"(390.0, 762.0)",1.2666666666666666,0.118,0,2194.703,0,0.0,same
0,374,valid,"[(1161, 848)]",[],[1],[0.5333333333333333],horizontal,"(390.0, 262.0)",1.5166666666666666,0.503,1,2199.722,1,0.0,same
0,375,catch,"[(1178, 811)]",[],[1],[],horizontal,"(890.0, 262.0)",1.7,nan,1,2223.243,1,0.0,same
0,376,valid,"[(1174, 811)]",[],[1],[0.85],horizontal,"(890.0, 762.0)",0.95,nan,0,2228.656,0,0.0,same
0,377,catch,"[(1151, 810)]",[],[1],[],vertical,"(390.0, 762.0)",1.7,nan,1,2233.657,1,0.0,same
0,378,catch,"[(1174, 809)]",[],[1],[],horizontal,"(390.0, 762.0)",1.7,nan,1,2238.815,1,0.0,same
0,379,catch,"[(1175, 790)]",[],[1],[],horizontal,"(390.0, 762.0)",1.7,nan,1,2244.19,1,0.0,same
0,380,valid,"[(1176, 809)]",[],[1],[0.5666666666666667],vertical,"(890.0, 262.0)",0.65,0.527,1,2249.112,2,0.0,same
0,381,invalid_same_bar,"[(1191, 795)]",[],[1],[0.5833333333333334],horizontal,"(390.0, 262.0)",0.6166666666666667,0.54,1,2254.576,2,0.0,same
0,382,valid,"[(1171, 793)]",[],[1],[0.5333333333333333],horizontal,"(890.0, 762.0)",1.4666666666666666,0.49,1,2259.53,2,0.0,same
0,383,valid,"[(1171, 784)]",[],[1],[0.5333333333333333],vertical,"(390.0, 262.0)",0.9166666666666666,0.497,1,2265.318,3,0.0,same
0,384,valid,"[(1158, 794)]",[],[1],[0.85],horizontal,"(390.0, 762.0)",1.0333333333333332,nan,0,2270.947,0,0.0,same
0,385,valid,"[(1141, 813)]",[],[1],[0.5666666666666667],vertical,"(890.0, 762.0)",0.7166666666666667,0.533,1,2275.784,1,0.0,same
0,386,invalid_same_bar,"[(1171, 813)]",[],[1],[0.7333333333333333],vertical,"(390.0, 262.0)",0.5333333333333333,0.697,1,2280.173,1,0.0,same
0,387,catch,"[(1161, 778)]",[],[1],[],horizontal,"(890.0, 762.0)",1.7,nan,1,2285.157,1,0.0,same
0,388,valid,"[(1170, 794)]",[],[1],[0.36666666666666664],vertical,"(890.0, 762.0)",1.5,0.338,1,2290.021,2,0.0,same
0,389,valid,"[(1166, 780)]",[],[1],[0.7666666666666666],vertical,"(890.0, 262.0)",1.1333333333333333,0.717,1,2295.739,2,0.0,same
0,390,valid,"[(1171, 794)]",[],[1],[0.6333333333333333],vertical,"(890.0, 262.0)",0.6333333333333333,0.59,1,2301.174,2,0.0,same
0,391,valid,"[(1162, 797)]",[],[1],[0.8],horizontal,"(390.0, 262.0)",0.9,0.756,1,2306.523,3,0.0,same
0,392,catch,"[(1161, 789)]",[],[1],[],vertical,"(390.0, 262.0)",1.7,nan,1,2312.828,3,0.0,same
0,393,valid,"[(1156, 800)]",[],[1],[0.85],horizontal,"(390.0, 762.0)",0.6666666666666666,nan,0,2318.737,0,0.0,same
0,394,valid,"[(1135, 802)]",[],[1],[0.5833333333333334],horizontal,"(390.0, 262.0)",0.45,0.542,1,2322.758,1,0.0,same
0,395,valid,"[(1175, 774)]",[],[1],[0.7666666666666666],vertical,"(390.0, 762.0)",1.25,0.719,1,2327.408,1,0.0,same
0,396,valid,"[(1176, 798)]",[],[1],[0.5833333333333334],vertical,"(390.0, 262.0)",0.7333333333333333,0.54,1,2332.647,1,0.0,same
0,397,valid,"[(1174, 795)]",[],[1],[0.7166666666666667],vertical,"(390.0, 262.0)",0.4666666666666667,0.675,1,2337.351,2,0.0,same
0,398,catch,"[(1174, 808)]",[],[1],[],vertical,"(890.0, 262.0)",1.7,nan,1,2342.657,2,0.0,same
0,399,valid,"[(1200, 814)]",[],[1],[0.5166666666666666],vertical,"(890.0, 262.0)",1.5166666666666666,0.477,1,2348.09,2,0.0,same
0,400,valid,"[(1171, 803)]",[],[1],[0.5666666666666667],horizontal,"(890.0, 262.0)",1.4,0.522,1,2354.301,3,0.0,same
0,401,valid,"[(1161, 799)]",[],[1],[0.48333333333333334],horizontal,"(390.0, 762.0)",1.45,0.443,1,2360.874,3,0.0,same
0,402,valid,"[(1174, 801)]",[],[1],[0.6],horizontal,"(890.0, 262.0)",0.6166666666666667,0.562,1,2367.179,3,0.0,same
0,403,valid,"[(1156, 782)]",[],[1],[0.5333333333333333],horizontal,"(890.0, 262.0)",1.4666666666666666,0.492,1,2372.84,3,0.0,same
0,404,catch,"[(1138, 784)]",[],[1],[],horizontal,"(890.0, 262.0)",1.7,nan,1,2378.69,3,0.0,same
0,405,valid,"[(1175, 778)]",[],[1],[0.5333333333333333],horizontal,"(890.0, 262.0)",1.4166666666666667,0.494,1,2384.357,3,0.0,same
0,406,valid,"[(1161, 780)]",[],[1],[0.5166666666666666],vertical,"(890.0, 262.0)",0.43333333333333335,0.484,1,2390.507,3,0.0,same
0,407,catch,"[(1161, 782)]",[],[1],[],horizontal,"(890.0, 762.0)",,"('cti', 1.235),nan",0,2395.946,0,0.02,same
0,408,valid,"[(1142, 799)]",[],[1],[0.6],horizontal,"(890.0, 762.0)",1.4,0.559,1,2400.591,1,0.02,same
0,409,valid,"[(1171, 783)]",[],[1],[0.85],horizontal,"(890.0, 762.0)",1.0333333333333332,nan,0,2406.278,0,0.02,same
0,410,catch,"[(1175, 814)]",[],[1],[],vertical,"(390.0, 262.0)",1.7,nan,1,2411.276,1,0.02,same
0,411,valid,"[(1170, 775)]",[],[1],[0.6166666666666667],vertical,"(390.0, 762.0)",0.48333333333333334,0.577,1,2416.808,1,0.02,same
0,412,valid,"[(1175, 783)]",[],[1],[0.85],horizontal,"(890.0, 762.0)",0.55,nan,0,2421.751,0,0.02,same
0,413,invalid_adjacent_other_bar,"[(1153, 799)]",[],[1],[0.6833333333333333],vertical,"(890.0, 262.0)",1.05,0.642,1,2426.168,1,0.02,other
0,414,catch,"[(1175, 811)]",[],[1],[],vertical,"(890.0, 262.0)",1.7,nan,1,2431.376,1,0.02,same
0,415,valid,"[(1155, 774)]",[],[1],[0.55],horizontal,"(890.0, 262.0)",0.75,0.51,1,2436.657,1,0.02,same
0,416,valid,"[(1172, 798)]",[],[1],[0.5833333333333334],horizontal,"(390.0, 762.0)",0.9333333333333333,0.545,1,2441.629,2,0.02,same
0,417,valid,"[(1161, 783)]",[],[1],[0.6166666666666667],vertical,"(890.0, 262.0)",0.4666666666666667,0.575,1,2447.125,2,0.02,same
0,418,valid,"[(1171, 792)]",[],[1],[0.4166666666666667],vertical,"(890.0, 762.0)",1.2833333333333332,0.374,1,2452.013,2,0.02,same
0,419,catch,"[(1174, 795)]",[],[1],[],horizontal,"(890.0, 762.0)",1.7,nan,1,2458.152,3,0.02,same
0,420,valid,"[(1148, 788)]",[],[1],[0.75],vertical,"(390.0, 262.0)",1.05,0.706,1,2464.174,3,0.02,same
0,421,valid,"[(1175, 810)]",[],[1],[0.5166666666666666],horizontal,"(890.0, 262.0)",0.9166666666666666,0.485,1,2470.324,3,0.02,same
0,422,valid,"[(1156, 785)]",[],[1],[0.5833333333333334],horizontal,"(890.0, 262.0)",0.5,0.543,1,2475.749,3,0.02,same
0,423,valid,"[(1159, 779)]",[],[1],[0.6666666666666666],vertical,"(890.0, 762.0)",0.6166666666666667,0.626,1,2481.267,3,0.02,same
0,424,catch,"[(1152, 794)]",[],[1],[],horizontal,"(390.0, 762.0)",1.7,nan,1,2486.956,3,0.02,same
0,425,valid,"[(1141, 802)]",[],[1],[0.6333333333333333],horizontal,"(390.0, 762.0)",1.0166666666666666,0.594,1,2492.837,3,0.02,same
0,426,catch,"[(1169, 796)]",[],[1],[],horizontal,"(390.0, 762.0)",1.7,nan,1,2499.107,3,0.02,same
0,427,invalid_adjacent_other_bar,"[(1156, 799)]",[],[1],[0.5833333333333334],vertical,"(890.0, 762.0)",0.4,0.542,1,2505.095,3,0.02,other
0,428,valid,"[(1163, 781)]",[],[1],[0.43333333333333335],vertical,"(390.0, 262.0)",1.5333333333333332,0.393,1,2510.125,3,0.02,same
0,429,valid,"[(1156, 780)]",[],[1],[0.5833333333333334],vertical,"(890.0, 762.0)",0.8166666666666667,0.538,1,2516.53,3,0.02,same
0,430,valid,"[(1162, 779)]",[],[1],"[0.85, 0.85]",vertical,"(890.0, 762.0)",0.5333333333333333,"0.798,nan",0,2522.541,0,0.02,same
0,431,valid,"[(1152, 793)]",[],[1],[0.6666666666666666],horizontal,"(390.0, 262.0)",1.2,0.619,1,2526.574,1,0.02,same
0,432,valid,"[(1162, 774)]",[],[1],[0.5666666666666667],vertical,"(890.0, 762.0)",0.48333333333333334,0.529,1,2532.106,1,0.02,same
0,433,valid,"[(1166, 786)]",[],[1],[0.7],horizontal,"(890.0, 262.0)",0.6,0.652,1,2536.166,1,0.02,same
0,434,valid,"[(1161, 812)]",[],[1],[0.6833333333333333],horizontal,"(390.0, 762.0)",1.0,0.644,1,2540.621,2,0.02,same
0,435,valid,"[(1170, 784)]",[],[1],[0.8166666666666667],horizontal,"(390.0, 762.0)",0.8666666666666667,0.766,1,2546.077,2,0.02,same
0,436,valid,"[(1151, 784)]",[],[1],[0.5833333333333334],vertical,"(390.0, 262.0)",0.65,0.544,1,2551.475,2,0.02,same
0,437,valid,"[(1175, 812)]",[],[1],[0.6333333333333333],vertical,"(390.0, 262.0)",0.7166666666666667,0.59,1,2556.281,3,0.02,same
0,438,valid,"[(1151, 799)]",[],[1],[0.85],vertical,"(890.0, 762.0)",1.1833333333333333,nan,0,2562.024,0,0.02,same
0,439,catch,"[(1155, 806)]",[],[1],[],horizontal,"(390.0, 262.0)",1.7,nan,1,2567.041,1,0.02,same
0,440,valid,"[(1171, 775)]",[],[1],[0.65],vertical,"(390.0, 262.0)",0.55,0.611,1,2572.377,1,0.02,same
0,441,catch,"[(1176, 784)]",[],[1],[],vertical,"(390.0, 762.0)",,"('cti', 1.655),nan",0,2577.283,0,0.04,same
0,442,valid,"[(1179, 810)]",[],[1],[0.5333333333333333],vertical,"(390.0, 762.0)",0.8,0.489,1,2582.041,1,0.04,same
0,443,invalid_adjacent_other_bar,"[(1159, 790)]",[],[1],[0.55],horizontal,"(390.0, 762.0)",0.75,0.509,1,2587.026,1,0.04,other
0,444,valid,"[(1156, 793)]",[],[1],[0.5833333333333334],horizontal,"(890.0, 262.0)",1.1833333333333333,0.546,1,2592.052,1,0.04,same
0,445,valid,"[(1171, 786)]",[],[1],[0.5166666666666666],vertical,"(890.0, 262.0)",1.5,0.481,1,2597.027,2,0.04,same
0,446,catch,"[(1136, 794)]",[],[1],[],vertical,"(390.0, 262.0)",1.7,nan,1,2603.325,2,0.04,same
0,447,valid,"[(1166, 773)]",[],[1],[0.6333333333333333],horizontal,"(390.0, 262.0)",1.4833333333333334,0.591,1,2608.808,2,0.04,same
0,448,valid,"[(1176, 811)]",[],[1],[0.6666666666666666],horizontal,"(890.0, 762.0)",0.6,0.625,1,2614.848,3,0.04,same
0,449,valid,"[(1162, 789)]",[],[1],[0.7666666666666666],vertical,"(890.0, 262.0)",1.1,0.72,1,2620.825,3,0.04,same
0,450,valid,"[(1156, 780)]",[],[1],[0.5666666666666667],vertical,"(390.0, 762.0)",0.9,0.527,1,2627.143,3,0.04,same
0,451,valid,"[(1170, 790)]",[],[1],[0.5333333333333333],horizontal,"(890.0, 262.0)",0.36666666666666664,0.496,1,2632.92,3,0.04,same
0,452,valid,"[(1175, 801)]",[],[1],[0.6],vertical,"(390.0, 262.0)",1.3333333333333333,0.56,1,2637.992,3,0.04,same
0,453,catch,"[(1141, 792)]",[],[1],[],horizontal,"(890.0, 262.0)",1.7,nan,1,2644.258,3,0.04,same
0,454,valid,"[(1170, 794)]",[],[1],[0.6333333333333333],vertical,"(390.0, 762.0)",1.4333333333333333,0.602,1,2649.967,3,0.04,same
0,455,valid,"[(1161, 808)]",[],[1],[0.7333333333333333],vertical,"(390.0, 762.0)",1.05,0.689,1,2656.49,3,0.04,same
0,456,catch,"[(1153, 794)]",[],[1],[],horizontal,"(890.0, 262.0)",1.7,nan,1,2662.776,3,0.04,same
0,457,valid,"[(1156, 799)]",[],[1],[0.5833333333333334],horizontal,"(890.0, 262.0)",1.1666666666666667,0.54,1,2669.075,3,0.02,same
0,458,valid,"[(1176, 791)]",[],[1],[0.6166666666666667],vertical,"(890.0, 762.0)",1.4166666666666667,0.578,1,2674.905,3,0.02,same
0,459,valid,"[(1156, 792)]",[],[1],[0.6166666666666667],horizontal,"(390.0, 762.0)",0.75,0.579,1,2681.538,3,0.02,same
0,460,valid,"[(1169, 790)]",[],[1],[0.5333333333333333],vertical,"(890.0, 262.0)",1.45,0.494,1,2687.176,3,0.02,same
0,461,catch,"[(1150, 791)]",[],[1],[],horizontal,"(890.0, 262.0)",1.7,nan,1,2693.494,3,0.02,same
0,462,valid,"[(1171, 803)]",[],[1],[0.85],vertical,"(890.0, 262.0)",0.55,nan,0,2699.676,0,0.02,same
0,463,valid,"[(1132, 792)]",[],[1],[0.6666666666666666],horizontal,"(390.0, 262.0)",1.4333333333333333,0.628,1,2704.293,1,0.02,same
0,464,valid,"[(1155, 799)]",[],[1],[0.6833333333333333],horizontal,"(890.0, 762.0)",0.9,0.643,1,2709.781,1,0.02,same
0,465,valid,"[(1155, 788)]",[],[1],[0.5333333333333333],horizontal,"(890.0, 262.0)",0.35,0.493,1,2714.709,1,0.02,same
0,466,invalid_adjacent_other_bar,"[(1161, 766)]",[],[1],[0.4],vertical,"(890.0, 262.0)",1.5166666666666666,0.36,1,2718.808,2,0.02,other
0,467,valid,"[(1162, 790)]",[],[1],[0.6],horizontal,"(890.0, 262.0)",1.1166666666666667,0.555,1,2724.667,2,0.02,same
0,468,valid,"[(1159, 784)]",[],[1],[0.85],horizontal,"(890.0, 762.0)",0.7166666666666667,nan,0,2730.073,0,0.02,same
0,469,valid,"[(1132, 795)]",[],[1],[0.6166666666666667],horizontal,"(390.0, 762.0)",0.6,0.574,1,2734.642,1,0.02,same
0,470,catch,"[(1175, 785)]",[],[1],[],vertical,"(890.0, 762.0)",1.7,nan,1,2739.356,1,0.02,same
0,471,valid,"[(1166, 787)]",[],[1],[0.4666666666666667],horizontal,"(390.0, 762.0)",1.3333333333333333,0.431,1,2744.458,1,0.02,same
0,472,invalid_adjacent_other_bar,"[(1171, 803)]",[],[1],[0.4],horizontal,"(390.0, 262.0)",1.5,0.361,1,2750.054,2,0.02,other
0,473,valid,"[(1170, 783)]",[],[1],[0.5333333333333333],horizontal,"(890.0, 262.0)",0.9333333333333333,0.494,1,2755.958,2,0.02,same
0,474,valid,"[(1170, 801)]",[],[1],[0.5666666666666667],vertical,"(390.0, 262.0)",0.45,0.526,1,2760.958,2,0.02,same
0,475,invalid_adjacent_other_bar,"[(1161, 812)]",[],[1],[0.5666666666666667],vertical,"(390.0, 262.0)",1.3,0.525,1,2765.703,3,0.02,other
0,476,valid,"[(1170, 794)]",[],[1],[0.6666666666666666],vertical,"(390.0, 762.0)",1.15,0.628,1,2772.443,3,0.02,same
0,477,valid,"[(1201, 799)]",[],[1],[0.65],vertical,"(390.0, 262.0)",0.6166666666666667,0.604,1,2778.536,3,0.02,same
0,478,valid,"[(1156, 786)]",[],[1],[0.5666666666666667],horizontal,"(390.0, 762.0)",0.6166666666666667,0.524,1,2784.207,3,0.02,same
0,479,catch,"[(1160, 782)]",[],[1],[],vertical,"(390.0, 762.0)",1.7,nan,1,2789.987,3,0.02,same
0,480,catch,"[(1161, 811)]",[],[1],[],vertical,"(390.0, 262.0)",1.7,nan,1,2795.636,3,0.02,same
0,481,valid,"[(1159, 802)]",[],[1],[0.55],vertical,"(390.0, 262.0)",1.3333333333333333,0.51,1,2801.575,3,0.02,same
0,482,valid,"[(1164, 794)]",[],[1],[0.48333333333333334],vertical,"(890.0, 762.0)",1.4,0.443,1,2807.493,3,0.02,same
0,483,valid,"[(1165, 784)]",[],[1],[0.6333333333333333],vertical,"(390.0, 262.0)",1.2333333333333334,0.583,1,2814.038,3,0.02,same
0,484,invalid_adjacent_other_bar,"[(1171, 795)]",[],[1],[0.5666666666666667],vertical,"(390.0, 762.0)",0.95,0.525,1,2820.459,3,0.02,other
0,485,catch,"[(1175, 794)]",[],[1],[],horizontal,"(390.0, 262.0)",1.7,nan,1,2826.508,3,0.02,same
0,486,catch,"[(1176, 813)]",[],[1],[],horizontal,"(890.0, 262.0)",1.7,nan,1,2832.293,3,0.02,same
0,487,catch,"[(1175, 795)]",[],[1],[],vertical,"(390.0, 262.0)",1.7,nan,1,2837.956,3,0.02,same
0,488,catch,"[(1166, 786)]",[],[1],[],horizontal,"(890.0, 262.0)",1.7,nan,1,2844.142,3,0.02,same
0,489,valid,"[(1171, 800)]",[],[1],[0.5333333333333333],vertical,"(390.0, 262.0)",0.35,0.491,1,2850.159,3,0.02,same
0,490,valid,"[(1159, 808)]",[],[1],[0.7],vertical,"(390.0, 762.0)",1.3666666666666667,0.652,1,2855.533,3,0.02,same
0,491,valid,"[(1174, 804)]",[],[1],[0.7],horizontal,"(890.0, 762.0)",1.15,0.659,1,2862.06,3,0.0,same
0,492,valid,"[(1156, 784)]",[],[1],[0.6166666666666667],horizontal,"(890.0, 262.0)",0.65,0.573,1,2868.194,3,0.0,same
0,493,invalid_same_bar,"[(1165, 770)]",[],[1],[0.5833333333333334],horizontal,"(890.0, 762.0)",0.9,0.542,1,2873.859,3,0.0,same
0,494,catch,"[(1156, 800)]",[],[1],[],horizontal,"(390.0, 762.0)",,"('cti', 1.478),nan",0,2879.776,0,0.02,same
0,495,catch,"[(1145, 808)]",[],[1],[],vertical,"(890.0, 262.0)",1.7,nan,1,2884.672,1,0.02,same
0,496,valid,"[(1156, 786)]",[],[1],[0.7333333333333333],vertical,"(390.0, 262.0)",0.9166666666666666,0.687,1,2889.87,1,0.02,same
0,497,catch,"[(1174, 794)]",[],[1],[],vertical,"(890.0, 262.0)",1.7,nan,1,2895.107,1,0.02,same
0,498,catch,"[(1161, 784)]",[],[1],[],vertical,"(890.0, 262.0)",1.7,nan,1,2900.307,2,0.02,same
0,499,catch,"[(1171, 782)]",[],[1],[],vertical,"(890.0, 762.0)",1.7,nan,1,2905.709,2,0.02,same
0,500,valid,"[(1170, 788)]",[],[1],[0.6333333333333333],horizontal,"(890.0, 762.0)",1.2666666666666666,0.598,1,2911.476,2,0.02,same
0,501,valid,"[(1151, 794)]",[],[1],[0.55],vertical,"(390.0, 762.0)",0.9333333333333333,0.509,1,2916.933,3,0.02,same
0,502,valid,"[(1156, 794)]",[],[1],[0.6],vertical,"(890.0, 762.0)",1.45,0.554,1,2922.559,3,0.02,same
0,503,valid,"[(1159, 791)]",[],[1],[0.65],vertical,"(890.0, 762.0)",1.25,0.607,1,2928.777,3,0.02,same
0,504,valid,"[(1170, 793)]",[],[1],[0.5666666666666667],horizontal,"(390.0, 762.0)",0.8333333333333334,0.523,1,2934.902,3,0.02,same
0,505,catch,"[(1149, 795)]",[],[1],[],horizontal,"(390.0, 262.0)",1.7,nan,1,2940.409,3,0.02,same
0,506,valid,"[(1165, 791)]",[],[1],"[0.85, 0.85]",vertical,"(390.0, 762.0)",0.9,"0.807,nan",0,2946.409,0,0.02,same
0,507,valid,"[(1137, 799)]",[],[1],[0.6166666666666667],vertical,"(890.0, 762.0)",1.0166666666666666,0.578,1,2950.993,1,0.02,same
0,508,valid,"[(1175, 798)]",[],[1],[0.6166666666666667],vertical,"(890.0, 762.0)",0.9333333333333333,0.578,1,2956.208,1,0.02,same
0,509,valid,"[(1174, 785)]",[],[1],[0.6333333333333333],horizontal,"(390.0, 262.0)",1.2166666666666666,0.595,1,2961.306,1,0.02,same
0,510,valid,"[(1164, 803)]",[],[1],[0.6],horizontal,"(390.0, 762.0)",1.5,0.555,1,2966.71,2,0.02,same
0,511,valid,"[(1152, 781)]",[],[1],[0.55],vertical,"(890.0, 762.0)",0.5,0.508,1,2973.177,2,0.02,same
0,512,catch,"[(1176, 783)]",[],[1],[],horizontal,"(390.0, 262.0)",1.7,nan,1,2978.076,2,0.02,same
0,513,catch,"[(1176, 808)]",[],[1],[],vertical,"(390.0, 262.0)",1.7,nan,1,2984.03,3,0.02,same
0,514,valid,"[(1166, 795)]",[],[1],[0.6333333333333333],horizontal,"(390.0, 262.0)",0.5166666666666666,0.593,1,2990.144,3,0.02,same
0,515,valid,"[(1159, 808)]",[],[1],[0.6],horizontal,"(890.0, 262.0)",0.36666666666666664,0.559,1,2995.444,3,0.02,same
0,516,valid,"[(1171, 791)]",[],[1],[0.5666666666666667],vertical,"(390.0, 762.0)",0.7666666666666666,0.525,1,3000.326,3,0.02,same
0,517,valid,"[(1158, 794)]",[],[1],[0.85],horizontal,"(890.0, 762.0)",0.8333333333333334,nan,0,3005.824,0,0.02,same
0,518,valid,"[(1136, 795)]",[],[1],[0.65],vertical,"(890.0, 262.0)",1.0,0.625,1,3010.244,1,0.02,same
0,519,catch,"[(1158, 783)]",[],[1],[],vertical,"(390.0, 262.0)",1.7,nan,1,3015.56,1,0.02,same
0,520,invalid_same_bar,"[(1147, 784)]",[],[1],[0.6666666666666666],horizontal,"(890.0, 762.0)",1.25,0.624,1,3020.644,1,0.02,same
0,521,valid,"[(1151, 812)]",[],[1],[0.6333333333333333],horizontal,"(890.0, 762.0)",1.35,0.584,1,3026.07,2,0.02,same
0,522,valid,"[(1172, 802)]",[],[1],[0.7666666666666666],vertical,"(890.0, 262.0)",1.0333333333333332,0.722,1,3031.778,2,0.02,same
0,523,valid,"[(1170, 790)]",[],[1],[0.5],horizontal,"(890.0, 762.0)",1.4666666666666666,0.454,1,3037.61,2,0.02,same
0,524,valid,"[(1174, 787)]",[],[1],[0.7333333333333333],vertical,"(890.0, 762.0)",0.75,0.688,1,3043.655,3,0.02,same
0,525,invalid_same_bar,"[(1151, 783)]",[],[1],[0.8333333333333334],vertical,"(890.0, 262.0)",1.1333333333333333,0.784,1,3049.211,3,0.02,same
0,526,valid,"[(1157, 812)]",[],[1],[0.6833333333333333],horizontal,"(390.0, 762.0)",1.3666666666666667,0.64,1,3055.427,3,0.02,same
0,527,valid,"[(1171, 786)]",[],[1],[0.6333333333333333],horizontal,"(390.0, 762.0)",0.6666666666666666,0.585,1,3061.665,3,0.02,same
0,528,valid,"[(1155, 792)]",[],[1],[0.6],horizontal,"(890.0, 262.0)",0.4666666666666667,0.556,1,3067.189,3,0.02,same
0,529,valid,"[(1160, 794)]",[],[1],[0.5833333333333334],vertical,"(890.0, 262.0)",0.6833333333333333,0.545,1,3072.294,3,0.02,same
0,530,valid,"[(1159, 776)]",[],[1],[0.5666666666666667],vertical,"(390.0, 762.0)",0.8833333333333333,0.528,1,3077.885,3,0.02,same
0,531,valid,"[(1148, 788)]",[],[1],[0.5333333333333333],horizontal,"(890.0, 762.0)",0.6833333333333333,0.494,1,3083.5,3,0.02,same
0,532,catch,"[(1156, 786)]",[],[1],[],horizontal,"(890.0, 262.0)",1.7,nan,1,3089.11,3,0.02,same
0,533,catch,"[(1155, 795)]",[],[1],[],horizontal,"(890.0, 262.0)",1.7,nan,1,3094.71,3,0.02,same
0,534,valid,"[(1142, 788)]",[],[1],[0.7],vertical,"(890.0, 762.0)",0.4666666666666667,0.658,1,3100.943,3,0.02,same
0,535,valid,"[(1158, 788)]",[],[1],[0.6333333333333333],vertical,"(390.0, 762.0)",1.2166666666666666,0.592,1,3106.344,3,0.02,same
0,536,valid,"[(1157, 807)]",[],[1],[0.8166666666666667],horizontal,"(390.0, 762.0)",1.0166666666666666,0.772,1,3112.678,3,0.02,same
0,537,valid,"[(1176, 792)]",[],[1],[0.6333333333333333],horizontal,"(390.0, 762.0)",1.1166666666666667,0.591,1,3118.848,3,0.02,same
0,538,invalid_same_bar,"[(1160, 787)]",[],[1],[0.8],horizontal,"(390.0, 262.0)",1.1166666666666667,0.758,1,3124.761,3,0.02,same
0,539,catch,"[(1169, 808)]",[],[1],[],horizontal,"(890.0, 262.0)",,"('cti', 1.573),nan",0,3130.928,0,0.04,same
0,540,valid,"[(1139, 814)]",[],[1],[0.65],horizontal,"(390.0, 762.0)",0.6833333333333333,0.603,1,3135.71,1,0.04,same
0,541,valid,"[(1130, 779)]",[],[1],[0.4666666666666667],horizontal,"(890.0, 262.0)",1.45,0.424,1,3140.494,1,0.04,same
0,542,catch,"[(1155, 809)]",[],[1],[],vertical,"(890.0, 762.0)",1.7,nan,1,3145.56,1,0.04,same
0,543,valid,"[(1175, 803)]",[],[1],[0.6833333333333333],vertical,"(890.0, 262.0)",1.3,0.637,1,3150.56,2,0.04,same
0,544,valid,"[(1159, 798)]",[],[1],[0.85],vertical,"(390.0, 762.0)",0.95,nan,0,3156.81,0,0.02,same
0,545,valid,"[(1131, 813)]",[],[1],[0.6666666666666666],horizontal,"(890.0, 262.0)",1.25,0.622,1,3161.329,1,0.02,same
0,546,catch,"[(1162, 808)]",[],[1],[],vertical,"(890.0, 262.0)",1.7,nan,1,3167.128,1,0.02,same
0,547,valid,"[(1151, 804)]",[],[1],[0.7666666666666666],vertical,"(390.0, 762.0)",0.5,0.714,1,3172.178,1,0.02,same
0,548,valid,"[(1172, 791)]",[],[1],[0.7333333333333333],vertical,"(890.0, 762.0)",0.3833333333333333,0.689,1,3177.346,2,0.02,same
0,549,catch,"[(1176, 814)]",[],[1],[],horizontal,"(890.0, 762.0)",1.7,nan,1,3182.41,2,0.02,same
0,550,catch,"[(1175, 813)]",[],[1],[],horizontal,"(390.0, 762.0)",1.7,nan,1,3188.293,2,0.02,same
0,551,invalid_same_bar,"[(1162, 775)]",[],[1],[0.5833333333333334],horizontal,"(890.0, 262.0)",1.45,0.542,1,3193.794,3,0.02,same
0,552,valid,"[(1174, 807)]",[],[1],[0.43333333333333335],vertical,"(390.0, 262.0)",1.3833333333333333,0.394,1,3200.116,3,0.02,same
0,553,valid,"[(1168, 808)]",[],[1],[0.7833333333333333],vertical,"(890.0, 762.0)",1.0666666666666667,0.737,1,3206.126,3,0.02,same
0,554,valid,"[(1155, 809)]",[],[1],[0.5833333333333334],vertical,"(390.0, 262.0)",0.9333333333333333,0.542,1,3212.393,3,0.02,same
0,555,catch,"[(1157, 761)]",[],[1],[],horizontal,"(890.0, 262.0)",1.7,nan,1,3218.161,3,0.02,same
0,556,invalid_same_bar,"[(1153, 787)]",[],[1],[0.6666666666666666],horizontal,"(390.0, 262.0)",1.2666666666666666,0.624,1,3224.392,3,0.02,same
0,557,catch,"[(1159, 779)]",[],[1],[],vertical,"(390.0, 762.0)",1.7,nan,1,3230.343,3,0.02,same
0,558,catch,"[(1156, 788)]",[],[1],[],vertical,"(390.0, 262.0)",1.7,nan,1,3236.432,3,0.02,same
0,559,catch,"[(1157, 789)]",[],[1],[],vertical,"(890.0, 262.0)",1.7,nan,1,3242.243,3,0.02,same
0,560,valid,"[(1156, 796)]",[],[1],[0.5],horizontal,"(890.0, 262.0)",1.5,0.456,1,3248.358,3,0.02,same
0,561,valid,"[(1172, 810)]",[],[1],[0.6666666666666666],horizontal,"(890.0, 762.0)",0.75,0.621,1,3254.964,3,0.02,same
0,562,valid,"[(1171, 808)]",[],[1],[0.6333333333333333],horizontal,"(390.0, 262.0)",1.05,0.591,1,3261.094,3,0.02,same
0,563,valid,"[(1171, 802)]",[],[1],[0.7166666666666667],vertical,"(390.0, 262.0)",1.1166666666666667,0.669,1,3267.195,3,0.02,same
0,564,valid,"[(1175, 782)]",[],[1],[0.65],vertical,"(890.0, 762.0)",1.3,0.602,1,3273.31,3,0.02,same
0,565,valid,"[(1170, 805)]",[],[1],[0.48333333333333334],horizontal,"(390.0, 262.0)",1.4666666666666666,0.441,1,3279.68,3,0.02,same
0,566,valid,"[(1158, 773)]",[],[1],[0.7],vertical,"(390.0, 262.0)",1.1,0.653,1,3286.125,3,0.02,same
0,567,valid,"[(1165, 784)]",[],[1],[0.7],horizontal,"(890.0, 262.0)",0.6833333333333333,0.656,1,3292.227,3,0.02,same
0,568,catch,"[(1151, 770)]",[],[1],[],vertical,"(390.0, 762.0)",1.7,nan,1,3297.629,3,0.02,same
0,569,catch,"[(1157, 794)]",[],[1],[],vertical,"(390.0, 762.0)",1.7,nan,1,3303.41,3,0.02,same
0,570,valid,"[(1137, 782)]",[],[1],[0.55],vertical,"(890.0, 262.0)",1.15,0.511,1,3309.708,3,0.02,same
0,571,valid,"[(1157, 803)]",[],[1],[0.45],horizontal,"(890.0, 262.0)",1.5166666666666666,0.413,1,3315.636,3,0.02,same
0,572,valid,"[(1155, 786)]",[],[1],[0.6166666666666667],horizontal,"(390.0, 762.0)",1.3166666666666667,0.569,1,3321.861,3,0.02,same
0,573,valid,"[(1132, 798)]",[],[1],[0.6333333333333333],vertical,"(890.0, 262.0)",0.6,0.587,1,3327.782,3,0.02,same
0,574,valid,"[(1150, 794)]",[],[1],[0.5],vertical,"(890.0, 762.0)",1.0666666666666667,0.459,1,3333.045,3,0.02,same
0,575,catch,"[(1142, 834)]",[],[1],[],vertical,"(390.0, 262.0)",1.7,nan,1,3339.086,3,0.02,same
0,576,catch,"[(1146, 781)]",[],[1],[],horizontal,"(890.0, 262.0)",1.7,nan,1,3345.345,3,0.02,same
0,577,catch,"[(1156, 799)]",[],[1],[],vertical,"(890.0, 762.0)",1.7,nan,1,3351.29,3,0.02,same
0,578,valid,"[(1150, 798)]",[],[1],[0.8],vertical,"(390.0, 762.0)",0.8666666666666667,0.749,1,3357.36,3,0.02,same
0,579,catch,"[(1173, 808)]",[],[1],[],vertical,"(390.0, 762.0)",1.7,nan,1,3363.695,3,0.02,same
0,580,catch,"[(1161, 803)]",[],[1],[],horizontal,"(890.0, 262.0)",1.7,nan,1,3369.519,3,0.02,same
0,581,valid,"[(1171, 801)]",[],[1],[0.43333333333333335],horizontal,"(890.0, 262.0)",1.45,0.393,1,3375.636,3,0.02,same
0,582,catch,"[(1151, 808)]",[],[1],[],horizontal,"(390.0, 762.0)",1.7,nan,1,3381.993,3,0.02,same
0,583,valid,"[(1157, 782)]",[],[1],[0.55],horizontal,"(890.0, 762.0)",0.7333333333333333,0.509,1,3388.361,3,0.02,same
0,584,valid,"[(1176, 803)]",[],[1],[0.55],vertical,"(890.0, 762.0)",0.7166666666666667,0.509,1,3394.072,3,0.02,same
0,585,valid,"[(1156, 794)]",[],[1],[0.6333333333333333],horizontal,"(390.0, 762.0)",1.4,0.588,1,3399.644,3,0.02,same
0,586,valid,"[(1158, 768)]",[],[1],[0.5833333333333334],horizontal,"(890.0, 762.0)",0.6666666666666666,0.539,1,3405.557,3,0.02,same
0,587,valid,"[(1147, 783)]",[],[1],[0.8],horizontal,"(390.0, 762.0)",0.36666666666666664,0.748,1,3411.162,3,0.02,same
0,588,valid,"[(1150, 783)]",[],[1],[0.6],vertical,"(890.0, 262.0)",0.5833333333333334,0.555,1,3416.561,3,0.02,same
0,589,valid,"[(1158, 769)]",[],[1],[0.55],vertical,"(890.0, 262.0)",0.4166666666666667,0.506,1,3421.894,3,0.0,same
0,590,valid,"[(1175, 808)]",[],[1],[0.6666666666666666],horizontal,"(890.0, 262.0)",1.3833333333333333,0.624,1,3427.01,3,0.0,same
0,591,valid,"[(1159, 792)]",[],[1],[0.85],vertical,"(890.0, 762.0)",1.1,nan,0,3432.756,0,0.0,same
0,592,catch,"[(1148, 803)]",[],[1],[],horizontal,"(890.0, 762.0)",1.7,nan,1,3437.606,1,0.0,same
0,593,valid,"[(1157, 786)]",[],[1],[0.85],vertical,"(890.0, 262.0)",1.0166666666666666,nan,0,3443.007,0,0.0,same
0,594,invalid_adjacent_other_bar,"[(1157, 782)]",[],[1],[0.6666666666666666],horizontal,"(390.0, 762.0)",1.05,0.622,1,3447.777,1,0.0,other
0,595,catch,"[(1160, 781)]",[],[1],[],vertical,"(890.0, 262.0)",1.7,nan,1,3453.212,1,0.0,same
0,596,valid,"[(1163, 787)]",[],[1],[0.6833333333333333],vertical,"(890.0, 262.0)",0.7,0.632,1,3458.252,1,0.0,same
0,597,catch,"[(1139, 800)]",[],[1],[],horizontal,"(890.0, 762.0)",1.7,nan,1,3463.095,2,0.0,same
0,598,catch,"[(1156, 795)]",[],[1],[],vertical,"(390.0, 262.0)",1.7,nan,1,3468.691,2,0.0,same
0,599,valid,"[(1173, 808)]",[],[1],[0.5833333333333334],horizontal,"(890.0, 262.0)",0.7833333333333333,0.539,1,3474.485,2,0.0,same
0,600,valid,"[(1156, 776)]",[],[1],[0.85],vertical,"(890.0, 762.0)",0.7,nan,0,3479.878,0,0.0,same
0,601,valid,"[(1138, 803)]",[],[1],[0.6666666666666666],vertical,"(390.0, 262.0)",0.3833333333333333,0.62,1,3484.227,1,0.0,same
0,602,valid,"[(1171, 794)]",[],[1],[0.7666666666666666],horizontal,"(890.0, 762.0)",0.48333333333333334,0.716,1,3488.973,1,0.0,same
0,603,catch,"[(1174, 811)]",[],[1],[],vertical,"(390.0, 262.0)",1.7,nan,1,3493.86,1,0.0,same
0,604,valid,"[(1165, 780)]",[],[1],[0.7333333333333333],vertical,"(390.0, 762.0)",0.5,0.682,1,3499.177,2,0.0,same
0,605,catch,"[(1159, 788)]",[],[1],[],horizontal,"(390.0, 262.0)",1.7,nan,1,3504.444,2,0.0,same
0,606,valid,"[(1165, 802)]",[],[1],[0.6166666666666667],vertical,"(390.0, 262.0)",0.9,0.565,1,3510.276,2,0.0,same
0,607,valid,"[(1156, 799)]",[],[1],[0.6333333333333333],horizontal,"(390.0, 262.0)",0.6333333333333333,0.592,1,3515.643,3,0.0,same
0,608,valid,"[(1152, 801)]",[],[1],[0.5166666666666666],vertical,"(890.0, 262.0)",0.9333333333333333,0.473,1,3521.544,3,0.0,same
0,609,invalid_same_bar,"[(1155, 811)]",[],[1],[0.5166666666666666],vertical,"(890.0, 262.0)",0.8166666666666667,0.472,1,3527.2,3,0.0,same
0,610,valid,"[(1168, 794)]",[],[1],[0.6333333333333333],vertical,"(390.0, 262.0)",1.5333333333333332,0.59,1,3532.745,3,0.0,same
0,611,valid,"[(1155, 787)]",[],[1],[0.5666666666666667],vertical,"(890.0, 262.0)",1.3333333333333333,0.527,1,3539.154,3,0.0,same
0,612,valid,"[(1172, 803)]",[],[1],[0.7833333333333333],horizontal,"(390.0, 762.0)",0.9833333333333333,0.735,1,3545.388,3,0.0,same
0,613,valid,"[(1163, 786)]",[],[1],[0.8],horizontal,"(390.0, 262.0)",1.05,0.761,1,3551.155,3,0.0,same
0,614,catch,"[(1161, 799)]",[],[1],[],horizontal,"(390.0, 762.0)",1.7,nan,1,3557.104,3,0.0,same
0,615,valid,"[(1177, 813)]",[],[1],[0.5833333333333334],vertical,"(390.0, 262.0)",1.05,0.539,1,3562.889,3,0.0,same
0,616,valid,"[(1154, 808)]",[],[1],[0.7],horizontal,"(390.0, 262.0)",0.9,0.655,1,3568.584,3,0.0,same
0,617,valid,"[(1166, 784)]",[],[1],[0.6833333333333333],vertical,"(390.0, 762.0)",1.35,0.633,1,3574.595,3,0.0,same
0,618,valid,"[(1156, 787)]",[],[1],[0.8166666666666667],horizontal,"(390.0, 262.0)",1.4833333333333334,0.769,1,3580.912,3,0.0,same
0,619,valid,"[(1153, 788)]",[],[1],[0.5333333333333333],horizontal,"(890.0, 762.0)",1.35,0.49,1,3587.295,3,0.0,same
0,620,valid,"[(1175, 813)]",[],[1],[0.6],vertical,"(390.0, 262.0)",1.4833333333333334,0.555,1,3593.278,3,0.0,same
0,621,catch,"[(1150, 785)]",[],[1],[],horizontal,"(890.0, 762.0)",1.7,nan,1,3599.67,3,0.0,same
0,622,valid,"[(1176, 813)]",[],[1],"[0.85, 0.85]",horizontal,"(890.0, 262.0)",1.0666666666666667,"0.803,nan",0,3605.896,0,0.0,same
0,623,valid,"[(1156, 814)]",[],[1],[0.55],horizontal,"(390.0, 262.0)",0.7666666666666666,0.502,1,3610.458,1,0.0,same
0,624,valid,"[(1160, 819)]",[],[1],[0.3333333333333333],vertical,"(890.0, 762.0)",1.3166666666666667,0.293,1,3645.98,1,0.0,same
0,625,valid,"[(1159, 784)]",[],[1],[0.5666666666666667],horizontal,"(390.0, 762.0)",0.4,0.522,1,3651.886,1,0.0,same
0,626,catch,"[(1175, 774)]",[],[1],[],vertical,"(390.0, 762.0)",1.7,nan,1,3656.297,2,0.0,same
0,627,invalid_adjacent_other_bar,"[(1158, 789)]",[],[1],[0.65],vertical,"(390.0, 262.0)",1.25,0.605,1,3661.895,2,0.0,other
0,628,valid,"[(1175, 811)]",[],[1],[0.5166666666666666],horizontal,"(890.0, 262.0)",0.8833333333333333,0.472,1,3667.594,2,0.0,same
0,629,valid,"[(1158, 792)]",[],[1],[0.5666666666666667],horizontal,"(890.0, 762.0)",0.48333333333333334,0.522,1,3672.762,3,0.0,same
0,630,valid,"[(1170, 792)]",[],[1],[0.7833333333333333],vertical,"(390.0, 262.0)",1.1,0.736,1,3678.326,3,0.0,same
0,631,catch,"[(1175, 794)]",[],[1],[],vertical,"(390.0, 762.0)",1.7,nan,1,3684.495,3,0.0,same
0,632,catch,"[(1158, 772)]",[],[1],[],vertical,"(390.0, 262.0)",1.7,nan,1,3690.473,3,0.0,same
0,633,valid,"[(1171, 781)]",[],[1],[0.5166666666666666],horizontal,"(890.0, 262.0)",0.7333333333333333,0.483,1,3696.672,3,0.0,same
0,634,catch,"[(1170, 780)]",[],[1],[],vertical,"(390.0, 262.0)",1.7,nan,1,3702.579,3,0.0,same
0,635,valid,"[(1163, 808)]",[],[1],[0.6],vertical,"(890.0, 762.0)",1.4,0.551,1,3708.729,3,0.0,same
0,636,valid,"[(1162, 779)]",[],[1],[0.6833333333333333],vertical,"(890.0, 762.0)",1.1,0.643,1,3714.795,3,0.0,same
0,637,valid,"[(1153, 791)]",[],[1],[0.06666666666666667],horizontal,"(890.0, 262.0)",1.5333333333333332,0.035,0,3721.159,0,0.0,same
0,638,catch,"[(1169, 809)]",[],[1],[],vertical,"(390.0, 762.0)",1.7,nan,1,3725.927,1,0.0,same
0,639,catch,"[(1174, 781)]",[],[1],[],vertical,"(390.0, 262.0)",1.7,nan,1,3730.762,1,0.0,same
0,640,valid,"[(1172, 775)]",[],[1],[0.4166666666666667],vertical,"(890.0, 262.0)",1.5333333333333332,0.378,1,3735.566,1,0.0,same
0,641,valid,"[(1159, 788)]",[],[1],[0.7333333333333333],horizontal,"(890.0, 762.0)",0.55,0.688,1,3740.822,2,0.0,same
0,642,catch,"[(1161, 795)]",[],[1],[],horizontal,"(390.0, 262.0)",1.7,nan,1,3746.157,2,0.0,same
0,643,valid,"[(1151, 801)]",[],[1],[0.5333333333333333],horizontal,"(390.0, 762.0)",1.4333333333333333,0.487,1,3751.528,2,0.0,same
0,644,valid,"[(1150, 784)]",[],[1],[0.2],vertical,"(390.0, 262.0)",1.3833333333333333,0.168,0,3757.298,0,0.0,same
0,645,valid,"[(1146, 814)]",[],[1],[0.6333333333333333],horizontal,"(390.0, 262.0)",0.35,0.587,1,3762.217,1,0.0,same
0,646,invalid_same_bar,"[(1152, 813)]",[],[1],[0.7666666666666666],horizontal,"(890.0, 762.0)",1.1666666666666667,0.729,1,3766.655,1,0.0,same
0,647,valid,"[(1171, 804)]",[],[1],[0.55],horizontal,"(390.0, 262.0)",0.5,0.506,1,3772.445,1,0.0,same
0,648,catch,"[(1164, 813)]",[],[1],[],horizontal,"(390.0, 762.0)",1.7,nan,1,3776.859,2,0.0,same
0,649,catch,"[(1156, 808)]",[],[1],[],vertical,"(390.0, 762.0)",1.7,nan,1,3782.328,2,0.0,same
0,650,catch,"[(1148, 791)]",[],[1],[],vertical,"(390.0, 262.0)",1.7,nan,1,3787.884,2,0.0,same
0,651,valid,"[(1176, 815)]",[],[1],[0.6166666666666667],horizontal,"(390.0, 762.0)",1.2166666666666666,0.573,1,3793.36,3,0.0,same
0,652,valid,"[(1192, 810)]",[],[1],[0.6],horizontal,"(890.0, 262.0)",1.35,0.556,1,3799.811,3,0.0,same
0,653,valid,"[(1157, 785)]",[],[1],[0.7333333333333333],horizontal,"(890.0, 762.0)",1.1333333333333333,0.684,1,3806.096,3,0.0,same
0,654,valid,"[(1155, 780)]",[],[1],[0.6166666666666667],horizontal,"(890.0, 762.0)",1.05,0.572,1,3812.445,3,0.0,same
0,655,valid,"[(1145, 783)]",[],[1],[0.4166666666666667],horizontal,"(390.0, 262.0)",1.2666666666666666,0.38,1,3818.395,3,0.0,same
0,656,valid,"[(1159, 784)]",[],[1],[0.5833333333333334],horizontal,"(390.0, 262.0)",0.6166666666666667,0.542,1,3824.58,3,0.0,same
0,657,valid,"[(1155, 786)]",[],[1],[0.65],vertical,"(390.0, 762.0)",0.8,0.605,1,3829.921,3,0.0,same
0,658,catch,"[(1171, 773)]",[],[1],[],horizontal,"(890.0, 262.0)",1.7,nan,1,3835.513,3,0.0,same
0,659,valid,"[(1166, 789)]",[],[1],[0.6833333333333333],vertical,"(890.0, 762.0)",1.4166666666666667,0.644,1,3841.51,3,0.0,same
0,660,valid,"[(1169, 796)]",[],[1],[0.7333333333333333],horizontal,"(890.0, 762.0)",0.9,0.692,1,3848.2,3,0.0,same
0,661,catch,"[(1171, 796)]",[],[1],[],vertical,"(890.0, 762.0)",,"('cti', 1.382),nan",0,3854.014,0,0.02,same
0,662,valid,"[(1160, 813)]",[],[1],[0.5833333333333334],vertical,"(390.0, 762.0)",1.2333333333333334,0.544,1,3858.513,1,0.02,same
0,663,valid,"[(1170, 790)]",[],[1],[0.6833333333333333],horizontal,"(390.0, 762.0)",1.25,0.64,1,3863.445,1,0.02,same
0,664,valid,"[(1175, 802)]",[],[1],[0.6333333333333333],vertical,"(890.0, 262.0)",1.1666666666666667,0.592,1,3868.829,1,0.02,same
0,665,catch,"[(1157, 789)]",[],[1],[],vertical,"(390.0, 762.0)",1.7,nan,1,3874.112,2,0.02,same
0,666,valid,"[(1166, 781)]",[],[1],[0.6333333333333333],vertical,"(390.0, 762.0)",0.8,0.602,1,3879.607,2,0.02,same
0,667,valid,"[(1172, 789)]",[],[1],[0.55],horizontal,"(890.0, 762.0)",1.4166666666666667,0.501,1,3884.637,2,0.02,same
0,668,valid,"[(1156, 789)]",[],[1],[0.6833333333333333],vertical,"(390.0, 262.0)",0.6,0.639,1,3890.963,3,0.02,same
0,669,catch,"[(1162, 779)]",[],[1],[],horizontal,"(890.0, 762.0)",1.7,nan,1,3896.645,3,0.02,same
0,670,valid,"[(1174, 779)]",[],[1],[],horizontal,"(390.0, 262.0)",,"('cti', 0.755)",0,3902.331,0,0.02,same
0,671,valid,"[(1157, 813)]",[],[1],[0.6],horizontal,"(890.0, 762.0)",0.9166666666666666,0.555,1,3906.308,1,0.02,same
0,672,valid,"[(1160, 789)]",[],[1],[0.6166666666666667],horizontal,"(890.0, 762.0)",1.35,0.574,1,3911.062,1,0.02,same
0,673,valid,"[(1166, 785)]",[],[1],[0.6333333333333333],horizontal,"(390.0, 762.0)",0.6333333333333333,0.594,1,3916.627,1,0.02,same
0,674,valid,"[(1155, 811)]",[],[1],[0.5666666666666667],horizontal,"(390.0, 262.0)",0.6833333333333333,0.518,1,3921.822,2,0.02,same
0,675,catch,"[(1150, 818)]",[],[1],[],horizontal,"(890.0, 762.0)",1.7,nan,1,3927.245,2,0.02,same
0,676,valid,"[(1173, 802)]",[],[1],[0.5333333333333333],vertical,"(390.0, 762.0)",0.5,0.492,1,3932.746,2,0.02,same
0,677,valid,"[(1155, 785)]",[],[1],[0.7],vertical,"(890.0, 262.0)",0.4,0.654,1,3937.622,3,0.02,same
0,678,catch,"[(1166, 780)]",[],[1],[],vertical,"(390.0, 262.0)",1.7,nan,1,3943.084,3,0.02,same
0,679,catch,"[(1164, 780)]",[],[1],[],horizontal,"(890.0, 262.0)",1.7,nan,1,3949.129,3,0.02,same
0,680,valid,"[(1169, 771)]",[],[1],[0.5666666666666667],vertical,"(890.0, 262.0)",1.1,0.522,1,3954.769,3,0.02,same
0,681,catch,"[(1156, 778)]",[],[1],[],vertical,"(390.0, 262.0)",1.7,nan,1,3960.39,3,0.02,same
0,682,valid,"[(1170, 786)]",[],[1],[0.5666666666666667],vertical,"(390.0, 762.0)",0.36666666666666664,0.535,1,3966.406,3,0.02,same
0,683,valid,"[(1174, 793)]",[],[1],[0.6333333333333333],horizontal,"(390.0, 262.0)",1.3333333333333333,0.603,1,3971.256,3,0.02,same
0,684,catch,"[(1161, 793)]",[],[1],[],horizontal,"(390.0, 762.0)",1.7,nan,1,3977.128,3,0.02,same
0,685,valid,"[(1151, 789)]",[],[1],[0.6333333333333333],horizontal,"(390.0, 762.0)",0.6333333333333333,0.593,1,3982.738,3,0.02,same
0,686,valid,"[(1136, 775)]",[],[1],[0.55],horizontal,"(890.0, 262.0)",0.5333333333333333,0.51,1,3988.493,3,0.02,same
0,687,valid,"[(1171, 786)]",[],[1],[0.6],horizontal,"(390.0, 262.0)",1.3,0.552,1,3993.596,3,0.02,same
0,688,invalid_adjacent_other_bar,"[(1141, 785)]",[],[1],[0.3],horizontal,"(390.0, 762.0)",1.4833333333333334,0.26,1,3999.964,3,0.02,other
