block,trial,trial_type,taps_start_loc_during_fix,taps_end_loc_during_fix,taps_on_lever_during_fix,taps_on_lever_s_during_fix,bar_orientation,target_xy,cti,rt,acc,time,pulses,fa_rate_recent100,actual_invalid_type
0,1,valid,"[(1111, 825)]",[],[1],[0.4],horizontal,"(390.0, 262.0)",0.6833333333333333,0.375,1,0.566,1,0.0,same
0,2,valid,"[(921, 644), (723, 917), (962, 505), (533, 939), (709, 949), (443, 705), (763, 700), (928, 954), (697, 954), (972, 799), (525, 554), (1066, 860)]",[],"[0, 0, 0, 0, 0, 0, 0, 0, 0, 0, 0, 1]",[0.6],vertical,"(390.0, 762.0)",1.3,0.556,1,9.826,1,0.0,same
0,3,valid,"[(1160, 776)]",[],[1],[0.5666666666666667],horizontal,"(890.0, 762.0)",0.7,0.533,1,5855.73,1,0.0,same
0,4,catch,"[(1159, 765)]",[],[1],[],vertical,"(390.0, 262.0)",1.7,nan,1,5860.807,2,0.0,same
0,5,catch,"[(1146, 781)]",[],[1],[],vertical,"(390.0, 262.0)",1.7,nan,1,5866.756,2,0.0,same
0,6,valid,"[(1153, 772)]",[],[1],[0.55],vertical,"(890.0, 762.0)",1.1833333333333333,0.512,1,5872.818,2,0.0,same
0,7,invalid_adjacent_other_bar,"[(1157, 806)]",[],[1],[0.5333333333333333],vertical,"(890.0, 762.0)",0.8166666666666667,0.497,1,5878.54,3,0.0,other
0,8,invalid_same_bar,"[(1178, 793)]",[],[1],[0.5833333333333334],horizontal,"(390.0, 262.0)",1.45,0.541,1,5884.423,3,0.0,same
0,9,catch,"[(1161, 785)]",[],[1],[],vertical,"(890.0, 762.0)",1.7,nan,1,5890.456,3,0.0,same
0,10,catch,"[(1208, 836)]",[],[1],[],horizontal,"(890.0, 762.0)",1.7,nan,1,5896.606,3,0.0,same
0,11,catch,"[(1160, 776)]",[],[1],[],vertical,"(390.0, 762.0)",1.7,nan,1,5902.814,3,0.0,same
0,12,catch,"[(1154, 785)]",[],[1],[],horizontal,"(390.0, 262.0)",1.7,nan,1,5908.707,3,0.0,same
0,13,valid,"[(1136, 777)]",[],[1],[0.5166666666666666],vertical,"(890.0, 262.0)",0.5666666666666667,0.478,1,5914.505,3,0.0,same
0,14,valid,"[(1158, 813)]",[],[1],[0.5666666666666667],horizontal,"(390.0, 762.0)",1.1333333333333333,0.526,1,5919.988,3,0.0,same
0,15,invalid_same_bar,"[(1133, 821)]",[],[1],[0.55],vertical,"(890.0, 262.0)",0.48333333333333334,0.513,1,5926.406,3,0.0,same
0,16,catch,"[(1167, 777)]",[],[1],[],vertical,"(890.0, 262.0)",1.7,nan,1,5931.936,3,0.0,same
0,17,valid,"[(1131, 794)]",[],[1],[0.55],vertical,"(890.0, 262.0)",0.9333333333333333,0.507,1,5938.173,3,0.0,same
0,18,valid,"[(1171, 788)]",[],[1],[0.48333333333333334],vertical,"(890.0, 262.0)",1.4666666666666666,0.448,1,5943.757,3,0.0,same
0,19,valid,"[(1168, 781)]",[],[1],[0.7166666666666667],horizontal,"(890.0, 262.0)",1.1666666666666667,0.673,1,5950.338,3,0.0,same
0,20,invalid_same_bar,"[(1155, 773)]",[],[1],[0.55],horizontal,"(390.0, 262.0)",0.65,0.513,1,5956.69,3,0.0,same
0,21,valid,"[(1131, 796)]",[],[1],[0.6],horizontal,"(890.0, 262.0)",0.4,0.558,1,5962.39,3,0.0,same
0,22,valid,"[(1125, 789)]",[],[1],[0.6166666666666667],horizontal,"(390.0, 262.0)",0.8833333333333333,0.58,1,5967.988,3,0.0,same
0,23,invalid_same_bar,"[(1162, 779)]",[],[1],[0.85],vertical,"(390.0, 762.0)",1.0166666666666666,nan,0,5974.027,0,0.0,same
0,24,valid,"[(1170, 812)]",[],[1],[0.5666666666666667],vertical,"(390.0, 262.0)",0.6666666666666666,0.531,1,5978.673,1,0.0,same
0,25,valid,"[(1155, 780)]",[],[1],[0.6166666666666667],horizontal,"(890.0, 762.0)",1.0833333333333333,0.579,1,5983.807,1,0.0,same
0,26,valid,"[(1166, 804)]",[],[1],[0.6166666666666667],vertical,"(390.0, 262.0)",1.2833333333333332,0.573,1,5989.185,1,0.0,same
0,27,valid,"[(1162, 773)]",[],[1],[0.5333333333333333],vertical,"(390.0, 262.0)",0.8,0.502,1,5994.365,2,0.0,same
0,28,catch,"[(1131, 800)]",[],[1],[],vertical,"(890.0, 262.0)",1.7,nan,1,5999.463,2,0.0,same
0,29,valid,"[(1157, 799)]",[],[1],[0.5166666666666666],vertical,"(390.0, 762.0)",1.3333333333333333,0.472,1,6004.923,2,0.0,same
0,30,catch,"[(1130, 791)]",[],[1],[],horizontal,"(890.0, 762.0)",1.7,nan,1,6010.873,3,0.0,same
0,31,invalid_adjacent_other_bar,"[(1190, 802)]",[],[1],[0.6833333333333333],horizontal,"(390.0, 762.0)",0.5666666666666667,0.642,1,6017.005,3,0.0,other
0,32,catch,"[(1131, 795)]",[],[1],[],vertical,"(390.0, 762.0)",1.7,nan,1,6022.906,3,0.0,same
0,33,valid,"[(1161, 788)]",[],[1],[0.85],vertical,"(890.0, 762.0)",0.7833333333333333,nan,0,6028.823,0,0.0,same
0,34,valid,"[(1125, 783)]",[],[1],[0.6666666666666666],vertical,"(890.0, 762.0)",0.9833333333333333,0.623,1,6033.539,1,0.0,same
0,35,valid,"[(1136, 803)]",[],[1],[0.6833333333333333],vertical,"(890.0, 762.0)",1.0666666666666667,0.643,1,6038.973,1,0.0,same
0,36,valid,"[(1168, 796)]",[],[1],[0.55],vertical,"(390.0, 262.0)",1.1166666666666667,0.512,1,6044.114,1,0.0,same
0,37,invalid_same_bar,"[(1137, 780)]",[],[1],[0.5],horizontal,"(390.0, 262.0)",0.8166666666666667,0.468,1,6049.623,2,0.0,same
0,38,catch,"[(1160, 806)]",[],[1],[],vertical,"(890.0, 262.0)",1.7,nan,1,6054.557,2,0.0,same
0,39,catch,"[(1120, 811)]",[],[1],[],vertical,"(390.0, 262.0)",1.7,nan,1,6060.51,2,0.0,same
0,40,catch,"[(1170, 782)]",[],[1],[],vertical,"(390.0, 762.0)",1.7,nan,1,6066.289,3,0.0,same
0,41,valid,"[(1170, 781)]",[],[1],[0.55],horizontal,"(890.0, 762.0)",1.25,0.508,1,6072.673,3,0.0,same
0,42,valid,"[(1165, 795)]",[],[1],[0.85],horizontal,"(890.0, 262.0)",0.5833333333333334,nan,0,6078.723,0,0.0,same
0,43,valid,"[(1122, 804)]",[],[1],[0.55],horizontal,"(890.0, 762.0)",1.1666666666666667,0.511,1,6082.839,1,0.0,same
0,44,valid,"[(1165, 780)]",[],[1],[0.6166666666666667],horizontal,"(390.0, 262.0)",0.7833333333333333,0.576,1,6088.123,1,0.0,same
0,45,catch,"[(1162, 807)]",[],[1],[],horizontal,"(890.0, 262.0)",1.7,nan,1,6092.79,1,0.0,same
0,46,valid,"[(1130, 782)]",[],[1],[0.5333333333333333],horizontal,"(390.0, 262.0)",0.7166666666666667,0.497,1,6098.364,2,0.0,same
0,47,valid,"[(1160, 776)]",[],[1],[0.65],horizontal,"(890.0, 262.0)",0.7166666666666667,0.603,1,6103.383,2,0.0,same
0,48,catch,"[(1168, 793)]",[],[1],[],vertical,"(890.0, 762.0)",1.7,nan,1,6108.668,2,0.0,same
0,49,invalid_same_bar,"[(1136, 772)]",[],[1],[0.5333333333333333],horizontal,"(390.0, 262.0)",0.35,0.491,1,6114.574,3,0.0,same
0,50,catch,"[(1165, 781)]",[],[1],[],horizontal,"(890.0, 762.0)",1.7,nan,1,6120.192,3,0.0,same
0,51,invalid_same_bar,"[(1176, 775)]",[],[1],[0.6],vertical,"(890.0, 762.0)",1.5333333333333332,0.556,1,6126.157,3,0.0,same
0,52,catch,"[(1165, 796)]",[],[1],[],horizontal,"(890.0, 262.0)",1.7,nan,1,6132.657,3,0.0,same
0,53,valid,"[(1160, 789)]",[],[1],[0.6],horizontal,"(890.0, 762.0)",1.5,0.555,1,6138.852,3,0.0,same
0,54,valid,"[(1165, 798)]",[],[1],[0.5833333333333334],horizontal,"(390.0, 762.0)",1.3833333333333333,0.543,1,6145.14,3,0.0,same
0,55,valid,"[(1180, 775)]",[],[1],[0.6333333333333333],horizontal,"(390.0, 262.0)",1.0,0.597,1,6151.689,3,0.0,same
0,56,catch,"[(1152, 786)]",[],[1],[],vertical,"(890.0, 762.0)",1.7,nan,1,6157.483,3,0.0,same
0,57,invalid_same_bar,"[(1169, 785)]",[],[1],[0.6],horizontal,"(390.0, 262.0)",0.48333333333333334,0.561,1,6163.257,3,0.0,same
0,58,valid,"[(1121, 778)]",[],[1],[0.55],vertical,"(890.0, 762.0)",0.36666666666666664,0.507,1,6168.765,3,0.0,same
0,59,valid,"[(1135, 790)]",[],[1],[0.85],horizontal,"(890.0, 762.0)",1.3666666666666667,nan,0,6173.984,0,0.0,same
0,60,invalid_adjacent_other_bar,"[(1170, 782)]",[],[1],[0.5666666666666667],vertical,"(390.0, 262.0)",1.0166666666666666,0.522,1,6179.622,1,0.0,other
0,61,valid,"[(1089, 878)]",[],[1],[0.85],horizontal,"(390.0, 262.0)",1.4166666666666667,nan,0,6184.457,0,0.0,same
0,62,catch,"[(1096, 800)]",[],[1],[],horizontal,"(890.0, 262.0)",1.7,nan,1,8214.559,1,0.0,same
0,63,catch,"[(1144, 798)]",[],[1],[],vertical,"(890.0, 262.0)",1.7,nan,1,8219.516,1,0.0,same
0,64,valid,"[(1117, 778)]",[],[1],[0.85],vertical,"(390.0, 262.0)",1.1166666666666667,nan,0,8225.131,0,0.0,same
0,65,valid,"[(1112, 806)]",[],[1],[0.8166666666666667],horizontal,"(390.0, 262.0)",0.36666666666666664,0.766,1,8230.196,1,0.0,same
0,66,catch,"[(1169, 793)]",[],[1],[],vertical,"(890.0, 762.0)",1.7,nan,1,8234.846,1,0.0,same
0,67,valid,"[(1127, 788)]",[],[1],[0.7166666666666667],horizontal,"(390.0, 262.0)",0.9333333333333333,0.666,1,8239.849,1,0.0,same
0,68,invalid_same_bar,"[(1169, 789)]",[],[1],[0.85],horizontal,"(890.0, 762.0)",0.4166666666666667,nan,0,8245.545,0,0.0,same
0,69,valid,"[(1145, 789)]",[],[1],[0.85],horizontal,"(890.0, 262.0)",0.8,nan,0,8250.389,0,0.0,same
0,70,catch,"[(1122, 777)]",[],[1],[],horizontal,"(890.0, 762.0)",1.7,nan,1,8254.823,1,0.0,same
0,71,invalid_same_bar,"[(1154, 791)]",[],[1],[0.85],vertical,"(890.0, 762.0)",0.5333333333333333,nan,0,8260.042,0,0.0,same
0,72,valid,"[(1153, 785)]",[],[1],[0.85],vertical,"(390.0, 262.0)",1.2166666666666666,nan,0,8264.478,0,0.0,same
0,73,valid,"[(1079, 832)]",[],[1],[0.5666666666666667],horizontal,"(390.0, 762.0)",1.0,0.53,1,8269.461,1,0.0,same
0,74,valid,"[(1141, 787)]",[],[1],[0.6333333333333333],vertical,"(390.0, 762.0)",0.7333333333333333,0.589,1,8277.562,1,0.0,same
0,75,catch,"[(1130, 809)]",[],[1],[],horizontal,"(890.0, 762.0)",1.7,nan,1,8282.628,1,0.0,same
0,76,catch,"[(1166, 787)]",[],[1],[],vertical,"(390.0, 262.0)",1.7,nan,1,8287.775,2,0.0,same
0,77,valid,"[(1159, 766)]",[],[1],[0.5333333333333333],vertical,"(890.0, 262.0)",0.43333333333333335,0.491,1,8293.16,2,0.0,same
0,78,valid,"[(1170, 776)]",[],[1],[0.5333333333333333],vertical,"(390.0, 262.0)",1.2666666666666666,0.49,1,8297.759,2,0.0,same
0,79,valid,"[(1165, 806)]",[],[1],[0.5666666666666667],vertical,"(890.0, 762.0)",1.1,0.531,1,8303.426,3,0.0,same
0,80,valid,"[(1162, 796)]",[],[1],[0.5333333333333333],horizontal,"(890.0, 762.0)",0.8666666666666667,0.489,1,8309.666,3,0.0,same
0,81,invalid_same_bar,"[(1160, 761)]",[],[1],[0.7166666666666667],vertical,"(390.0, 762.0)",0.5666666666666667,0.669,1,8314.961,3,0.0,same
0,82,valid,"[(1138, 785)]",[],[1],[0.55],vertical,"(390.0, 762.0)",0.9333333333333333,0.505,1,8320.876,3,0.0,same
0,83,valid,"[(1138, 779)]",[],[1],[0.55],horizontal,"(890.0, 762.0)",0.5,0.508,1,8326.272,3,0.0,same
0,84,catch,"[(1158, 780)]",[],[1],[],vertical,"(890.0, 762.0)",1.7,nan,1,8331.71,3,0.0,same
0,85,valid,"[(1164, 782)]",[],[1],[0.5166666666666666],vertical,"(890.0, 262.0)",0.9166666666666666,0.48,1,8337.533,3,0.0,same
0,86,invalid_adjacent_other_bar,"[(1166, 786)]",[],[1],[0.5166666666666666],horizontal,"(890.0, 262.0)",0.6666666666666666,0.472,1,8343.454,3,0.0,other
0,87,valid,"[(1146, 782)]",[],[1],[0.48333333333333334],horizontal,"(890.0, 262.0)",0.8166666666666667,0.444,1,8348.82,3,0.0,same
0,88,valid,"[(1167, 777)]",[],[1],[0.7666666666666666],vertical,"(390.0, 762.0)",0.8,0.717,1,8354.465,3,0.0,same
0,89,valid,"[(1140, 774)]",[],[1],[0.5833333333333334],vertical,"(390.0, 262.0)",1.4166666666666667,0.543,1,8360.609,3,0.0,same
0,90,valid,"[(1160, 771)]",[],[1],[0.55],horizontal,"(390.0, 762.0)",1.3,0.513,1,8367.122,3,0.0,same
0,91,valid,"[(1185, 796)]",[],[1],[0.5166666666666666],vertical,"(390.0, 262.0)",1.1666666666666667,0.479,1,8373.511,3,0.0,same
0,92,valid,"[(1160, 777)]",[],[1],[0.5833333333333334],vertical,"(890.0, 262.0)",0.35,0.542,1,8379.372,3,0.0,same
0,93,catch,"[(1190, 779)]",[],[1],[],vertical,"(390.0, 262.0)",,"('cti', 1.503),nan",0,8384.493,0,0.02,same
0,94,catch,"[(1135, 822)]",[],[1],[],horizontal,"(390.0, 762.0)",1.7,nan,1,8389.178,1,0.02,same
0,95,valid,"[(1135, 769)]",[],[1],[0.5],horizontal,"(390.0, 262.0)",0.43333333333333335,0.462,1,8400.544,1,0.02,same
0,96,catch,"[(1135, 780)]",[],[1],[],horizontal,"(890.0, 262.0)",1.7,nan,1,8404.9,1,0.02,same
0,97,valid,"[(1150, 798)]",[],[1],[0.7333333333333333],vertical,"(890.0, 262.0)",1.2666666666666666,0.691,1,8410.428,2,0.02,same
0,98,valid,"[(1180, 767)]",[],[1],[0.48333333333333334],vertical,"(890.0, 262.0)",1.2833333333333332,0.441,1,8416.85,2,0.02,same
0,99,valid,"[(1125, 788)]",[],[1],[0.5],vertical,"(890.0, 262.0)",0.7,0.463,1,8422.795,2,0.02,same
0,100,valid,"[(1157, 773)]",[],[1],[0.5333333333333333],horizontal,"(890.0, 762.0)",0.6833333333333333,0.494,1,8428.161,3,0.02,same
0,101,catch,"[(1190, 783)]",[],[1],[],vertical,"(890.0, 762.0)",1.7,nan,1,8433.777,3,0.02,same
0,102,invalid_same_bar,"[(1163, 773)]",[],[1],[0.36666666666666664],horizontal,"(390.0, 262.0)",1.3166666666666667,0.331,1,8439.744,3,0.02,same
0,103,valid,"[(1160, 779)]",[],[1],[0.85],vertical,"(890.0, 262.0)",1.1833333333333333,nan,0,8445.893,0,0.02,same
0,104,valid,"[(1134, 773)]",[],[1],[0.5],vertical,"(890.0, 262.0)",1.15,0.462,1,8450.777,1,0.02,same
0,105,valid,"[(1149, 781)]",[],[1],[0.5833333333333334],vertical,"(890.0, 762.0)",1.1333333333333333,0.542,1,8455.698,1,0.02,same
0,106,valid,"[(1165, 770)]",[],[1],[0.7],horizontal,"(390.0, 762.0)",0.95,0.67,1,8460.894,1,0.02,same
0,107,catch,"[(1160, 796)]",[],[1],[],horizontal,"(890.0, 762.0)",1.7,nan,1,8466.167,2,0.02,same
0,108,invalid_adjacent_other_bar,"[(1148, 801)]",[],[1],[0.5],vertical,"(390.0, 262.0)",0.7,0.462,1,8471.843,2,0.02,other
0,109,valid,"[(1165, 778)]",[],[1],[0.15],vertical,"(890.0, 762.0)",1.25,0.117,0,8476.709,0,0.02,same
0,110,catch,"[(1165, 778)]",[],[1],[],vertical,"(890.0, 762.0)",1.7,nan,1,8481.812,1,0.02,same
0,111,invalid_adjacent_other_bar,"[(1190, 777)]",[],[1],[0.3833333333333333],horizontal,"(890.0, 762.0)",1.5333333333333332,0.343,1,8486.937,1,0.02,other
0,112,catch,"[(1163, 799)]",[],[1],[],horizontal,"(890.0, 762.0)",1.7,nan,1,8492.448,1,0.02,same
0,113,valid,"[(1149, 772)]",[],[1],[0.5333333333333333],vertical,"(390.0, 262.0)",0.7,0.492,1,8497.688,2,0.02,same
0,114,invalid_same_bar,"[(1132, 801)]",[],[1],[0.5166666666666666],horizontal,"(390.0, 762.0)",0.9,0.472,1,8503.109,2,0.02,same
0,115,invalid_same_bar,"[(1145, 786)]",[],[1],[0.5166666666666666],horizontal,"(390.0, 262.0)",1.0333333333333332,0.473,1,8508.831,2,0.02,same
0,116,valid,"[(1166, 786)]",[],[1],[0.6166666666666667],vertical,"(390.0, 762.0)",0.45,0.572,1,8514.58,3,0.02,same
0,117,valid,"[(1169, 791)]",[],[1],[0.5166666666666666],vertical,"(390.0, 262.0)",0.7666666666666666,0.475,1,8520.093,3,0.02,same
0,118,catch,"[(1163, 770)]",[],[1],[],vertical,"(890.0, 262.0)",,"('cti', 1.663),nan",0,8525.444,0,0.04,same
0,119,valid,"[(1165, 781)]",[],[1],[0.5333333333333333],horizontal,"(890.0, 262.0)",1.2833333333333332,0.494,1,8530.332,1,0.04,same
0,120,valid,"[(1173, 785)]",[],[1],[0.85],vertical,"(390.0, 762.0)",1.4333333333333333,nan,0,8535.745,0,0.04,same
0,121,valid,"[(1165, 770)]",[],[1],[0.55],horizontal,"(390.0, 262.0)",0.75,0.508,1,8540.794,1,0.04,same
0,122,catch,"[(1086, 819)]",[],[1],[],vertical,"(390.0, 762.0)",1.7,nan,1,8545.644,1,0.04,same
0,123,invalid_same_bar,"[(1170, 793)]",[],[1],[0.55],vertical,"(390.0, 762.0)",0.4166666666666667,0.511,1,8555.408,1,0.04,same
0,124,catch,"[(1119, 821)]",[],[1],[],vertical,"(390.0, 262.0)",1.7,nan,1,8560.544,2,0.04,same
0,125,catch,"[(1165, 800)]",[],[1],[],vertical,"(890.0, 762.0)",1.7,nan,1,8566.56,2,0.04,same
0,126,catch,"[(1129, 815)]",[],[1],[],vertical,"(890.0, 262.0)",1.7,nan,1,8572.343,2,0.04,same
0,127,valid,"[(1162, 789)]",[],[1],[0.5333333333333333],vertical,"(390.0, 762.0)",0.36666666666666664,0.49,1,8578.14,3,0.04,same
0,128,valid,"[(1142, 773)]",[],[1],[0.5333333333333333],vertical,"(390.0, 262.0)",1.1666666666666667,0.491,1,8583.713,3,0.04,same
0,129,valid,"[(1133, 810)]",[],[1],[0.65],horizontal,"(390.0, 762.0)",0.9166666666666666,0.603,1,8589.877,3,0.04,same
0,130,valid,"[(1155, 767)]",[],[1],[0.5833333333333334],horizontal,"(390.0, 262.0)",0.85,0.542,1,8595.428,3,0.04,same
0,131,catch,"[(1170, 777)]",[],[1],[],vertical,"(390.0, 762.0)",1.7,nan,1,8601.257,3,0.04,same
0,132,catch,"[(1126, 778)]",[],[1],[],horizontal,"(390.0, 262.0)",1.7,nan,1,8607.488,3,0.04,same
0,133,invalid_adjacent_other_bar,"[(1169, 794)]",[],[1],[0.5666666666666667],vertical,"(390.0, 762.0)",0.85,0.527,1,8613.728,3,0.04,other
0,134,catch,"[(1160, 791)]",[],[1],[],horizontal,"(890.0, 262.0)",1.7,nan,1,8619.36,3,0.04,same
0,135,valid,"[(1178, 786)]",[],[1],[0.5833333333333334],vertical,"(890.0, 762.0)",1.1,0.537,1,8625.565,3,0.04,same
0,136,valid,"[(1175, 781)]",[],[1],[0.5166666666666666],vertical,"(390.0, 762.0)",0.5166666666666666,0.472,1,8631.445,3,0.04,same
0,137,valid,"[(1171, 789)]",[],[1],[0.5166666666666666],horizontal,"(390.0, 262.0)",1.5166666666666666,0.476,1,8637.009,3,0.04,same
0,138,valid,"[(1165, 794)]",[],[1],[0.5666666666666667],horizontal,"(890.0, 762.0)",1.4166666666666667,0.523,1,8643.461,3,0.04,same
0,139,invalid_same_bar,"[(1169, 785)]",[],[1],[0.5],vertical,"(390.0, 762.0)",0.7166666666666667,0.457,1,8649.876,3,0.04,same
0,140,catch,"[(1169, 774)]",[],[1],[],vertical,"(390.0, 262.0)",1.7,nan,1,8655.372,3,0.04,same
0,141,valid,"[(1166, 791)]",[],[1],[0.6],vertical,"(390.0, 762.0)",0.7166666666666667,0.553,1,8661.673,3,0.04,same
0,142,valid,"[(1165, 785)]",[],[1],[0.5166666666666666],vertical,"(390.0, 762.0)",0.43333333333333335,0.473,1,8667.255,3,0.04,same
0,143,valid,"[(1160, 782)]",[],[1],[0.5166666666666666],horizontal,"(390.0, 262.0)",0.8333333333333334,0.486,1,8672.887,3,0.02,same
0,144,valid,"[(1183, 792)]",[],[1],[0.5166666666666666],vertical,"(890.0, 762.0)",1.25,0.472,1,8678.628,3,0.02,same
0,145,catch,"[(1145, 775)]",[],[1],[],horizontal,"(390.0, 762.0)",1.7,nan,1,8684.554,3,0.02,same
0,146,invalid_same_bar,"[(1165, 783)]",[],[1],[0.5],horizontal,"(390.0, 262.0)",0.8833333333333333,0.458,1,8690.945,3,0.02,same
0,147,valid,"[(1191, 783)]",[],[1],[0.5833333333333334],vertical,"(890.0, 762.0)",0.36666666666666664,0.537,1,8696.502,3,0.02,same
0,148,valid,"[(1166, 799)]",[],[1],[0.5666666666666667],horizontal,"(890.0, 262.0)",1.2,0.524,1,8701.878,3,0.02,same
0,149,valid,"[(1165, 772)]",[],[1],[0.6333333333333333],vertical,"(890.0, 762.0)",0.6,0.592,1,8707.769,3,0.02,same
0,150,valid,"[(1169, 766)]",[],[1],[0.43333333333333335],horizontal,"(890.0, 262.0)",1.4,0.396,1,8712.895,3,0.02,same
0,151,catch,"[(1169, 784)]",[],[1],[],horizontal,"(890.0, 762.0)",1.7,nan,1,8719.362,3,0.02,same
0,152,valid,"[(1164, 785)]",[],[1],[0.48333333333333334],vertical,"(890.0, 262.0)",1.4833333333333334,0.441,1,8725.713,3,0.02,same
0,153,catch,"[(1140, 777)]",[],[1],[],horizontal,"(390.0, 762.0)",1.7,nan,1,8732.011,3,0.02,same
0,154,valid,"[(1160, 771)]",[],[1],[0.6666666666666666],horizontal,"(390.0, 262.0)",1.1166666666666667,0.622,1,8737.644,3,0.02,same
0,155,invalid_same_bar,"[(1137, 802)]",[],[1],[0.55],vertical,"(890.0, 762.0)",1.0166666666666666,0.509,1,8743.912,3,0.02,same
0,156,valid,"[(1146, 810)]",[],[1],[0.6166666666666667],vertical,"(890.0, 262.0)",0.4666666666666667,0.572,1,8749.744,3,0.02,same
0,157,valid,"[(1168, 777)]",[],[1],[0.5666666666666667],horizontal,"(390.0, 262.0)",0.9666666666666667,0.53,1,8755.562,3,0.02,same
0,158,valid,"[(1140, 776)]",[],[1],[0.55],horizontal,"(390.0, 262.0)",1.3,0.506,1,8761.644,3,0.02,same
0,159,valid,"[(1145, 809)]",[],[1],[0.55],horizontal,"(890.0, 762.0)",1.2333333333333334,0.502,1,8768.227,3,0.02,same
0,160,catch,"[(1166, 777)]",[],[1],[],horizontal,"(890.0, 762.0)",1.7,nan,1,8774.195,3,0.02,same
0,161,invalid_adjacent_other_bar,"[(1148, 789)]",[],[1],[0.5666666666666667],horizontal,"(390.0, 762.0)",1.1666666666666667,0.522,1,8780.115,3,0.02,other
0,162,catch,"[(1160, 794)]",[],[1],[],vertical,"(890.0, 762.0)",1.7,nan,1,8786.194,3,0.02,same
0,163,catch,"[(1163, 778)]",[],[1],[],vertical,"(390.0, 262.0)",1.7,nan,1,8792.145,3,0.02,same
0,164,valid,"[(1180, 786)]",[],[1],[0.55],vertical,"(390.0, 262.0)",0.7166666666666667,0.508,1,8798.277,3,0.02,same
0,165,valid,"[(1168, 774)]",[],[1],[0.55],horizontal,"(390.0, 762.0)",0.4,0.507,1,8804.211,3,0.02,same
0,166,valid,"[(1163, 776)]",[],[1],[0.5333333333333333],horizontal,"(390.0, 262.0)",0.7166666666666667,0.496,1,8809.762,3,0.02,same
0,167,catch,"[(1164, 770)]",[],[1],[],horizontal,"(890.0, 762.0)",1.7,nan,1,8815.444,3,0.02,same
0,168,valid,"[(1140, 797)]",[],[1],[0.55],horizontal,"(390.0, 762.0)",0.55,0.512,1,8821.298,3,0.0,same
0,169,catch,"[(1183, 789)]",[],[1],[],vertical,"(390.0, 762.0)",1.7,nan,1,8826.573,3,0.0,same
0,170,catch,"[(1169, 784)]",[],[1],[],horizontal,"(890.0, 262.0)",1.7,nan,1,8832.851,3,0.0,same
0,171,valid,"[(1178, 775)]",[],[1],[0.55],horizontal,"(390.0, 762.0)",1.3166666666666667,0.504,1,8838.877,3,0.0,same
0,172,catch,"[(1175, 780)]",[],[1],[],vertical,"(390.0, 762.0)",1.7,nan,1,8845.512,3,0.0,same
0,173,valid,"[(1138, 780)]",[],[1],[0.85],vertical,"(890.0, 762.0)",1.3166666666666667,nan,0,8851.044,0,0.0,same
0,174,catch,"[(1140, 783)]",[],[1],[],horizontal,"(390.0, 262.0)",1.7,nan,1,8856.779,1,0.0,same
0,175,valid,"[(1160, 758)]",[],[1],[0.5],horizontal,"(390.0, 762.0)",1.2,0.462,1,8861.805,1,0.0,same
0,176,invalid_same_bar,"[(1138, 776)]",[],[1],[0.5833333333333334],horizontal,"(390.0, 262.0)",0.95,0.55,1,8866.709,1,0.0,same
0,177,valid,"[(1153, 780)]",[],[1],[0.6166666666666667],horizontal,"(390.0, 262.0)",0.8166666666666667,0.582,1,8871.423,2,0.0,same
0,178,valid,"[(1185, 784)]",[],[1],[0.6166666666666667],horizontal,"(390.0, 762.0)",1.2,0.583,1,8877.028,2,0.0,same
0,179,valid,"[(1160, 792)]",[],[1],[0.5333333333333333],vertical,"(890.0, 262.0)",0.8166666666666667,0.501,1,8882.526,2,0.0,same
0,180,valid,"[(1164, 786)]",[],[1],[0.5333333333333333],horizontal,"(390.0, 762.0)",0.65,0.492,1,8887.695,3,0.0,same
0,181,valid,"[(1159, 802)]",[],[1],[0.5333333333333333],horizontal,"(390.0, 262.0)",0.8166666666666667,0.496,1,8893.531,3,0.0,same
0,182,invalid_same_bar,"[(1165, 782)]",[],[1],[0.5166666666666666],vertical,"(890.0, 262.0)",1.0333333333333332,0.472,1,8899.291,3,0.0,same
0,183,catch,"[(1160, 773)]",[],[1],[],vertical,"(390.0, 762.0)",1.7,nan,1,8905.007,3,0.0,same
0,184,valid,"[(1136, 772)]",[],[1],[0.5],vertical,"(390.0, 762.0)",0.5,0.466,1,8911.052,3,0.0,same
0,185,valid,"[(1160, 791)]",[],[1],[0.5333333333333333],horizontal,"(390.0, 262.0)",0.5333333333333333,0.494,1,8916.448,3,0.0,same
0,186,valid,"[(1146, 786)]",[],[1],[0.5333333333333333],horizontal,"(390.0, 262.0)",1.1666666666666667,0.497,1,8922.011,3,0.0,same
0,187,catch,"[(1132, 789)]",[],[1],[],horizontal,"(390.0, 262.0)",1.7,nan,1,8927.751,3,0.0,same
0,188,valid,"[(1160, 794)]",[],[1],[0.5666666666666667],vertical,"(890.0, 762.0)",0.48333333333333334,0.523,1,8933.818,3,0.0,same
0,189,invalid_same_bar,"[(1137, 776)]",[],[1],[0.85],vertical,"(390.0, 262.0)",0.4,nan,0,8939.067,0,0.0,same
0,190,valid,"[(1145, 787)]",[],[1],[0.5166666666666666],vertical,"(890.0, 762.0)",0.8833333333333333,0.472,1,8943.343,1,0.0,same
0,191,valid,"[(1140, 791)]",[],[1],[0.85],horizontal,"(390.0, 762.0)",0.4166666666666667,nan,0,8948.36,0,0.0,same
0,192,valid,"[(1118, 827)]",[],[1],[0.4],vertical,"(890.0, 762.0)",1.2166666666666666,0.361,1,8952.394,1,0.0,same
0,193,catch,"[(1120, 788)]",[],[1],[],horizontal,"(890.0, 762.0)",1.7,nan,1,9016.444,1,0.0,same
0,194,catch,"[(1145, 782)]",[],[1],[],vertical,"(390.0, 762.0)",1.7,nan,1,9021.397,1,0.0,same
0,195,valid,"[(1156, 742), (1142, 798)]",[],"[0, 1]",[0.55],vertical,"(390.0, 762.0)",1.2666666666666666,0.507,1,9026.466,2,0.0,same
0,196,catch,"[(1146, 778)]",[],[1],[],vertical,"(890.0, 262.0)",1.7,nan,1,9032.959,2,0.0,same
0,197,catch,"[(1136, 796)]",[],[1],[],horizontal,"(390.0, 262.0)",1.7,nan,1,9038.847,2,0.0,same
0,198,valid,"[(1136, 809)]",[],[1],[0.5166666666666666],horizontal,"(890.0, 762.0)",0.43333333333333335,0.474,1,9044.296,3,0.0,same
0,199,valid,"[(1140, 791)]",[],[1],[0.5333333333333333],vertical,"(390.0, 262.0)",1.1166666666666667,0.492,1,9050.277,3,0.0,same
0,200,catch,"[(1194, 781)]",[],[1],[],horizontal,"(890.0, 262.0)",1.7,nan,1,9055.987,3,0.0,same
0,201,valid,"[(1158, 761)]",[],[1],[0.6833333333333333],vertical,"(390.0, 262.0)",1.1333333333333333,0.635,1,9061.711,3,0.0,same
0,202,invalid_adjacent_other_bar,"[(1160, 790)]",[],[1],[0.48333333333333334],vertical,"(890.0, 762.0)",1.45,0.444,1,9068.228,3,0.0,other
0,203,valid,"[(1167, 794)]",[],[1],[0.6666666666666666],horizontal,"(890.0, 262.0)",0.8166666666666667,0.62,1,9074.311,3,0.0,same
0,204,invalid_adjacent_other_bar,"[(1166, 786)]",[],[1],[0.85],horizontal,"(890.0, 762.0)",0.8666666666666667,nan,0,9080.487,0,0.0,other
0,205,catch,"[(1165, 773)]",[],[1],[],vertical,"(390.0, 762.0)",1.7,nan,1,9085.524,1,0.0,same
0,206,valid,"[(1157, 782)]",[],[1],[0.6333333333333333],horizontal,"(390.0, 262.0)",1.2666666666666666,0.589,1,9090.521,1,0.0,same
0,207,catch,"[(1172, 789)]",[],[1],[],horizontal,"(390.0, 262.0)",1.7,nan,1,9095.846,1,0.0,same
0,208,invalid_adjacent_other_bar,"[(1174, 809)]",[],[1],[0.5],vertical,"(390.0, 762.0)",0.45,0.459,1,9101.297,2,0.0,other
0,209,valid,"[(1150, 790)]",[],[1],[0.45],vertical,"(890.0, 262.0)",0.5666666666666667,0.409,1,9106.01,2,0.0,same
0,210,valid,"[(1155, 795)]",[],[1],[0.5166666666666666],horizontal,"(390.0, 262.0)",1.0166666666666666,0.478,1,9111.027,2,0.0,same
0,211,catch,"[(1127, 772)]",[],[1],[],vertical,"(890.0, 762.0)",1.7,nan,1,9116.334,3,0.0,same
0,212,valid,"[(1160, 772)]",[],[1],[0.85],horizontal,"(890.0, 762.0)",1.3666666666666667,nan,0,9122.478,0,0.0,same
0,213,catch,"[(1137, 766)]",[],[1],[],horizontal,"(890.0, 262.0)",1.7,nan,1,9127.495,1,0.0,same
0,214,valid,"[(1165, 782)]",[],[1],[0.6166666666666667],vertical,"(390.0, 262.0)",1.5333333333333332,0.574,1,9133.114,1,0.0,same
0,215,catch,"[(1171, 818)]",[],[1],[],vertical,"(890.0, 262.0)",1.7,nan,1,9138.646,1,0.0,same
0,216,valid,"[(1127, 779)]",[],[1],[0.6666666666666666],vertical,"(890.0, 262.0)",1.4666666666666666,0.618,1,9143.911,2,0.0,same
0,217,valid,"[(1166, 791)]",[],[1],[0.6],vertical,"(390.0, 762.0)",0.6833333333333333,0.554,1,9149.711,2,0.0,same
0,218,valid,"[(1165, 786)]",[],[1],[0.5333333333333333],vertical,"(390.0, 762.0)",0.5,0.489,1,9154.861,2,0.0,same
0,219,catch,"[(1134, 777)]",[],[1],[],vertical,"(390.0, 762.0)",1.7,nan,1,9159.928,3,0.0,same
0,220,valid,"[(1160, 782)]",[],[1],[0.65],vertical,"(890.0, 762.0)",1.0666666666666667,0.605,1,9166.223,3,0.0,same
0,221,catch,"[(1162, 787)]",[],[1],[],vertical,"(390.0, 262.0)",1.7,nan,1,9171.812,3,0.0,same
0,222,catch,"[(1155, 777)]",[],[1],[],vertical,"(390.0, 762.0)",1.7,nan,1,9177.896,3,0.0,same
0,223,catch,"[(1169, 806)]",[],[1],[],vertical,"(390.0, 262.0)",1.7,nan,1,9183.696,3,0.0,same
0,224,valid,"[(1179, 789)]",[],[1],[0.5166666666666666],vertical,"(390.0, 262.0)",0.4666666666666667,0.471,1,9190.096,3,0.0,same
0,225,valid,"[(1190, 803)]",[],[1],[0.5333333333333333],horizontal,"(390.0, 762.0)",1.15,0.493,1,9195.129,3,0.0,same
0,226,valid,"[(1155, 773)]",[],[1],[0.5666666666666667],horizontal,"(890.0, 762.0)",1.3833333333333333,0.522,1,9200.798,3,0.0,same
0,227,valid,"[(1164, 777)]",[],[1],[0.5166666666666666],horizontal,"(890.0, 262.0)",0.4666666666666667,0.47,1,9207.16,3,0.0,same
0,228,catch,"[(1160, 785)]",[],[1],[],horizontal,"(390.0, 262.0)",1.7,nan,1,9212.639,3,0.0,same
0,229,catch,"[(1160, 773)]",[],[1],[],vertical,"(890.0, 262.0)",1.7,nan,1,9219.036,3,0.0,same
0,230,invalid_adjacent_other_bar,"[(1165, 789)]",[],[1],[0.5166666666666666],horizontal,"(390.0, 762.0)",1.05,0.476,1,9225.084,3,0.0,other
0,231,valid,"[(1167, 799)]",[],[1],[0.45],horizontal,"(390.0, 262.0)",1.1333333333333333,0.413,1,9231.029,3,0.0,same
0,232,valid,"[(1133, 778)]",[],[1],[0.5],vertical,"(890.0, 762.0)",0.85,0.456,1,9237.346,3,0.0,same
0,233,valid,"[(1165, 774)]",[],[1],[0.5],horizontal,"(890.0, 262.0)",1.5166666666666666,0.459,1,9242.923,3,0.0,same
0,234,valid,"[(1160, 775)]",[],[1],[0.5166666666666666],horizontal,"(890.0, 262.0)",0.6333333333333333,0.48,1,9249.221,3,0.0,same
0,235,valid,"[(1155, 786)]",[],[1],[0.5],horizontal,"(390.0, 262.0)",0.5666666666666667,0.461,1,9255.078,3,0.0,same
0,236,valid,"[(1166, 796)]",[],[1],[0.5833333333333334],vertical,"(890.0, 762.0)",0.6,0.548,1,9260.752,3,0.0,same
0,237,catch,"[(1165, 786)]",[],[1],[],horizontal,"(390.0, 762.0)",1.7,nan,1,9266.345,3,0.0,same
0,238,valid,"[(1168, 805)]",[],[1],[0.55],vertical,"(390.0, 262.0)",1.4,0.525,1,9272.044,3,0.0,same
0,239,catch,"[(1165, 797)]",[],[1],[],horizontal,"(890.0, 762.0)",1.7,nan,1,9278.128,3,0.0,same
0,240,valid,"[(1158, 789)]",[],[1],[0.5166666666666666],horizontal,"(890.0, 762.0)",0.6,0.476,1,9284.034,3,0.0,same
0,241,valid,"[(1138, 790)]",[],[1],[0.5166666666666666],horizontal,"(390.0, 762.0)",1.4333333333333333,0.477,1,9289.561,3,0.0,same
0,242,catch,"[(1144, 786)]",[],[1],[],vertical,"(890.0, 762.0)",1.7,nan,1,9295.948,3,0.0,same
0,243,catch,"[(1161, 778)]",[],[1],[],vertical,"(390.0, 762.0)",1.7,nan,1,9301.9,3,0.0,same
0,244,valid,"[(1153, 780)]",[],[1],[0.5166666666666666],horizontal,"(390.0, 262.0)",0.95,0.48,1,9308.062,3,0.0,same
0,245,invalid_adjacent_other_bar,"[(1126, 781)]",[],[1],[0.5166666666666666],horizontal,"(890.0, 762.0)",0.9166666666666666,0.479,1,9314.105,3,0.0,other
0,246,valid,"[(1121, 779)]",[],[1],[0.6],horizontal,"(890.0, 762.0)",1.2833333333333332,0.559,1,9319.827,3,0.0,same
0,247,catch,"[(1178, 773)]",[],[1],[],vertical,"(890.0, 762.0)",1.7,nan,1,9325.929,3,0.0,same
0,248,invalid_same_bar,"[(1165, 778)]",[],[1],[0.5166666666666666],vertical,"(390.0, 762.0)",0.7,0.487,1,9331.995,3,0.0,same
0,249,catch,"[(1160, 782)]",[],[1],[],horizontal,"(390.0, 262.0)",1.7,nan,1,9337.779,3,0.0,same
0,250,valid,"[(1156, 773)]",[],[1],[0.5],horizontal,"(390.0, 762.0)",0.9666666666666667,0.456,1,9344.146,3,0.0,same
0,251,catch,"[(1159, 786)]",[],[1],[],horizontal,"(890.0, 262.0)",1.7,nan,1,9349.779,3,0.0,same
0,252,catch,"[(1161, 783)]",[],[1],[],horizontal,"(890.0, 262.0)",1.7,nan,1,9355.646,3,0.0,same
0,253,catch,"[(1167, 785)]",[],[1],[],vertical,"(890.0, 262.0)",1.7,nan,1,9361.562,3,0.0,same
0,254,valid,"[(1160, 791)]",[],[1],[0.5333333333333333],vertical,"(890.0, 262.0)",0.35,0.497,1,9367.563,3,0.0,same
0,255,valid,"[(1131, 781)]",[],[1],[0.5166666666666666],horizontal,"(890.0, 262.0)",0.55,0.475,1,9372.662,3,0.0,same
0,256,valid,"[(1160, 796)]",[],[1],[0.5333333333333333],horizontal,"(890.0, 262.0)",1.3833333333333333,0.495,1,9378.246,3,0.0,same
0,257,valid,"[(1172, 788)]",[],[1],[0.5166666666666666],vertical,"(890.0, 762.0)",0.9833333333333333,0.476,1,9384.279,3,0.0,same
0,258,valid,"[(1134, 772)]",[],[1],[0.55],horizontal,"(890.0, 262.0)",0.7166666666666667,0.506,1,9390.478,3,0.0,same
0,259,catch,"[(1135, 796)]",[],[1],[],horizontal,"(890.0, 262.0)",1.7,nan,1,9396.479,3,0.0,same
0,260,catch,"[(1150, 786)]",[],[1],[],vertical,"(890.0, 262.0)",1.7,nan,1,9402.479,3,0.0,same
0,261,valid,"[(1148, 787)]",[],[1],[0.5666666666666667],horizontal,"(890.0, 262.0)",0.8833333333333333,0.522,1,9408.835,3,0.0,same
0,262,valid,"[(1142, 809)]",[],[1],[0.5333333333333333],vertical,"(890.0, 762.0)",0.8833333333333333,0.491,1,9414.662,3,0.0,same
0,263,valid,"[(1155, 793)]",[],[1],[0.5833333333333334],horizontal,"(390.0, 762.0)",0.4666666666666667,0.541,1,9420.296,3,0.0,same
0,264,catch,"[(1170, 784)]",[],[1],[],vertical,"(890.0, 262.0)",1.7,nan,1,9425.613,3,0.0,same
0,265,valid,"[(1140, 770)]",[],[1],[0.5],horizontal,"(390.0, 262.0)",0.8333333333333334,0.467,1,9431.407,3,0.0,same
0,266,catch,"[(1166, 793)]",[],[1],[],vertical,"(890.0, 262.0)",1.7,nan,1,9436.646,3,0.0,same
0,267,valid,"[(1139, 778)]",[],[1],[0.5666666666666667],vertical,"(890.0, 262.0)",0.9333333333333333,0.529,1,9442.848,3,0.0,same
0,268,valid,"[(1156, 785)]",[],[1],[0.5166666666666666],vertical,"(890.0, 762.0)",0.45,0.475,1,9449.224,3,0.0,same
0,269,valid,"[(1133, 781)]",[],[1],[0.85],horizontal,"(890.0, 762.0)",1.05,nan,0,9454.781,0,0.0,same
0,270,catch,"[(1120, 797)]",[],[1],[],vertical,"(890.0, 262.0)",1.7,nan,1,9459.696,1,0.0,same
0,271,valid,"[(1130, 779)]",[],[1],[0.5333333333333333],vertical,"(890.0, 762.0)",0.4666666666666667,0.491,1,9465.422,1,0.0,same
0,272,catch,"[(1077, 806)]",[],[1],[],horizontal,"(890.0, 262.0)",,"('cti', 1.48),nan",0,9469.957,0,0.02,same
0,273,valid,"[(1120, 808)]",[],[1],[0.6166666666666667],horizontal,"(890.0, 762.0)",0.6333333333333333,0.585,1,9474.721,1,0.02,same
0,274,catch,"[(1158, 768)]",[],[1],[],horizontal,"(390.0, 762.0)",1.7,nan,1,9540.46,1,0.02,same
0,275,valid,"[(1155, 789)]",[],[1],[0.85],vertical,"(390.0, 762.0)",0.75,nan,0,9546.058,0,0.02,same
0,276,catch,"[(1135, 794)]",[],[1],[],vertical,"(390.0, 762.0)",,"('cti', 0.486),nan",0,9550.571,0,0.04,same
0,277,valid,"[(1164, 802)]",[],[1],[0.6],horizontal,"(890.0, 762.0)",1.0333333333333332,0.554,1,9553.943,1,0.04,same
0,278,valid,"[(1183, 776)]",[],[1],[0.4666666666666667],horizontal,"(390.0, 762.0)",0.5666666666666667,0.425,1,9559.212,1,0.04,same
0,279,catch,"[(1171, 772)]",[],[1],[],vertical,"(890.0, 262.0)",1.7,nan,1,9563.813,1,0.04,same
0,280,valid,"[(1155, 788)]",[],[1],[0.55],vertical,"(390.0, 262.0)",1.0,0.508,1,9568.762,2,0.04,same
0,281,invalid_adjacent_other_bar,"[(1155, 779)]",[],[1],[0.5],vertical,"(390.0, 762.0)",0.55,0.461,1,9574.106,2,0.04,other
0,282,catch,"[(1202, 792)]",[],[1],[],vertical,"(890.0, 262.0)",1.7,nan,1,9579.047,2,0.04,same
0,283,valid,"[(1137, 769)]",[],[1],[0.5333333333333333],horizontal,"(890.0, 262.0)",1.2333333333333334,0.499,1,9584.492,3,0.04,same
0,284,valid,"[(1180, 802)]",[],[1],[0.7],vertical,"(390.0, 262.0)",0.5,0.658,1,9590.661,3,0.04,same
0,285,valid,"[(1168, 783)]",[],[1],[0.5833333333333334],horizontal,"(890.0, 762.0)",1.1,0.539,1,9595.775,3,0.04,same
0,286,valid,"[(1160, 778)]",[],[1],[0.5666666666666667],horizontal,"(890.0, 762.0)",0.75,0.528,1,9601.797,3,0.04,same
0,287,valid,"[(1160, 795)]",[],[1],[0.5],horizontal,"(390.0, 262.0)",0.48333333333333334,0.455,1,9607.236,3,0.04,same
0,288,catch,"[(1140, 771)]",[],[1],[],vertical,"(390.0, 762.0)",1.7,nan,1,9612.441,3,0.04,same
0,289,catch,"[(1135, 780)]",[],[1],[],vertical,"(890.0, 262.0)",1.7,nan,1,9618.522,3,0.04,same
0,290,valid,"[(1086, 772)]",[],[1],[0.85],vertical,"(390.0, 762.0)",0.6166666666666667,nan,0,9624.937,0,0.04,same
0,291,valid,"[(1121, 769)]",[],[1],[0.5],vertical,"(890.0, 262.0)",1.3833333333333333,0.46,1,9629.179,1,0.04,same
0,292,valid,"[(1160, 782)]",[],[1],[0.5166666666666666],vertical,"(390.0, 262.0)",0.85,0.471,1,9634.978,1,0.04,same
0,293,valid,"[(1135, 776)]",[],[1],[0.5166666666666666],vertical,"(390.0, 262.0)",0.6666666666666666,0.474,1,9639.894,1,0.04,same
0,294,catch,"[(1155, 774)]",[],[1],[],horizontal,"(390.0, 762.0)",1.7,nan,1,9644.285,2,0.04,same
0,295,invalid_adjacent_other_bar,"[(1135, 784)]",[],[1],[0.5],vertical,"(390.0, 262.0)",0.5833333333333334,0.46,1,9650.33,2,0.04,other
0,296,catch,"[(1165, 808)]",[],[1],[],horizontal,"(390.0, 762.0)",1.7,nan,1,9655.347,2,0.04,same
0,297,valid,"[(1137, 801)]",[],[1],[0.6],horizontal,"(390.0, 762.0)",1.0833333333333333,0.555,1,9660.845,3,0.04,same
0,298,valid,"[(1115, 839)]",[],[1],[0.85],vertical,"(890.0, 762.0)",1.2666666666666666,nan,0,9666.624,0,0.04,same
0,299,invalid_adjacent_other_bar,"[(1120, 791)]",[],[1],[0.5666666666666667],horizontal,"(890.0, 762.0)",0.48333333333333334,0.522,1,9674.537,1,0.04,other
0,300,catch,"[(1148, 772)]","[(1021, 902)]",[1],[0.4],horizontal,"(390.0, 762.0)",,"('bar', 0.412),nan",0,9679.144,0,0.06,same
0,301,catch,"[(1086, 785)]",[],[1],[],horizontal,"(390.0, 262.0)",1.7,nan,1,9681.845,1,0.06,same
0,302,invalid_adjacent_other_bar,"[(1160, 782)]",[],[1],[0.7166666666666667],horizontal,"(890.0, 762.0)",0.8666666666666667,0.668,1,9686.851,1,0.06,other
0,303,catch,"[(1141, 775)]",[],[1],[],horizontal,"(390.0, 762.0)",1.7,nan,1,9692.129,1,0.06,same
0,304,catch,"[(1170, 786)]",[],[1],[],vertical,"(890.0, 262.0)",1.7,nan,1,9697.59,2,0.06,same
0,305,valid,"[(1165, 784)]",[],[1],[0.5166666666666666],horizontal,"(890.0, 262.0)",0.75,0.479,1,9703.392,2,0.06,same
0,306,valid,"[(1166, 776)]",[],[1],[0.85],horizontal,"(390.0, 262.0)",1.3833333333333333,nan,0,9709.012,0,0.06,same
0,307,catch,"[(1145, 784)]",[],[1],[],horizontal,"(890.0, 762.0)",1.7,nan,1,9714.365,1,0.06,same
0,308,valid,"[(1164, 781)]",[],[1],[0.5666666666666667],vertical,"(390.0, 762.0)",0.9666666666666667,0.527,1,9719.506,1,0.06,same
0,309,catch,"[(1163, 787)]",[],[1],[],vertical,"(890.0, 262.0)",1.7,nan,1,9724.57,1,0.06,same
0,310,valid,"[(1166, 791)]",[],[1],[0.6666666666666666],vertical,"(890.0, 262.0)",1.05,0.62,1,9729.734,2,0.06,same
0,311,valid,"[(1165, 790)]",[],[1],[0.85],horizontal,"(890.0, 762.0)",1.45,nan,0,9735.38,0,0.06,same
0,312,valid,"[(1142, 797)]",[],[1],[0.5166666666666666],horizontal,"(890.0, 262.0)",0.85,0.476,1,9740.771,1,0.06,same
0,313,valid,"[(1165, 776)]",[],[1],[0.65],horizontal,"(890.0, 762.0)",1.4,0.61,1,9745.501,1,0.06,same
0,314,valid,"[(1145, 793)]",[],[1],[0.5333333333333333],horizontal,"(390.0, 762.0)",0.6,0.494,1,9750.943,1,0.06,same
0,315,invalid_adjacent_other_bar,"[(1160, 795)]",[],[1],[0.85],vertical,"(390.0, 262.0)",0.85,nan,0,9755.538,0,0.06,other
0,316,valid,"[(1166, 791)]",[],[1],[0.5166666666666666],vertical,"(390.0, 262.0)",1.4166666666666667,0.483,1,9760.316,1,0.06,same
0,317,valid,"[(1146, 776)]",[],[1],[0.5666666666666667],vertical,"(890.0, 262.0)",0.4166666666666667,0.522,1,9765.52,1,0.06,same
0,318,valid,"[(1165, 777)]",[],[1],[0.5333333333333333],vertical,"(890.0, 262.0)",0.7833333333333333,0.492,1,9769.945,1,0.06,same
0,319,valid,"[(1135, 793)]",[],[1],[0.5166666666666666],vertical,"(390.0, 262.0)",0.6833333333333333,0.479,1,9774.812,2,0.06,same
0,320,valid,"[(1169, 784)]",[],[1],[0.5333333333333333],horizontal,"(890.0, 762.0)",1.4666666666666666,0.492,1,9780.068,2,0.06,same
0,321,invalid_adjacent_other_bar,"[(1135, 786)]",[],[1],[0.6166666666666667],horizontal,"(390.0, 762.0)",1.4833333333333334,0.574,1,9785.612,2,0.06,other
0,322,catch,"[(1130, 797)]",[],[1],[],vertical,"(890.0, 762.0)",1.7,nan,1,9792.013,3,0.04,same
0,323,catch,"[(1124, 812)]",[],[1],[],horizontal,"(390.0, 262.0)",1.7,nan,1,9798.116,3,0.04,same
0,324,catch,"[(1149, 786)]",[],[1],[],horizontal,"(890.0, 762.0)",1.7,nan,1,9804.296,3,0.04,same
0,325,valid,"[(1150, 765)]",[],[1],[0.55],horizontal,"(390.0, 762.0)",0.9666666666666667,0.507,1,9810.011,3,0.04,same
0,326,valid,"[(1145, 778)]",[],[1],[0.5166666666666666],horizontal,"(890.0, 762.0)",0.6333333333333333,0.476,1,9815.831,3,0.02,same
0,327,valid,"[(1137, 793)]",[],[1],[0.85],vertical,"(390.0, 762.0)",0.7666666666666666,nan,0,9821.496,0,0.02,same
0,328,invalid_adjacent_other_bar,"[(1133, 766)]",[],[1],[0.6],horizontal,"(890.0, 262.0)",0.8833333333333333,0.56,1,9826.163,1,0.02,other
0,329,catch,"[(1146, 783)]",[],[1],[],vertical,"(890.0, 762.0)",1.7,nan,1,9831.495,1,0.02,same
0,330,valid,"[(1160, 769)]",[],[1],[0.6166666666666667],vertical,"(390.0, 262.0)",1.35,0.575,1,9836.562,1,0.02,same
0,331,valid,"[(1188, 765)]",[],[1],[0.55],horizontal,"(890.0, 762.0)",0.8333333333333334,0.51,1,9841.829,2,0.02,same
0,332,catch,"[(1137, 789)]",[],[1],[],vertical,"(890.0, 762.0)",1.7,nan,1,9846.796,2,0.02,same
0,333,catch,"[(1146, 788)]",[],[1],[],vertical,"(390.0, 762.0)",1.7,nan,1,9852.347,2,0.02,same
0,334,invalid_same_bar,"[(1165, 782)]",[],[1],[0.5],vertical,"(390.0, 262.0)",0.55,0.461,1,9857.957,3,0.02,same
0,335,valid,"[(1155, 798)]",[],[1],[0.5166666666666666],vertical,"(890.0, 762.0)",0.45,0.477,1,9863.229,3,0.02,same
0,336,valid,"[(1165, 780)]",[],[1],[0.5333333333333333],vertical,"(390.0, 262.0)",0.55,0.49,1,9868.696,3,0.02,same
0,337,catch,"[(1115, 811)]",[],[1],[],horizontal,"(890.0, 762.0)",1.7,nan,1,9873.946,3,0.02,same
0,338,valid,"[(1166, 786)]",[],[1],[0.85],horizontal,"(390.0, 762.0)",1.0,nan,0,9880.181,0,0.02,same
0,339,valid,"[(1165, 777)]",[],[1],[0.5666666666666667],horizontal,"(390.0, 262.0)",1.1833333333333333,0.532,1,9885.162,1,0.02,same
0,340,catch,"[(1165, 798)]",[],[1],[],horizontal,"(390.0, 762.0)",1.7,nan,1,9890.713,1,0.02,same
0,341,invalid_same_bar,"[(1160, 773)]",[],[1],[0.7],horizontal,"(890.0, 762.0)",1.3833333333333333,0.655,1,9896.263,1,0.02,same
0,342,catch,"[(1148, 764)]",[],[1],[],horizontal,"(390.0, 762.0)",1.7,nan,1,9901.879,2,0.02,same
0,343,catch,"[(1160, 791)]",[],[1],[],vertical,"(390.0, 762.0)",1.7,nan,1,9907.422,2,0.02,same
0,344,valid,"[(1140, 792)]",[],[1],[0.48333333333333334],vertical,"(890.0, 262.0)",1.35,0.441,1,9913.33,2,0.02,same
0,345,valid,"[(1140, 787)]",[],[1],[0.5666666666666667],horizontal,"(890.0, 762.0)",0.35,0.528,1,9918.73,3,0.02,same
0,346,invalid_same_bar,"[(1140, 779)]",[],[1],[0.6833333333333333],vertical,"(390.0, 262.0)",0.5,0.644,1,9924.022,3,0.02,same
0,347,invalid_adjacent_other_bar,"[(1160, 780)]",[],[1],[0.65],vertical,"(890.0, 762.0)",1.45,0.605,1,9929.396,3,0.02,other
0,348,valid,"[(1169, 779)]",[],[1],[0.5333333333333333],horizontal,"(390.0, 262.0)",0.85,0.493,1,9935.821,3,0.02,same
0,349,valid,"[(1163, 774)]",[],[1],[0.5333333333333333],horizontal,"(390.0, 262.0)",0.75,0.494,1,9941.331,3,0.02,same
0,350,valid,"[(1141, 773)]",[],[1],[0.5166666666666666],horizontal,"(890.0, 762.0)",1.3166666666666667,0.476,1,9946.763,3,0.0,same
0,351,catch,"[(1142, 795)]",[],[1],[],horizontal,"(890.0, 762.0)",1.7,nan,1,9953.113,3,0.0,same
0,352,valid,"[(1161, 794)]",[],[1],[0.5333333333333333],horizontal,"(890.0, 762.0)",1.1666666666666667,0.494,1,9959.531,3,0.0,same
0,353,catch,"[(1147, 769)]",[],[1],[],vertical,"(890.0, 262.0)",1.7,nan,1,9965.399,3,0.0,same
0,354,catch,"[(1123, 807)]",[],[1],[],horizontal,"(890.0, 262.0)",1.7,nan,1,9971.307,3,0.0,same
0,355,catch,"[(1140, 788)]",[],[1],[],horizontal,"(390.0, 262.0)",1.7,nan,1,9977.247,3,0.0,same
0,356,valid,"[(1141, 780)]",[],[1],[0.5833333333333334],vertical,"(390.0, 762.0)",1.3166666666666667,0.547,1,9983.246,3,0.0,same
0,357,valid,"[(1168, 777)]",[],[1],[0.7333333333333333],horizontal,"(390.0, 262.0)",1.0,0.694,1,9989.313,3,0.0,same
0,358,catch,"[(1140, 789)]",[],[1],[],vertical,"(390.0, 262.0)",1.7,nan,1,9995.357,3,0.0,same
0,359,valid,"[(1141, 791)]",[],[1],[0.5833333333333334],vertical,"(390.0, 262.0)",0.6,0.543,1,10001.594,3,0.0,same
0,360,catch,"[(1140, 793)]",[],[1],[],vertical,"(390.0, 762.0)",1.7,nan,1,10006.913,3,0.0,same
0,361,valid,"[(1087, 835)]",[],[1],[0.48333333333333334],horizontal,"(890.0, 262.0)",1.0166666666666666,0.441,1,10012.964,3,0.0,same
0,362,invalid_adjacent_other_bar,"[(1145, 811)]",[],[1],[0.6166666666666667],horizontal,"(390.0, 762.0)",0.4166666666666667,0.574,1,10155.436,3,0.0,other
0,363,valid,"[(1159, 791)]",[],[1],[0.48333333333333334],horizontal,"(890.0, 762.0)",0.7166666666666667,0.443,1,10160.964,3,0.0,same
0,364,invalid_same_bar,"[(1158, 798)]",[],[1],[],vertical,"(890.0, 262.0)",,"('cti', 0.949)",0,10166.546,0,0.0,same
0,365,catch,"[(1172, 796)]",[],[1],[],vertical,"(890.0, 262.0)",1.7,nan,1,10170.509,1,0.0,same
0,366,catch,"[(1166, 802)]",[],[1],[],horizontal,"(390.0, 762.0)",1.7,nan,1,10175.891,1,0.0,same
0,367,invalid_same_bar,"[(1156, 796)]",[],[1],[0.85],vertical,"(390.0, 762.0)",0.5666666666666667,nan,0,10181.131,0,0.0,same
0,368,invalid_same_bar,"[(1121, 786)]",[],[1],[0.48333333333333334],vertical,"(390.0, 762.0)",1.1666666666666667,0.441,1,10185.597,1,0.0,same
0,369,valid,"[(1155, 787)]",[],[1],[0.5333333333333333],horizontal,"(890.0, 762.0)",0.4,0.489,1,10190.748,1,0.0,same
0,370,valid,"[(1137, 801)]",[],[1],[0.85],vertical,"(390.0, 262.0)",0.8166666666666667,nan,0,10195.314,0,0.0,same
0,371,catch,"[(1110, 821)]",[],[1],[],vertical,"(390.0, 262.0)",,"('cti', 0.496),nan",0,10199.887,0,0.02,same
0,372,valid,"[(1115, 836)]",[],[1],[0.05],vertical,"(390.0, 762.0)",0.48333333333333334,0.02,0,10203.53,0,0.02,same
0,373,valid,"[(1121, 786)]",[],[1],[0.85],vertical,"(390.0, 762.0)",0.6666666666666666,nan,0,10207.269,0,0.02,same
0,374,valid,"[(1120, 814)]",[],[1],[0.5666666666666667],horizontal,"(390.0, 762.0)",1.5333333333333332,0.524,1,10211.826,1,0.02,same
0,375,valid,"[(1132, 803)]",[],[1],[0.5833333333333334],vertical,"(890.0, 762.0)",1.5166666666666666,0.536,1,10218.258,1,0.02,same
0,376,valid,"[(1140, 771)]",[],[1],[0.85],horizontal,"(890.0, 762.0)",0.9333333333333333,nan,0,10224.182,0,0.02,same
0,377,valid,"[(1135, 791)]",[],[1],[0.5],horizontal,"(890.0, 262.0)",0.7,0.463,1,10229.378,1,0.02,same
0,378,catch,"[(1188, 779)]",[],[1],[],horizontal,"(390.0, 762.0)",1.7,nan,1,10233.915,1,0.02,same
0,379,catch,"[(1140, 796)]",[],[1],[],vertical,"(890.0, 762.0)",1.7,nan,1,10238.764,1,0.02,same
0,380,catch,"[(1131, 804)]",[],[1],[],vertical,"(890.0, 762.0)",1.7,nan,1,10244.163,2,0.02,same
0,381,catch,"[(1160, 789)]",[],[1],[],horizontal,"(890.0, 262.0)",1.7,nan,1,10249.914,2,0.02,same
0,382,catch,"[(1115, 800)]",[],[1],[],horizontal,"(390.0, 762.0)",1.7,nan,1,10255.496,2,0.02,same
0,383,valid,"[(1135, 805)]",[],[1],[0.5166666666666666],horizontal,"(890.0, 262.0)",0.6666666666666666,0.478,1,10261.381,3,0.02,same
0,384,catch,"[(1177, 784)]",[],[1],[],horizontal,"(390.0, 262.0)",1.7,nan,1,10266.629,3,0.02,same
0,385,valid,"[(1140, 790)]",[],[1],[0.5333333333333333],vertical,"(390.0, 762.0)",1.25,0.493,1,10272.197,3,0.02,same
0,386,invalid_same_bar,"[(1155, 777)]",[],[1],[0.85],vertical,"(890.0, 762.0)",1.3,nan,0,10278.213,0,0.02,same
0,387,catch,"[(1140, 808)]",[],[1],[],horizontal,"(390.0, 762.0)",,"('cti', 1.327),nan",0,10283.26,0,0.04,same
0,388,invalid_same_bar,"[(1166, 805)]",[],[1],[0.55],vertical,"(890.0, 762.0)",0.9833333333333333,0.517,1,10287.748,1,0.04,same
0,389,valid,"[(1167, 806)]",[],[1],[0.6833333333333333],vertical,"(390.0, 762.0)",0.8166666666666667,0.647,1,10292.698,1,0.04,same
0,390,catch,"[(1171, 800)]",[],[1],[],vertical,"(890.0, 262.0)",1.7,nan,1,10297.83,1,0.04,same
0,391,valid,"[(1126, 767)]",[],[1],[0.75],vertical,"(390.0, 762.0)",1.15,0.703,1,10303.348,2,0.04,same
0,392,invalid_adjacent_other_bar,"[(1145, 801)]",[],[1],[0.85],horizontal,"(390.0, 262.0)",0.4166666666666667,nan,0,10309.642,0,0.04,other
0,393,invalid_adjacent_other_bar,"[(1165, 786)]",[],[1],[0.55],horizontal,"(890.0, 262.0)",0.48333333333333334,0.507,1,10313.998,1,0.04,other
0,394,valid,"[(1165, 782)]",[],[1],[0.55],vertical,"(390.0, 262.0)",1.4666666666666666,0.504,1,10318.681,1,0.04,same
0,395,valid,"[(1120, 826)]",[],[1],[0.5833333333333334],horizontal,"(390.0, 762.0)",0.5166666666666666,0.542,1,10323.748,1,0.04,same
0,396,valid,"[(1159, 799)]",[],[1],[0.5],vertical,"(890.0, 762.0)",0.7333333333333333,0.459,1,10328.504,2,0.04,same
0,397,invalid_adjacent_other_bar,"[(1155, 790)]",[],[1],[0.5666666666666667],vertical,"(390.0, 762.0)",1.2833333333333332,0.529,1,10334.357,2,0.04,other
0,398,valid,"[(1163, 803)]",[],[1],[0.85],horizontal,"(890.0, 762.0)",0.7833333333333333,nan,0,10339.957,0,0.04,same
0,399,valid,"[(1145, 813)]",[],[1],[0.5166666666666666],horizontal,"(390.0, 262.0)",0.9166666666666666,0.483,1,10345.288,1,0.04,same
0,400,valid,"[(1165, 799)]",[],[1],[0.55],horizontal,"(890.0, 262.0)",1.1,0.516,1,10349.882,1,0.04,same
0,401,valid,"[(1142, 798)]",[],[1],[0.5333333333333333],horizontal,"(390.0, 262.0)",0.6166666666666667,0.491,1,10354.636,1,0.04,same
0,402,valid,"[(1190, 778)]",[],[1],[0.5666666666666667],horizontal,"(890.0, 762.0)",0.4,0.526,1,10359.501,2,0.04,same
0,403,valid,"[(1140, 787)]",[],[1],[0.5166666666666666],vertical,"(390.0, 262.0)",1.15,0.484,1,10364.518,2,0.04,same
0,404,catch,"[(1088, 806)]",[],[1],[],horizontal,"(390.0, 262.0)",1.7,nan,1,10370.135,2,0.04,same
0,405,valid,"[(1153, 773)]",[],[1],[0.55],horizontal,"(890.0, 762.0)",0.7333333333333333,0.514,1,10375.876,3,0.04,same
0,406,catch,"[(1156, 791)]",[],[1],[],horizontal,"(390.0, 262.0)",,"('cti', 1.411),nan",0,10381.238,0,0.06,same
0,407,valid,"[(1111, 800)]",[],[1],[0.5333333333333333],vertical,"(890.0, 262.0)",0.6333333333333333,0.493,1,10385.948,1,0.06,same
0,408,valid,"[(1110, 831)]",[],[1],[0.48333333333333334],vertical,"(390.0, 762.0)",0.9,0.447,1,10390.414,1,0.06,same
0,409,catch,"[(1117, 789)]",[],[1],[],vertical,"(390.0, 762.0)",1.7,nan,1,10395.783,1,0.06,same
0,410,valid,"[(1158, 811)]",[],[1],[0.6333333333333333],horizontal,"(390.0, 762.0)",0.5,0.597,1,10401.315,2,0.06,same
0,411,valid,"[(1144, 772)]",[],[1],[0.6],horizontal,"(890.0, 262.0)",1.1166666666666667,0.562,1,10406.53,2,0.06,same
0,412,valid,"[(1088, 835)]",[],[1],[0.55],vertical,"(390.0, 262.0)",0.4,0.526,1,10412.22,2,0.06,same
0,413,valid,"[(1143, 825)]",[],[1],[0.5333333333333333],horizontal,"(390.0, 262.0)",1.4166666666666667,0.5,1,10417.681,3,0.06,same
0,414,invalid_adjacent_other_bar,"[(1169, 801)]",[],[1],[0.7333333333333333],horizontal,"(390.0, 762.0)",1.5333333333333332,0.693,1,10423.764,3,0.06,other
0,415,valid,"[(1165, 814)]",[],[1],[0.5],vertical,"(390.0, 762.0)",1.2833333333333332,0.463,1,10429.989,3,0.06,same
0,416,invalid_same_bar,"[(1115, 803)]",[],[1],[0.5333333333333333],horizontal,"(890.0, 262.0)",0.9666666666666667,0.489,1,10435.695,3,0.06,same
0,417,catch,"[(1118, 799)]",[],[1],[],vertical,"(890.0, 262.0)",1.7,nan,1,10441.403,3,0.06,same
0,418,valid,"[(1143, 773)]",[],[1],[0.5166666666666666],vertical,"(390.0, 262.0)",0.9333333333333333,0.485,1,10448.216,3,0.06,same
0,419,valid,"[(1154, 791)]",[],[1],[0.5],vertical,"(890.0, 262.0)",1.0333333333333332,0.464,1,10454.115,3,0.06,same
0,420,invalid_same_bar,"[(1115, 811)]",[],[1],[0.55],horizontal,"(890.0, 262.0)",1.25,0.509,1,10459.851,3,0.06,same
0,421,catch,"[(1150, 800)]",[],[1],[],horizontal,"(390.0, 262.0)",1.7,nan,1,10465.655,3,0.04,same
0,422,valid,"[(1158, 765)]",[],[1],[0.48333333333333334],vertical,"(890.0, 262.0)",1.3,0.446,1,10472.114,3,0.04,same
0,423,valid,"[(1137, 792)]",[],[1],[0.5],vertical,"(890.0, 262.0)",0.8666666666666667,0.461,1,10477.991,3,0.04,same
0,424,catch,"[(1156, 786)]",[],[1],[],vertical,"(890.0, 762.0)",1.7,nan,1,10483.697,3,0.04,same
0,425,valid,"[(1125, 811)]",[],[1],[0.85],vertical,"(390.0, 262.0)",1.05,nan,0,10489.73,0,0.04,same
0,426,valid,"[(1159, 795)]",[],[1],[0.85],vertical,"(890.0, 762.0)",0.4,nan,0,10494.798,0,0.04,same
0,427,valid,"[(1138, 782)]",[],[1],[0.6],horizontal,"(890.0, 762.0)",0.6,0.559,1,10498.884,1,0.04,same
0,428,valid,"[(1165, 756)]",[],[1],[0.5333333333333333],horizontal,"(390.0, 262.0)",1.1833333333333333,0.498,1,10503.164,1,0.04,same
0,429,valid,"[(1160, 770)]",[],[1],[0.85],vertical,"(390.0, 762.0)",0.85,nan,0,10508.603,0,0.04,same
0,430,valid,"[(1125, 811)]",[],[1],[0.5333333333333333],vertical,"(890.0, 262.0)",0.5666666666666667,0.493,1,10513.471,1,0.04,same
0,431,valid,"[(1135, 764)]",[],[1],[0.85],vertical,"(390.0, 262.0)",0.5666666666666667,nan,0,10518.01,0,0.04,same
0,432,valid,"[(1112, 835)]",[],[1],[0.85],vertical,"(890.0, 262.0)",0.35,nan,0,10522.215,0,0.04,same
0,433,valid,"[(1111, 810)]",[],[1],[0.55],vertical,"(890.0, 262.0)",1.4666666666666666,0.508,1,11229.08,1,0.04,same
0,434,valid,"[(1137, 770)]",[],[1],[0.55],horizontal,"(390.0, 262.0)",0.9333333333333333,0.512,1,11235.022,1,0.04,same
0,435,valid,"[(1124, 841)]",[],[1],[0.3833333333333333],horizontal,"(890.0, 262.0)",0.95,0.346,1,11239.601,1,0.04,same
