block,trial,trial_type,taps_start_loc_during_fix,taps_end_loc_during_fix,taps_on_lever_during_fix,taps_on_lever_s_during_fix,bar_orientation,target_xy,cti,rt,acc,time,pulses
0,1,target,"[(141, 568), (859, 801), (1066, 836)]",[],"[0, 0, 1]",[],vertical,"(390.0, 262.0)",,"('fix', 0.4)",0,0.5,0
0,2,target,"[(1076, 802)]",[],[1],[0.5666666666666667],horizontal,"(890.0, 262.0)",1.3833333333333333,0.522,1,2988.339,1
0,3,target,"[(1058, 802)]",[],[1],[0.4166666666666667],horizontal,"(890.0, 262.0)",1.3,0.377,1,6480.587,1
0,4,target,"[(1071, 801)]",[],[1],[0.55],vertical,"(390.0, 762.0)",0.6,0.512,1,6485.636,1
0,5,target,"[(1075, 806)]",[],[1],[],horizontal,"(390.0, 262.0)",,"('cti', 1.032)",0,6490.202,0
0,6,target,"[(1076, 769)]",[],[1],[0.3333333333333333],vertical,"(390.0, 262.0)",1.35,0.301,1,6495.004,1
0,7,target,"[(1079, 772)]",[],[1],[0.5666666666666667],horizontal,"(390.0, 762.0)",0.75,0.531,1,6500.603,1
0,8,target,"[(1075, 786)]",[],[1],[0.5666666666666667],vertical,"(390.0, 762.0)",0.8333333333333334,0.525,1,6505.071,1
0,9,catch,"[(1090, 795)]",[],[1],[],vertical,"(390.0, 762.0)",1.6,nan,1,6510.203,2
0,10,target,"[(1106, 776)]",[],[1],[0.5166666666666666],vertical,"(390.0, 262.0)",1.0166666666666666,0.477,1,6515.354,2
0,11,target,"[(1105, 751), (1060, 812)]",[],"[0, 1]",[0.5833333333333334],vertical,"(890.0, 762.0)",0.7666666666666666,0.54,1,6521.202,2
0,12,target,"[(1072, 743), (1075, 795)]",[],"[0, 1]",[],vertical,"(890.0, 762.0)",,"('cti', 1.397)",0,6527.254,0
0,13,target,"[(1078, 769)]",[],[1],[0.85],horizontal,"(390.0, 262.0)",1.6333333333333333,"('cti', 1.621),nan",0,6533.179,0
0,14,target,"[(1076, 804)]",[],[1],[0.85],vertical,"(890.0, 762.0)",0.5,nan,0,6538.605,0
0,15,target,"[(1065, 761)]",[],[1],[0.3333333333333333],horizontal,"(390.0, 262.0)",1.1,0.295,1,6543.299,1
0,16,target,"[(1100, 761)]",[],[1],[0.85],horizontal,"(390.0, 262.0)",0.7666666666666666,nan,0,6551.649,0
0,17,target,"[(1074, 816)]",[],[1],[0.23333333333333334],horizontal,"(890.0, 262.0)",1.5833333333333333,0.2,1,6556.471,1
0,18,target,"[(1105, 791)]",[],[1],[0.85],horizontal,"(890.0, 762.0)",0.65,nan,0,6562.727,0
0,19,target,"[(1038, 803)]",[],[1],[0.7666666666666666],vertical,"(390.0, 262.0)",1.2666666666666666,0.717,1,6567.505,1
0,20,catch,"[(1074, 796)]",[],[1],[],horizontal,"(390.0, 262.0)",,"('cti', 1.174),nan",0,6574.298,0
0,21,target,"[(1071, 809)]",[],[1],[0.48333333333333334],vertical,"(390.0, 262.0)",0.9166666666666666,0.448,1,6579.023,1
0,22,target,"[(1074, 781)]",[],[1],[0.5],horizontal,"(890.0, 262.0)",1.35,0.458,1,6584.51,1
0,23,catch,"[(1104, 805)]",[],[1],[],horizontal,"(890.0, 762.0)",1.6,nan,1,6589.439,1
0,24,target,"[(1059, 808)]",[],[1],[0.85],vertical,"(390.0, 762.0)",0.75,nan,0,6594.523,0
0,25,target,"[(1066, 833)]",[],[1],[0.55],horizontal,"(390.0, 262.0)",0.8666666666666667,0.514,1,6602.154,1
0,26,target,"[(1105, 811)]",[],[1],[0.15],horizontal,"(890.0, 262.0)",1.55,0.117,0,6616.838,0
0,27,target,"[(1060, 821)]",[],[1],[0.7],vertical,"(390.0, 262.0)",0.5333333333333333,0.652,1,6621.622,1
0,28,target,"[(1099, 795)]",[],[1],[0.6],horizontal,"(890.0, 262.0)",0.5833333333333334,0.554,1,6626.836,1
0,29,target,"[(1110, 768)]",[],[1],[0.15],vertical,"(390.0, 262.0)",1.6666666666666667,0.118,0,6631.351,0
0,30,target,"[(1062, 773)]",[],[1],[0.35],vertical,"(890.0, 262.0)",1.5,0.314,1,6636.255,1
0,31,target,"[(1100, 776)]",[],[1],[0.4166666666666667],horizontal,"(390.0, 762.0)",1.4833333333333334,0.374,1,6641.538,1
0,32,target,"[(1124, 807)]",[],[1],[0.26666666666666666],horizontal,"(890.0, 762.0)",1.4,0.231,1,6646.954,1
0,33,target,"[(1105, 799)]",[],[1],[0.65],horizontal,"(890.0, 262.0)",0.9666666666666667,0.603,1,6652.421,2
0,34,target,"[(1124, 773)]",[],[1],[0.65],vertical,"(390.0, 762.0)",0.8166666666666667,0.604,1,6657.81,2
0,35,target,"[(1109, 797)]",[],[1],[0.18333333333333332],vertical,"(390.0, 262.0)",1.4666666666666666,0.153,0,6663.063,0
0,36,target,"[(1075, 795)]",[],[1],[0.85],horizontal,"(890.0, 762.0)",0.55,nan,0,6667.903,0
0,37,target,"[(1063, 833)]",[],[1],[0.6166666666666667],vertical,"(890.0, 262.0)",0.7166666666666667,0.571,1,6672.122,1
0,38,target,"[(1103, 792)]",[],[1],[0.26666666666666666],vertical,"(890.0, 262.0)",1.4833333333333334,0.229,1,6677.474,1
0,39,target,"[(1110, 770)]",[],[1],[0.55],vertical,"(890.0, 762.0)",1.05,0.505,1,6682.791,1
0,40,target,"[(1077, 782)]",[],[1],"[0.85, 0.85]",vertical,"(390.0, 762.0)",0.8,"0.82,nan",0,6687.87,0
0,41,target,"[(1105, 791)]",[],[1],[0.85],vertical,"(390.0, 762.0)",0.6166666666666667,nan,0,6693.071,0
0,42,target,"[(1062, 768)]",[],[1],[0.5833333333333334],vertical,"(890.0, 262.0)",0.9333333333333333,0.538,1,6697.596,1
0,43,target,"[(1126, 748), (1104, 792)]",[],"[0, 1]",[0.25],horizontal,"(890.0, 762.0)",1.5833333333333333,0.217,1,6702.912,1
0,44,target,"[(1105, 773)]",[],[1],[0.5666666666666667],vertical,"(890.0, 762.0)",0.8166666666666667,0.521,1,6708.954,1
0,45,target,"[(1076, 752), (1091, 775)]",[],"[0, 1]",[0.5833333333333334],vertical,"(390.0, 762.0)",1.1833333333333333,0.545,1,6713.729,2
0,46,target,"[(1124, 767)]",[],[1],[0.55],vertical,"(390.0, 262.0)",0.7166666666666667,0.507,1,6720.183,2
0,47,target,"[(1100, 765)]",[],[1],[0.5666666666666667],horizontal,"(890.0, 762.0)",1.0,0.527,1,6724.984,2
0,48,target,"[(1073, 755)]",[],[1],[0.55],horizontal,"(390.0, 262.0)",0.7833333333333333,0.505,1,6730.15,2
0,49,target,"[(1105, 777)]",[],[1],[0.85],vertical,"(390.0, 762.0)",0.6833333333333333,nan,0,6735.248,0
0,50,target,"[(1076, 768)]",[],[1],[0.7],vertical,"(390.0, 762.0)",0.6166666666666667,0.654,1,6739.662,1
0,51,target,"[(1074, 767)]",[],[1],[0.45],vertical,"(890.0, 762.0)",0.7,0.407,1,6744.514,1
0,52,target,"[(1107, 766)]",[],[1],[0.5666666666666667],vertical,"(890.0, 762.0)",0.9333333333333333,0.529,1,6748.955,1
0,53,catch,"[(1102, 768)]",[],[1],[],horizontal,"(390.0, 762.0)",1.6,nan,1,6754.023,2
0,54,target,"[(1105, 782)]",[],[1],[0.4166666666666667],vertical,"(390.0, 262.0)",1.2333333333333334,0.38,1,6759.418,2
0,55,target,"[(1102, 768)]",[],[1],[0.85],horizontal,"(890.0, 762.0)",0.8,nan,0,6764.918,0
0,56,target,"[(1066, 775)]",[],[1],[0.4666666666666667],horizontal,"(890.0, 262.0)",1.3333333333333333,0.43,1,6769.805,1
0,57,target,"[(1109, 760)]",[],[1],[0.6333333333333333],horizontal,"(390.0, 262.0)",1.2,0.587,1,6775.075,1
0,58,catch,"[(1071, 788)]",[],[1],[],horizontal,"(390.0, 262.0)",1.6,nan,1,6780.189,1
0,59,target,"[(1105, 765)]",[],[1],[0.5666666666666667],horizontal,"(390.0, 262.0)",1.1833333333333333,0.525,1,6785.121,2
0,60,target,"[(1120, 761)]",[],[1],[0.5333333333333333],vertical,"(890.0, 262.0)",1.1833333333333333,0.494,1,6790.813,2
0,61,target,"[(1100, 769)]",[],[1],[0.5333333333333333],horizontal,"(390.0, 262.0)",0.6833333333333333,0.494,1,6796.555,2
0,62,target,"[(1077, 765)]",[],[1],[0.5166666666666666],horizontal,"(890.0, 762.0)",1.1666666666666667,0.477,1,6801.721,2
0,63,target,"[(1104, 764)]",[],[1],[],vertical,"(890.0, 762.0)",,"('cti', 1.141)",0,6806.864,0
0,64,target,"[(1114, 767)]",[],[1],[0.85],vertical,"(390.0, 762.0)",0.6333333333333333,nan,0,6811.327,0
0,65,target,"[(1072, 770)]",[],[1],[0.5666666666666667],vertical,"(390.0, 762.0)",1.2166666666666666,0.532,1,6815.808,1
0,66,target,"[(1105, 760)]",[],[1],[0.48333333333333334],horizontal,"(890.0, 262.0)",1.2666666666666666,0.444,1,6821.688,1
0,67,target,"[(1067, 767)]",[],[1],[0.6333333333333333],horizontal,"(890.0, 762.0)",1.2166666666666666,0.595,1,6826.548,1
0,68,target,"[(1118, 768)]",[],[1],[0.85],vertical,"(390.0, 762.0)",0.6333333333333333,nan,0,6831.672,0
0,69,target,"[(1067, 753), (1076, 782)]",[],"[0, 1]",[0.31666666666666665],horizontal,"(890.0, 262.0)",1.4166666666666667,0.282,1,6836.205,1
0,70,target,"[(1115, 768)]",[],[1],[0.5666666666666667],horizontal,"(890.0, 262.0)",0.85,0.527,1,6843.281,1
0,71,catch,"[(1119, 767)]",[],[1],[],vertical,"(890.0, 262.0)",1.6,nan,1,6848.038,1
0,72,target,"[(1105, 764)]",[],[1],[0.6666666666666666],vertical,"(390.0, 762.0)",0.95,0.617,1,6852.939,2
0,73,target,"[(1106, 770)]",[],[1],[0.4],vertical,"(390.0, 762.0)",1.2666666666666666,0.359,1,6858.788,2
0,74,target,"[(1119, 770)]",[],[1],[0.6666666666666666],vertical,"(390.0, 762.0)",0.6666666666666666,0.627,1,6864.263,2
0,75,target,"[(1077, 749), (1086, 791)]",[],"[0, 1]",[0.35],vertical,"(890.0, 262.0)",1.4833333333333334,0.316,1,6869.154,2
0,76,target,"[(1108, 781)]",[],[1],[0.85],horizontal,"(390.0, 762.0)",0.6166666666666667,nan,0,6875.722,0
0,77,target,"[(1084, 768)]",[],[1],[0.7333333333333333],horizontal,"(890.0, 262.0)",0.5,0.695,1,6879.873,1
0,78,target,"[(1096, 763)]",[],[1],[0.55],vertical,"(890.0, 262.0)",0.6666666666666666,0.507,1,6884.707,1
0,79,target,"[(1077, 771)]",[],[1],[0.75],vertical,"(390.0, 762.0)",0.8666666666666667,0.708,1,6889.33,1
0,80,target,"[(1105, 786)]",[],[1],[0.85],vertical,"(390.0, 762.0)",0.6833333333333333,nan,0,6894.86,0
0,81,target,"[(1100, 768)]",[],[1],[0.85],horizontal,"(390.0, 262.0)",1.0,nan,0,6899.872,0
0,82,target,"[(1067, 766)]",[],[1],[0.65],vertical,"(890.0, 762.0)",0.9,0.606,1,6905.472,1
0,83,target,"[(1111, 748), (1072, 779)]",[],"[0, 1]",[0.15],vertical,"(890.0, 762.0)",1.5833333333333333,0.117,0,6910.522,0
0,84,target,"[(1072, 766)]",[],[1],[0.4666666666666667],vertical,"(390.0, 262.0)",1.4333333333333333,0.424,1,6916.973,1
0,85,target,"[(1129, 768)]",[],[1],[0.7],horizontal,"(890.0, 762.0)",0.5333333333333333,0.667,1,6922.39,1
0,86,target,"[(1105, 765)]",[],[1],[0.6166666666666667],horizontal,"(890.0, 762.0)",1.0333333333333332,0.591,1,6927.541,1
0,87,target,"[(1118, 777)]",[],[1],[0.5666666666666667],vertical,"(890.0, 262.0)",0.8,0.531,1,6932.789,2
0,88,target,"[(1077, 766)]",[],[1],[0.6],vertical,"(890.0, 762.0)",0.8666666666666667,0.562,1,6938.401,2
0,89,target,"[(1110, 776)]",[],[1],[0.65],vertical,"(890.0, 262.0)",0.55,0.619,1,6943.611,2
0,90,target,"[(1105, 775)]",[],[1],[0.5333333333333333],vertical,"(390.0, 762.0)",1.15,0.498,1,6948.482,2
0,91,target,"[(1102, 784)]",[],[1],[0.18333333333333332],horizontal,"(390.0, 762.0)",1.45,0.153,0,6954.373,0
0,92,target,"[(1076, 751), (1067, 795)]",[],"[0, 1]",[0.26666666666666666],vertical,"(890.0, 762.0)",1.4666666666666666,0.235,1,6958.872,1
0,93,catch,"[(1108, 780)]",[],[1],[],vertical,"(890.0, 762.0)",1.6,nan,1,6966.218,1
0,94,target,"[(1105, 776)]",[],[1],[0.45],horizontal,"(890.0, 262.0)",1.3166666666666667,0.409,1,6971.141,1
0,95,target,"[(1120, 777)]",[],[1],[0.65],horizontal,"(390.0, 262.0)",0.55,0.615,1,6976.289,2
0,96,target,"[(1121, 785)]",[],[1],[0.8333333333333334],vertical,"(390.0, 762.0)",0.7833333333333333,0.792,1,6981.583,2
0,97,target,"[(1110, 772)]",[],[1],[0.5666666666666667],horizontal,"(890.0, 762.0)",1.0333333333333332,0.525,1,6987.426,2
0,98,target,"[(1120, 791)]",[],[1],[0.4666666666666667],horizontal,"(890.0, 262.0)",0.9666666666666667,0.433,1,6992.906,2
0,99,target,"[(1105, 792)]",[],[1],[0.7],vertical,"(390.0, 762.0)",0.8,0.655,1,6998.455,2
0,100,target,"[(1105, 780)]",[],[1],[0.6833333333333333],vertical,"(890.0, 762.0)",1.15,0.645,1,7003.639,3
0,101,target,"[(1100, 791)]",[],[1],[],vertical,"(890.0, 762.0)",,"('cti', 1.654)",0,7009.456,0
0,102,target,"[(1084, 767)]",[],[1],[0.7166666666666667],vertical,"(390.0, 762.0)",0.85,0.676,1,7014.675,1
0,103,target,"[(1081, 766)]",[],[1],[0.65],vertical,"(390.0, 762.0)",1.1666666666666667,0.608,1,7019.639,1
0,104,target,"[(1111, 781)]",[],[1],[0.5],horizontal,"(890.0, 262.0)",1.4666666666666666,0.458,1,7024.94,1
0,105,target,"[(1105, 767)]",[],[1],[0.3333333333333333],horizontal,"(890.0, 762.0)",1.45,0.298,1,7030.174,2
0,106,target,"[(1110, 739), (1079, 784)]",[],"[0, 1]",[0.3833333333333333],vertical,"(890.0, 262.0)",1.4,0.349,1,7036.04,2
0,107,target,"[(1105, 769)]",[],[1],[0.15],horizontal,"(890.0, 262.0)",0.8666666666666667,0.119,0,7043.222,0
0,108,target,"[(1076, 780)]",[],[1],[0.5166666666666666],vertical,"(390.0, 762.0)",1.0333333333333332,0.481,1,7047.507,1
0,109,target,"[(1089, 750), (1116, 796)]",[],"[0, 1]",[0.3],horizontal,"(390.0, 762.0)",1.2666666666666666,0.259,1,7052.727,1
0,110,target,"[(1077, 792)]",[],[1],[0.7],horizontal,"(390.0, 762.0)",0.95,0.661,1,7059.174,1
0,111,target,"[(1108, 777)]",[],[1],[0.18333333333333332],horizontal,"(890.0, 762.0)",1.6166666666666667,0.152,0,7065.095,0
0,112,target,"[(1067, 774)]",[],[1],[0.75],horizontal,"(390.0, 262.0)",0.7,0.712,1,7069.839,1
0,113,target,"[(1109, 768)]",[],[1],[0.85],horizontal,"(390.0, 762.0)",0.5166666666666666,nan,0,7074.69,0
0,114,target,"[(1072, 796)]",[],[1],[0.6833333333333333],vertical,"(890.0, 762.0)",0.8166666666666667,0.638,1,7079.48,1
0,115,target,"[(1103, 798)]",[],[1],[0.55],vertical,"(390.0, 762.0)",1.2666666666666666,0.513,1,7085.541,1
0,116,target,"[(1098, 787)]",[],[1],[0.65],horizontal,"(390.0, 262.0)",1.1166666666666667,0.609,1,7090.647,1
0,117,target,"[(1108, 763)]",[],[1],[0.7666666666666666],horizontal,"(390.0, 762.0)",1.3666666666666667,0.725,1,7095.569,2
0,118,target,"[(1102, 766)]",[],[1],[0.5],horizontal,"(890.0, 262.0)",1.2333333333333334,0.46,1,7101.389,2
0,119,target,"[(1115, 785)]",[],[1],[0.48333333333333334],horizontal,"(390.0, 762.0)",1.4,0.446,1,7106.841,2
0,120,target,"[(1123, 764)]",[],[1],[0.85],horizontal,"(390.0, 762.0)",0.8,nan,0,7112.591,0
0,121,target,"[(1110, 769)]",[],[1],[0.85],vertical,"(390.0, 262.0)",0.65,nan,0,7117.175,0
0,122,target,"[(1079, 764)]",[],[1],[0.5666666666666667],horizontal,"(890.0, 762.0)",0.5333333333333333,0.52,1,7122.062,1
0,123,target,"[(1097, 765)]",[],[1],[0.6],vertical,"(390.0, 262.0)",1.0,0.557,1,7126.491,1
0,124,target,"[(1076, 758)]",[],[1],[0.43333333333333335],horizontal,"(390.0, 262.0)",1.6166666666666667,0.393,1,7131.751,1
0,125,target,"[(1111, 764)]",[],[1],[0.6333333333333333],horizontal,"(390.0, 262.0)",1.3333333333333333,0.595,1,7137.287,2
0,126,target,"[(1127, 760)]",[],[1],[0.5833333333333334],horizontal,"(890.0, 262.0)",0.85,0.537,1,7142.69,2
0,127,target,"[(1109, 764)]",[],[1],[0.35],vertical,"(890.0, 762.0)",1.3833333333333333,0.308,1,7148.04,2
0,128,target,"[(1092, 795)]",[],[1],[0.5],horizontal,"(390.0, 762.0)",1.5,0.459,1,7153.333,2
0,129,target,"[(1080, 764)]",[],[1],[0.85],vertical,"(890.0, 262.0)",0.6,nan,0,7159.057,0
0,130,target,"[(1081, 782)]",[],[1],[0.85],horizontal,"(390.0, 762.0)",1.3833333333333333,nan,0,7164.057,0
0,131,target,"[(1076, 784)]",[],[1],[0.5333333333333333],vertical,"(890.0, 262.0)",1.2666666666666666,0.495,1,7169.507,1
0,132,target,"[(1110, 774)]",[],[1],[0.55],vertical,"(890.0, 262.0)",1.0833333333333333,0.514,1,7174.811,1
0,133,target,"[(1107, 790)]",[],[1],[0.85],vertical,"(890.0, 762.0)",0.5166666666666666,nan,0,7179.607,0
0,134,target,"[(1062, 799)]",[],[1],[0.5666666666666667],vertical,"(890.0, 262.0)",1.1666666666666667,0.525,1,7184.142,1
0,135,target,"[(1100, 799)]",[],[1],[0.6333333333333333],horizontal,"(390.0, 262.0)",0.8,0.595,1,7190.873,1
0,136,target,"[(1075, 778)]",[],[1],[0.65],horizontal,"(390.0, 762.0)",1.6833333333333333,0.605,1,7196.011,1
0,137,catch,"[(1115, 773)]",[],[1],[],vertical,"(390.0, 262.0)",1.6,nan,1,7201.478,2
0,138,catch,"[(1106, 769)]",[],[1],[],vertical,"(890.0, 262.0)",1.6,nan,1,7206.941,2
0,139,target,"[(1103, 776)]",[],[1],[0.7166666666666667],vertical,"(390.0, 762.0)",0.5833333333333334,0.677,1,7212.661,2
0,140,catch,"[(1108, 780)]",[],[1],[],horizontal,"(890.0, 262.0)",1.6,nan,1,7217.887,2
0,141,target,"[(1101, 790)]",[],[1],[0.4166666666666667],horizontal,"(390.0, 262.0)",1.5333333333333332,0.373,1,7222.866,2
0,142,catch,"[(1115, 776)]",[],[1],[],horizontal,"(390.0, 762.0)",1.6,nan,1,7228.681,3
0,143,target,"[(1110, 796)]",[],[1],[0.55],horizontal,"(390.0, 262.0)",1.0666666666666667,0.505,1,7234.308,3
0,144,target,"[(1085, 784)]",[],[1],[0.85],horizontal,"(390.0, 262.0)",0.5666666666666667,nan,0,7240.356,0
0,145,target,"[(1053, 761)]",[],[1],[0.6666666666666666],vertical,"(390.0, 762.0)",0.95,0.621,1,7245.402,1
0,146,target,"[(1110, 737), (1076, 779)]",[],"[0, 1]",[0.6333333333333333],horizontal,"(390.0, 262.0)",1.35,0.586,1,7250.44,1
0,147,target,"[(1109, 751), (1073, 804)]",[],"[0, 1]",[0.5333333333333333],horizontal,"(890.0, 262.0)",0.9666666666666667,0.495,1,7257.403,1
0,148,target,"[(1096, 772)]",[],[1],[0.55],vertical,"(890.0, 762.0)",1.3666666666666667,0.512,1,7263.909,2
0,149,target,"[(1124, 789)]",[],[1],[0.7166666666666667],vertical,"(390.0, 762.0)",0.6166666666666667,0.674,1,7269.426,2
0,150,target,"[(1087, 761)]",[],[1],[0.65],horizontal,"(390.0, 262.0)",0.7833333333333333,0.603,1,7274.408,2
0,151,target,"[(1075, 769)]",[],[1],[0.85],horizontal,"(390.0, 262.0)",0.75,nan,0,7279.54,0
0,152,catch,"[(1065, 776)]",[],[1],[],horizontal,"(890.0, 262.0)",1.6,nan,1,7284.342,1
0,153,target,"[(1122, 768)]",[],[1],[0.6666666666666666],vertical,"(390.0, 262.0)",0.75,0.622,1,7289.481,1
0,154,target,"[(1110, 782)]",[],[1],[0.15],vertical,"(390.0, 262.0)",1.6333333333333333,0.116,0,7294.844,0
0,155,target,"[(1057, 801)]",[],[1],[0.5166666666666666],vertical,"(890.0, 262.0)",1.6333333333333333,0.478,1,7300.369,1
0,156,target,"[(1062, 799)]",[],[1],[0.1],horizontal,"(390.0, 262.0)",1.3,0.069,0,7329.516,0
0,157,target,"[(1054, 799)]",[],[1],[0.05],horizontal,"(890.0, 762.0)",1.5666666666666667,0.019,0,7334.757,0
0,158,target,"[(1077, 800)]",[],[1],[0.85],horizontal,"(390.0, 762.0)",1.1833333333333333,nan,0,7339.803,0
0,159,target,"[(1061, 800)]",[],[1],[0.55],horizontal,"(890.0, 262.0)",0.7166666666666667,0.507,1,7344.656,1
0,160,target,"[(1107, 743), (1108, 806)]",[],"[0, 1]",[0.85],horizontal,"(390.0, 762.0)",0.5166666666666666,nan,0,7349.507,0
0,161,target,"[(1062, 795)]",[],[1],[0.31666666666666665],vertical,"(390.0, 262.0)",1.45,0.28,1,7355.575,1
0,162,target,"[(1111, 796)]",[],[1],[0.85],vertical,"(390.0, 262.0)",1.2333333333333334,nan,0,7360.591,0
0,163,target,"[(1080, 761)]",[],[1],[0.6166666666666667],vertical,"(390.0, 762.0)",1.1166666666666667,0.575,1,7366.053,1
0,164,target,"[(1110, 772)]",[],[1],[0.6],vertical,"(890.0, 762.0)",0.9666666666666667,0.56,1,7370.925,1
0,165,target,"[(1086, 782)]",[],[1],[0.48333333333333334],vertical,"(390.0, 262.0)",1.35,0.446,1,7376.242,1
0,166,target,"[(1112, 764)]",[],[1],[0.5333333333333333],vertical,"(890.0, 262.0)",0.8833333333333333,0.494,1,7381.493,2
0,167,target,"[(1118, 789)]",[],[1],[0.85],vertical,"(390.0, 762.0)",1.1666666666666667,nan,0,7387.175,0
0,168,target,"[(1066, 760)]",[],[1],[0.6333333333333333],horizontal,"(390.0, 762.0)",0.9833333333333333,0.592,1,7391.924,1
0,169,target,"[(1114, 782)]",[],[1],[0.85],horizontal,"(890.0, 762.0)",0.75,nan,0,7396.604,0
0,170,target,"[(1063, 773)]",[],[1],[0.65],vertical,"(390.0, 262.0)",0.5666666666666667,0.606,1,7401.682,1
0,171,target,"[(1078, 778)]",[],[1],[0.15],vertical,"(890.0, 762.0)",1.6833333333333333,0.118,0,7406.466,0
0,172,catch,"[(1114, 767)]",[],[1],[],horizontal,"(390.0, 262.0)",1.6,nan,1,7411.673,1
0,173,target,"[(1105, 806)]",[],[1],[0.5833333333333334],horizontal,"(390.0, 262.0)",1.2,0.55,1,7416.709,1
0,174,target,"[(1106, 769)]",[],[1],[0.6166666666666667],vertical,"(390.0, 762.0)",0.75,0.573,1,7422.186,1
0,175,catch,"[(1099, 781)]",[],[1],[],vertical,"(890.0, 262.0)",1.6,nan,1,7426.907,2
0,176,target,"[(1108, 779)]",[],[1],[0.36666666666666664],vertical,"(890.0, 762.0)",1.4,0.327,1,7432.433,2
0,177,target,"[(1124, 776)]",[],[1],[0.7],horizontal,"(890.0, 762.0)",1.0,0.669,1,7437.841,2
0,178,target,"[(1083, 796)]",[],[1],[0.3333333333333333],horizontal,"(890.0, 762.0)",1.4333333333333333,0.296,1,7443.366,2
0,179,target,"[(1082, 779)]",[],[1],[0.85],vertical,"(390.0, 762.0)",0.85,nan,0,7449.342,0
0,180,target,"[(1086, 792)]",[],[1],[0.5],horizontal,"(890.0, 762.0)",1.4166666666666667,0.46,1,7454.03,1
0,181,catch,"[(1086, 761)]",[],[1],[],vertical,"(390.0, 762.0)",1.6,nan,1,7459.792,1
0,182,target,"[(1102, 796)]",[],[1],[0.6666666666666666],vertical,"(890.0, 762.0)",1.15,0.626,1,7464.641,1
0,183,target,"[(1100, 776)]",[],[1],[0.7],horizontal,"(390.0, 762.0)",0.7666666666666666,0.666,1,7469.899,2
0,184,target,"[(1127, 782)]",[],[1],[0.5666666666666667],vertical,"(890.0, 762.0)",1.3333333333333333,0.527,1,7475.316,2
0,185,catch,"[(1101, 765)]",[],[1],[],horizontal,"(890.0, 762.0)",1.6,nan,1,7481.058,2
0,186,target,"[(1123, 767)]",[],[1],[0.85],vertical,"(390.0, 762.0)",0.6666666666666666,nan,0,7486.837,0
0,187,target,"[(1104, 786)]",[],[1],[0.6666666666666666],horizontal,"(390.0, 762.0)",0.7666666666666666,0.627,1,7491.325,1
0,188,target,"[(1096, 759)]",[],[1],[0.5],vertical,"(890.0, 262.0)",1.2666666666666666,0.457,1,7496.308,1
0,189,target,"[(1085, 770)]",[],[1],[0.7333333333333333],vertical,"(390.0, 762.0)",0.9666666666666667,0.692,1,7501.6,1
0,190,target,"[(1104, 797)]",[],[1],[0.65],vertical,"(390.0, 762.0)",1.1,0.612,1,7506.725,2
0,191,target,"[(1104, 773)]",[],[1],[0.6833333333333333],vertical,"(390.0, 762.0)",0.6333333333333333,0.642,1,7512.285,2
0,192,target,"[(1102, 762)]",[],[1],[0.5],horizontal,"(390.0, 262.0)",1.3166666666666667,0.456,1,7517.785,2
0,193,target,"[(1101, 781)]",[],[1],[0.35],vertical,"(390.0, 762.0)",1.55,0.311,1,7522.942,2
0,194,target,"[(1086, 776)]",[],[1],[0.6666666666666666],vertical,"(390.0, 762.0)",1.15,0.623,1,7528.808,2
0,195,catch,"[(1105, 781)]",[],[1],[],vertical,"(390.0, 762.0)",1.6,nan,1,7534.158,3
0,196,target,"[(1108, 778)]",[],[1],[0.43333333333333335],horizontal,"(890.0, 762.0)",1.6666666666666667,0.398,1,7540.458,3
0,197,target,"[(1105, 782)]",[],[1],[0.85],vertical,"(890.0, 762.0)",0.6,nan,0,7546.558,0
0,198,target,"[(1062, 781)]",[],[1],[0.5666666666666667],horizontal,"(890.0, 262.0)",0.9666666666666667,0.525,1,7551.4,1
0,199,target,"[(1081, 751), (1091, 803)]",[],"[0, 1]",[0.5833333333333334],horizontal,"(390.0, 762.0)",1.0666666666666667,0.543,1,7556.464,1
0,200,target,"[(1091, 779)]",[],[1],[0.45],vertical,"(890.0, 262.0)",1.3,0.411,1,7562.526,1
0,201,target,"[(1100, 773)]",[],[1],[0.55],horizontal,"(890.0, 762.0)",1.3,0.517,1,7567.775,2
0,202,catch,"[(1104, 766)]",[],[1],[],horizontal,"(390.0, 762.0)",1.6,nan,1,7573.722,2
0,203,target,"[(1106, 776)]",[],[1],[0.85],vertical,"(390.0, 262.0)",0.8666666666666667,nan,0,7579.176,0
0,204,target,"[(1087, 776)]",[],[1],[0.6333333333333333],horizontal,"(890.0, 262.0)",1.4,0.594,1,7583.999,1
0,205,target,"[(1086, 764)]",[],[1],[0.85],vertical,"(390.0, 762.0)",0.7666666666666666,nan,0,7589.058,0
0,206,target,"[(1062, 785)]",[],[1],[0.21666666666666667],vertical,"(890.0, 262.0)",1.65,0.18,0,7593.874,0
0,207,target,"[(1081, 771)]",[],[1],[0.75],vertical,"(390.0, 762.0)",0.9333333333333333,0.704,1,7598.792,1
0,208,target,"[(1108, 766)]",[],[1],[0.65],vertical,"(390.0, 762.0)",0.75,0.609,1,7604.419,1
0,209,target,"[(1100, 764)]",[],[1],[0.6666666666666666],vertical,"(390.0, 262.0)",1.0833333333333333,0.618,1,7609.077,1
0,210,target,"[(1085, 772)]",[],[1],[0.3833333333333333],vertical,"(390.0, 762.0)",1.6,0.346,1,7614.584,2
0,211,target,"[(1124, 749), (1086, 801)]",[],"[0, 1]",[0.5333333333333333],vertical,"(390.0, 762.0)",1.1,0.493,1,7620.562,2
0,212,target,"[(1111, 769)]",[],[1],[0.31666666666666665],vertical,"(890.0, 262.0)",1.6,0.279,1,7626.86,2
0,213,target,"[(1075, 771)]",[],[1],[0.6],horizontal,"(390.0, 262.0)",1.1,0.553,1,7632.426,2
0,214,target,"[(1091, 776)]",[],[1],[0.5166666666666666],vertical,"(390.0, 262.0)",1.2833333333333332,0.479,1,7637.592,2
0,215,target,"[(1071, 783)]",[],[1],[0.5666666666666667],horizontal,"(890.0, 762.0)",1.1166666666666667,0.524,1,7642.909,3
0,216,target,"[(1124, 766)]",[],[1],[0.23333333333333334],vertical,"(890.0, 262.0)",1.6333333333333333,0.197,0,7649.176,0
0,217,target,"[(1065, 795)]",[],[1],[0.7333333333333333],horizontal,"(390.0, 262.0)",0.5166666666666666,0.691,1,7654.443,1
0,218,target,"[(1108, 777)]",[],[1],[0.8333333333333334],horizontal,"(890.0, 762.0)",1.0833333333333333,0.783,1,7659.325,1
0,219,target,"[(1109, 770)]",[],[1],[0.7166666666666667],horizontal,"(890.0, 762.0)",0.6,0.67,1,7664.643,1
0,220,target,"[(1100, 771)]",[],[1],[0.4166666666666667],horizontal,"(390.0, 262.0)",1.5166666666666666,0.375,1,7669.292,2
0,221,target,"[(1115, 764)]",[],[1],[0.5333333333333333],horizontal,"(390.0, 762.0)",1.3,0.494,1,7674.659,2
0,222,target,"[(1076, 756)]",[],[1],[0.85],horizontal,"(390.0, 262.0)",0.8833333333333333,nan,0,7680.376,0
0,223,target,"[(1081, 800)]",[],[1],[0.36666666666666664],horizontal,"(890.0, 262.0)",1.6166666666666667,0.327,1,7685.127,1
0,224,target,"[(1110, 761)]",[],[1],[0.6333333333333333],vertical,"(890.0, 262.0)",0.9,0.592,1,7690.709,1
0,225,target,"[(1110, 751), (1099, 806)]",[],"[0, 1]",[0.5333333333333333],vertical,"(390.0, 762.0)",0.85,0.491,1,7695.675,1
0,226,target,"[(1099, 833)]",[],[1],[0.6166666666666667],vertical,"(390.0, 762.0)",0.9666666666666667,0.574,1,7704.026,2
0,227,target,"[(1107, 796)]",[],[1],[0.85],vertical,"(890.0, 262.0)",0.5666666666666667,nan,0,7709.175,0
0,228,target,"[(1062, 771)]",[],[1],[0.5166666666666666],horizontal,"(390.0, 262.0)",1.0166666666666666,0.475,1,7713.392,1
0,229,target,"[(1102, 751), (1105, 801)]",[],"[0, 1]",[0.5666666666666667],horizontal,"(390.0, 262.0)",1.0,0.524,1,7718.627,1
0,230,target,"[(1100, 763)]",[],[1],[0.31666666666666665],vertical,"(890.0, 762.0)",1.4333333333333333,0.275,1,7724.458,1
0,231,target,"[(1084, 778)]",[],[1],[0.7],vertical,"(890.0, 262.0)",1.35,0.651,1,7729.967,2
0,232,target,"[(1101, 772)]",[],[1],[0.5833333333333334],vertical,"(890.0, 262.0)",0.75,0.537,1,7736.401,2
0,233,target,"[(1100, 771)]",[],[1],[0.3833333333333333],vertical,"(390.0, 262.0)",1.5166666666666666,0.348,1,7741.813,2
0,234,target,"[(1105, 781)]",[],[1],[0.6],vertical,"(890.0, 762.0)",0.9,0.561,1,7747.35,2
0,235,target,"[(1106, 769)]",[],[1],[0.6333333333333333],vertical,"(390.0, 262.0)",1.15,0.586,1,7752.424,2
0,236,target,"[(1098, 786)]",[],[1],[0.6333333333333333],vertical,"(390.0, 762.0)",1.2,0.586,1,7757.716,3
0,237,target,"[(1100, 768)]",[],[1],[0.7],vertical,"(390.0, 262.0)",0.6166666666666667,0.656,1,7763.676,3
0,238,target,"[(1105, 770)]",[],[1],[0.5166666666666666],horizontal,"(890.0, 262.0)",1.35,0.475,1,7768.876,3
0,239,target,"[(1100, 787)]",[],[1],[0.85],horizontal,"(890.0, 762.0)",0.5,nan,0,7774.593,0
0,240,target,"[(1072, 795)]",[],[1],[0.3],vertical,"(890.0, 262.0)",1.5166666666666666,0.262,1,7779.142,1
0,241,target,"[(1082, 766)]",[],[1],[0.6],horizontal,"(390.0, 262.0)",0.6,0.556,1,7784.642,1
0,242,target,"[(1112, 751), (1062, 819)]",[],"[0, 1]",[0.6],horizontal,"(890.0, 762.0)",0.7666666666666666,0.558,1,7788.886,1
0,243,target,"[(1077, 747), (1078, 796)]",[],"[0, 1]",[0.85],horizontal,"(390.0, 262.0)",0.5166666666666666,nan,0,7795.101,0
0,244,target,"[(1071, 766)]",[],[1],[0.26666666666666666],horizontal,"(390.0, 762.0)",1.4833333333333334,0.231,1,7800.46,1
0,245,target,"[(1079, 801)]",[],[1],[0.6],horizontal,"(890.0, 762.0)",0.9833333333333333,0.553,1,7805.709,1
0,246,catch,"[(1127, 795)]",[],[1],[],horizontal,"(390.0, 762.0)",1.6,nan,1,7811.359,1
0,247,target,"[(1123, 767)]",[],[1],[0.55],horizontal,"(890.0, 262.0)",1.4333333333333333,0.509,1,7816.32,2
0,248,target,"[(1091, 822)]",[],[1],[0.13333333333333333],horizontal,"(390.0, 262.0)",1.6,0.101,0,7821.83,0
0,249,target,"[(1067, 799)]",[],[1],[0.6833333333333333],horizontal,"(390.0, 762.0)",1.0666666666666667,0.639,1,10429.806,1
0,250,target,"[(1091, 801)]",[],[1],[0.85],horizontal,"(890.0, 762.0)",1.15,nan,0,10435.138,0
0,251,catch,"[(1076, 806)]",[],[1],[],horizontal,"(890.0, 762.0)",1.6,nan,1,10440.505,1
0,252,target,"[(1082, 802)]",[],[1],[0.36666666666666664],horizontal,"(890.0, 762.0)",1.55,0.333,1,10445.721,1
0,253,target,"[(1082, 791)]",[],[1],[0.5833333333333334],vertical,"(890.0, 762.0)",0.85,0.539,1,10451.189,1
0,254,target,"[(1125, 782)]",[],[1],[0.5333333333333333],vertical,"(890.0, 762.0)",1.0166666666666666,0.485,1,10456.305,2
0,255,target,"[(1125, 796)]",[],[1],[0.36666666666666664],horizontal,"(890.0, 762.0)",1.2833333333333332,0.33,1,10461.929,2
0,256,target,"[(1117, 779)]",[],[1],[],horizontal,"(390.0, 762.0)",,"('cti', 1.43)",0,10467.621,0
0,257,target,"[(1121, 799)]",[],[1],[0.16666666666666666],vertical,"(390.0, 762.0)",1.5166666666666666,0.134,0,10472.391,0
0,258,target,"[(1064, 796)]",[],[1],[0.5333333333333333],vertical,"(890.0, 262.0)",0.85,0.498,1,10477.338,1
0,259,target,"[(1128, 773)]",[],[1],[],vertical,"(890.0, 262.0)",,"('cti', 1.018)",0,10481.803,0
0,260,target,"[(1045, 806)]",[],[1],[0.6166666666666667],horizontal,"(890.0, 762.0)",0.85,0.585,1,10486.397,1
0,261,target,"[(1094, 789)]",[],[1],[0.6],horizontal,"(390.0, 762.0)",0.8333333333333334,0.568,1,10491.451,1
0,262,target,"[(1105, 772)]",[],[1],[0.85],horizontal,"(390.0, 762.0)",0.65,nan,0,10497.095,0
0,263,target,"[(1070, 791)]",[],[1],[0.06666666666666667],vertical,"(390.0, 262.0)",1.5333333333333332,0.036,0,10501.588,0
0,264,catch,"[(1069, 787)]",[],[1],[],vertical,"(390.0, 762.0)",1.6,nan,1,10506.222,1
0,265,target,"[(1074, 788)]",[],[1],[0.5666666666666667],vertical,"(890.0, 262.0)",0.7333333333333333,0.533,1,10511.438,1
0,266,target,"[(1111, 808)]",[],[1],[0.5333333333333333],horizontal,"(390.0, 762.0)",1.15,0.499,1,10516.099,1
0,267,target,"[(1094, 792)]",[],[1],[0.45],vertical,"(890.0, 262.0)",0.8666666666666667,0.417,1,10521.346,2
0,268,catch,"[(1108, 800)]",[],[1],[],horizontal,"(390.0, 262.0)",,"('cti', 1.584),nan",0,10526.87,0
0,269,target,"[(1088, 810)]",[],[1],[0.2],horizontal,"(390.0, 762.0)",1.6833333333333333,0.17,0,10531.993,0
0,270,target,"[(1059, 800)]",[],[1],[0.7166666666666667],vertical,"(390.0, 762.0)",0.6,0.669,1,10536.675,1
0,271,target,"[(1094, 801)]",[],[1],[0.4666666666666667],horizontal,"(390.0, 762.0)",1.1666666666666667,0.424,1,10541.673,1
0,272,target,"[(1113, 791)]",[],[1],[0.85],horizontal,"(390.0, 262.0)",0.8833333333333333,nan,0,10547.125,0
0,273,target,"[(1079, 806)]",[],[1],[0.7],vertical,"(390.0, 762.0)",0.95,0.659,1,10551.77,1
0,274,target,"[(1112, 764)]",[],[1],[0.55],horizontal,"(890.0, 262.0)",0.85,0.514,1,10556.572,1
0,275,catch,"[(1079, 765)]",[],[1],[],vertical,"(890.0, 262.0)",1.6,nan,1,10561.228,1
0,276,target,"[(1105, 798)]",[],[1],[0.2],horizontal,"(390.0, 762.0)",1.5166666666666666,0.17,0,10566.169,0
0,277,target,"[(1081, 790)]",[],[1],[0.3333333333333333],horizontal,"(390.0, 762.0)",1.5,0.295,1,10571.216,1
0,278,target,"[(1125, 791)]",[],[1],[0.85],vertical,"(890.0, 762.0)",0.6,nan,0,10576.339,0
0,279,target,"[(1082, 766)]",[],[1],[0.5],vertical,"(890.0, 762.0)",1.3833333333333333,0.457,1,10581.006,1
0,280,target,"[(1087, 797)]",[],[1],[0.65],horizontal,"(390.0, 262.0)",1.4666666666666666,0.605,1,10586.572,1
0,281,target,"[(1105, 791)]",[],[1],[0.55],horizontal,"(890.0, 262.0)",0.9666666666666667,0.51,1,10591.892,1
0,282,target,"[(1109, 788)]",[],[1],[0.7166666666666667],horizontal,"(890.0, 262.0)",0.55,0.67,1,10596.739,2
0,283,target,"[(1124, 781)]",[],[1],[0.5166666666666666],horizontal,"(890.0, 262.0)",1.05,0.477,1,10602.164,2
0,284,target,"[(1105, 785)]",[],[1],[0.55],horizontal,"(890.0, 762.0)",1.1666666666666667,0.511,1,10607.47,2
0,285,target,"[(1107, 773)]",[],[1],[0.6],vertical,"(390.0, 262.0)",1.2166666666666666,0.556,1,10613.091,2
0,286,target,"[(1101, 791)]",[],[1],[0.6333333333333333],vertical,"(890.0, 262.0)",1.15,0.591,1,10618.549,2
0,287,catch,"[(1100, 786)]",[],[1],[],horizontal,"(890.0, 262.0)",1.6,"('cti', 1.591),nan",0,10624.39,0
0,288,target,"[(1086, 775)]",[],[1],[0.85],horizontal,"(390.0, 762.0)",0.9833333333333333,nan,0,10628.983,0
0,289,target,"[(1086, 781)]",[],[1],[0.05],vertical,"(390.0, 762.0)",1.6666666666666667,0.019,0,10633.43,0
0,290,target,"[(1084, 757)]",[],[1],[0.5666666666666667],horizontal,"(890.0, 762.0)",0.5166666666666666,0.523,1,10638.416,1
0,291,target,"[(1111, 776)]",[],[1],[0.7333333333333333],horizontal,"(390.0, 262.0)",0.9,0.691,1,10642.491,1
0,292,target,"[(1086, 759)]",[],[1],[0.55],vertical,"(390.0, 262.0)",0.65,0.51,1,10647.36,1
0,293,target,"[(1096, 763)]",[],[1],[0.6],vertical,"(890.0, 262.0)",0.5166666666666666,0.555,1,10651.95,2
0,294,target,"[(1125, 773)]",[],[1],[0.5833333333333334],vertical,"(890.0, 262.0)",0.5333333333333333,0.542,1,10657.143,2
0,295,target,"[(1120, 796)]",[],[1],[],horizontal,"(890.0, 262.0)",,"('cti', 1.525)",0,10661.925,0
0,296,target,"[(1106, 782)]",[],[1],[0.36666666666666664],horizontal,"(890.0, 762.0)",1.0833333333333333,0.33,1,10666.834,1
0,297,target,"[(1086, 796)]",[],[1],[0.5666666666666667],vertical,"(890.0, 262.0)",0.6666666666666666,0.523,1,10673.023,1
0,298,catch,"[(1103, 801)]",[],[1],[],horizontal,"(390.0, 262.0)",1.6,nan,1,10678.373,1
0,299,catch,"[(1091, 801)]",[],[1],[],horizontal,"(890.0, 762.0)",1.6,nan,1,10683.861,2
0,300,catch,"[(1100, 795)]",[],[1],[],horizontal,"(890.0, 762.0)",1.6,nan,1,10689.25,2
0,301,target,"[(1118, 789)]",[],[1],[0.85],vertical,"(390.0, 262.0)",1.6333333333333333,"('cti', 1.614),nan",0,10694.689,0
0,302,target,"[(1096, 768)]",[],[1],[0.55],vertical,"(890.0, 762.0)",1.2833333333333332,0.502,1,10700.334,1
0,303,catch,"[(1098, 801)]",[],[1],[],horizontal,"(890.0, 762.0)",1.6,nan,1,10705.074,1
0,304,target,"[(1107, 787)]",[],[1],[0.5333333333333333],vertical,"(390.0, 262.0)",0.9666666666666667,0.492,1,10710.074,1
0,305,target,"[(1103, 780)]",[],[1],[0.85],vertical,"(890.0, 262.0)",0.6666666666666666,nan,0,10715.04,0
0,306,catch,"[(1089, 791)]",[],[1],[],vertical,"(890.0, 762.0)",1.6,nan,1,10719.456,1
0,307,target,"[(1100, 801)]",[],[1],[0.6166666666666667],vertical,"(890.0, 262.0)",0.9166666666666666,0.575,1,10725.107,1
0,308,target,"[(1107, 791)]",[],[1],[0.6333333333333333],horizontal,"(890.0, 762.0)",1.1,0.593,1,10730.332,1
0,309,target,"[(1126, 771)]",[],[1],[0.85],horizontal,"(890.0, 762.0)",0.6666666666666666,nan,0,10735.372,0
0,310,target,"[(1086, 768)]",[],[1],[0.6166666666666667],vertical,"(390.0, 762.0)",1.05,0.57,1,10740.066,1
0,311,target,"[(1124, 768)]",[],[1],[0.6666666666666666],vertical,"(890.0, 762.0)",0.7833333333333333,0.627,1,10745.156,1
0,312,target,"[(1124, 761)]",[],[1],[0.4166666666666667],vertical,"(890.0, 262.0)",1.35,0.381,1,10750.256,1
0,313,catch,"[(1123, 745), (1085, 809)]",[],"[0, 1]",[],horizontal,"(390.0, 262.0)",1.6,nan,1,10755.215,2
0,314,target,"[(1108, 782)]",[],[1],[0.6333333333333333],horizontal,"(890.0, 762.0)",0.8166666666666667,0.588,1,10761.889,2
0,315,target,"[(1127, 779)]",[],[1],[0.25],vertical,"(890.0, 262.0)",1.5833333333333333,0.214,1,10766.906,2
0,316,target,"[(1096, 784)]",[],[1],[0.5],horizontal,"(890.0, 262.0)",0.9833333333333333,0.464,1,10772.395,2
0,317,target,"[(1113, 776)]",[],[1],[0.31666666666666665],horizontal,"(390.0, 262.0)",1.5333333333333332,0.277,1,10777.784,2
0,318,catch,"[(1103, 768)]",[],[1],[],vertical,"(890.0, 762.0)",1.6,"('cti', 1.583),nan",0,10783.482,0
0,319,catch,"[(1090, 770)]",[],[1],[],horizontal,"(390.0, 762.0)",1.6,nan,1,10788.373,1
0,320,target,"[(1089, 769)]",[],[1],[0.5666666666666667],horizontal,"(890.0, 262.0)",0.5333333333333333,0.527,1,10793.174,1
0,321,catch,"[(1089, 779)]",[],[1],[],horizontal,"(890.0, 762.0)",1.6,nan,1,10797.418,1
0,322,target,"[(1100, 771)]",[],[1],[0.3333333333333333],horizontal,"(390.0, 762.0)",1.55,0.3,1,10803.141,2
0,323,target,"[(1096, 792)]",[],[1],[0.65],vertical,"(890.0, 762.0)",1.0333333333333332,0.603,1,10808.493,2
0,324,target,"[(1108, 781)]",[],[1],[0.5333333333333333],horizontal,"(390.0, 762.0)",1.1333333333333333,0.493,1,10814.219,2
0,325,target,"[(1085, 796)]",[],[1],[0.5833333333333334],vertical,"(390.0, 262.0)",1.2166666666666666,0.541,1,10819.509,2
0,326,target,"[(1091, 803)]",[],[1],[0.85],vertical,"(390.0, 762.0)",1.3833333333333333,nan,0,10825.222,0
0,327,target,"[(1091, 800)]",[],[1],[0.5333333333333333],horizontal,"(890.0, 762.0)",0.6,0.495,1,10830.707,1
0,328,target,"[(1095, 782)]",[],[1],[],vertical,"(390.0, 762.0)",,"('cti', 1.599)",0,10835.373,0
0,329,target,"[(1103, 807)]",[],[1],[0.6166666666666667],horizontal,"(890.0, 262.0)",1.05,0.574,1,10840.556,1
0,330,target,"[(1110, 819)]",[],[1],[0.55],vertical,"(890.0, 262.0)",0.5833333333333334,0.509,1,10871.868,1
0,331,target,"[(1117, 769)]",[],[1],[0.06666666666666667],vertical,"(390.0, 262.0)",1.45,0.037,0,10876.407,0
0,332,catch,"[(1105, 775)]",[],[1],[],vertical,"(890.0, 262.0)",1.6,nan,1,10881.287,1
0,333,target,"[(1086, 780)]",[],[1],[0.85],horizontal,"(390.0, 262.0)",0.8666666666666667,nan,0,10885.873,0
0,334,target,"[(1057, 769)]",[],[1],[0.43333333333333335],vertical,"(390.0, 262.0)",1.3166666666666667,0.394,1,10890.689,1
0,335,target,"[(1124, 766)]",[],[1],[0.5],horizontal,"(890.0, 762.0)",1.1833333333333333,0.459,1,10896.074,1
0,336,target,"[(1119, 777)]",[],[1],[0.2833333333333333],horizontal,"(390.0, 762.0)",1.4333333333333333,0.245,1,10901.32,1
0,337,target,"[(1094, 776)]",[],[1],[0.55],horizontal,"(890.0, 262.0)",0.6833333333333333,0.512,1,10906.154,2
0,338,catch,"[(1112, 748), (1096, 790)]",[],"[0, 1]",[],vertical,"(890.0, 762.0)",1.6,nan,1,10911.39,2
0,339,target,"[(1115, 775)]",[],[1],[],vertical,"(390.0, 262.0)",,"('cti', 1.555)",0,10917.647,0
0,340,target,"[(1113, 779)]",[],[1],[0.21666666666666667],vertical,"(890.0, 762.0)",1.5,0.18,0,10922.42,0
0,341,catch,"[(1084, 778)]",[],[1],[],horizontal,"(890.0, 262.0)",1.6,nan,1,10927.057,1
0,342,catch,"[(1100, 794)]",[],[1],[0.03333333333333333],horizontal,"(390.0, 762.0)",1.6,"0.019,nan",0,10932.157,0
0,343,catch,"[(1075, 787)]",[],[1],[],vertical,"(390.0, 762.0)",,"('cti', 1.543),nan",0,10937.124,0
0,344,target,"[(1057, 776)]",[],[1],[0.15],vertical,"(390.0, 262.0)",1.6166666666666667,0.115,0,10941.958,0
0,345,target,"[(1076, 779)]",[],[1],[0.48333333333333334],vertical,"(390.0, 762.0)",1.5833333333333333,0.443,1,10947.018,1
0,346,target,"[(1107, 781)]",[],[1],[0.5166666666666666],horizontal,"(890.0, 762.0)",0.8333333333333334,0.475,1,10952.308,1
0,347,target,"[(1106, 767)]",[],[1],[0.5833333333333334],horizontal,"(890.0, 262.0)",0.7833333333333333,0.545,1,10957.091,1
0,348,target,"[(1148, 765)]",[],[1],[0.3833333333333333],vertical,"(390.0, 262.0)",1.4666666666666666,0.346,1,10961.608,2
0,349,target,"[(1123, 778)]",[],[1],[0.65],vertical,"(390.0, 762.0)",0.8333333333333334,0.61,1,10967.148,2
0,350,target,"[(1123, 790)]",[],[1],[0.6],vertical,"(390.0, 262.0)",1.0166666666666666,0.561,1,10972.341,2
0,351,target,"[(1124, 781)]",[],[1],[0.85],vertical,"(390.0, 762.0)",0.6333333333333333,nan,0,10977.722,0
0,352,catch,"[(1077, 775)]",[],[1],[],vertical,"(890.0, 762.0)",1.6,nan,1,10982.107,1
0,353,catch,"[(1123, 779)]",[],[1],[],horizontal,"(890.0, 762.0)",1.6,nan,1,10987.342,1
0,354,target,"[(1115, 784)]",[],[1],[0.55],vertical,"(390.0, 762.0)",1.1333333333333333,0.503,1,10992.207,1
0,355,target,"[(1120, 771)]",[],[1],[0.6333333333333333],horizontal,"(390.0, 762.0)",0.5333333333333333,0.599,1,10997.276,2
0,356,target,"[(1107, 774)]",[],[1],[0.5333333333333333],vertical,"(390.0, 762.0)",1.1,0.491,1,11001.952,2
0,357,target,"[(1086, 769)]",[],[1],[0.85],horizontal,"(890.0, 762.0)",1.6666666666666667,"('cti', 1.678),nan",0,11007.617,0
0,358,target,"[(1066, 772)]",[],[1],[0.65],horizontal,"(890.0, 762.0)",0.5666666666666667,0.607,1,11012.842,1
0,359,target,"[(1120, 767)]",[],[1],[0.6166666666666667],vertical,"(890.0, 262.0)",0.8,0.573,1,11017.257,1
0,360,target,"[(1077, 784)]",[],[1],[0.6],horizontal,"(890.0, 262.0)",0.6833333333333333,0.564,1,11022.445,1
0,361,catch,"[(1091, 778)]",[],[1],[],vertical,"(390.0, 262.0)",1.6,nan,1,11027.458,2
0,362,target,"[(1124, 762)]",[],[1],[0.48333333333333334],horizontal,"(390.0, 762.0)",1.1833333333333333,0.452,1,11033.789,2
0,363,catch,"[(1119, 784)]",[],[1],[0.03333333333333333],vertical,"(390.0, 762.0)",1.6,"0.019,nan",0,11039.075,0
0,364,target,"[(1076, 773)]",[],[1],[0.5333333333333333],horizontal,"(390.0, 262.0)",1.3833333333333333,0.5,1,11043.712,1
0,365,catch,"[(1081, 764)]",[],[1],[],horizontal,"(890.0, 262.0)",,"('cti', 1.133),nan",0,11048.784,0
0,366,catch,"[(1069, 768)]",[],[1],[],horizontal,"(890.0, 762.0)",,"('cti', 1.599),nan",0,11053.693,0
0,367,catch,"[(1098, 776)]",[],[1],[],vertical,"(390.0, 762.0)",1.6,nan,1,11058.741,1
0,368,target,"[(1121, 761)]",[],[1],[0.65],horizontal,"(390.0, 762.0)",0.5833333333333334,0.618,1,11064.108,1
0,369,catch,"[(1105, 771)]",[],[1],[],vertical,"(890.0, 262.0)",1.6,nan,1,11069.024,1
0,370,target,"[(1105, 804)]",[],[1],[0.45],vertical,"(390.0, 262.0)",1.3,0.411,1,11074.036,2
0,371,target,"[(1129, 791)]",[],[1],[0.5666666666666667],horizontal,"(390.0, 262.0)",0.75,0.526,1,11079.431,2
0,372,target,"[(1091, 788)]",[],[1],[0.48333333333333334],vertical,"(890.0, 262.0)",1.05,0.445,1,11084.774,2
0,373,catch,"[(1081, 779)]",[],[1],[],horizontal,"(890.0, 262.0)",,"('cti', 1.033),nan",0,11090.304,0
0,374,target,"[(1091, 809)]",[],[1],[0.65],horizontal,"(390.0, 762.0)",0.7166666666666667,0.603,1,11094.652,1
0,375,target,"[(1113, 803)]",[],[1],[0.36666666666666664],vertical,"(390.0, 762.0)",1.0666666666666667,0.329,1,11210.709,1
0,376,target,"[(1109, 792)]",[],[1],[0.23333333333333334],horizontal,"(890.0, 262.0)",1.4,0.196,0,11215.675,0
0,377,catch,"[(1075, 778)]",[],[1],[],horizontal,"(890.0, 762.0)",1.6,nan,1,11220.949,1
0,378,target,"[(1058, 788)]","[(1063, 796)]",[1],[0.06666666666666667],vertical,"(890.0, 262.0)",,"('bar', 0.084)",0,11225.733,0
0,379,target,"[(1038, 804)]",[],[1],[0.4166666666666667],vertical,"(390.0, 262.0)",1.2333333333333334,0.375,1,11235.608,1
0,380,target,"[(1047, 790)]",[],[1],[0.21666666666666667],vertical,"(890.0, 762.0)",1.5666666666666667,0.183,0,11253.466,0
0,381,target,"[(1081, 785)]",[],[1],[0.18333333333333332],vertical,"(890.0, 262.0)",1.5166666666666666,0.146,0,11259.034,0
0,382,catch,"[(1052, 802)]",[],[1],[],horizontal,"(890.0, 262.0)",1.6,nan,1,11263.666,1
0,383,target,"[(1122, 811)]",[],[1],[0.48333333333333334],vertical,"(390.0, 262.0)",1.0,0.442,1,11272.642,1
0,384,target,"[(1110, 782)]",[],[1],[0.85],vertical,"(890.0, 762.0)",0.5833333333333334,nan,0,11277.367,0
0,385,target,"[(1075, 800)]",[],[1],[0.4],horizontal,"(390.0, 262.0)",1.2,0.362,1,11281.39,1
0,386,target,"[(1115, 790)]",[],[1],[0.5],vertical,"(890.0, 262.0)",1.1333333333333333,0.457,1,11286.134,1
0,387,catch,"[(1121, 785)]",[],[1],[0.03333333333333333],horizontal,"(890.0, 762.0)",1.6,"0.018,nan",0,11290.711,0
0,388,target,"[(1077, 771)]",[],[1],[0.4666666666666667],vertical,"(890.0, 262.0)",1.2833333333333332,0.426,1,11295.257,1
0,389,target,"[(1105, 771)]",[],[1],[0.5166666666666666],horizontal,"(890.0, 762.0)",1.2833333333333332,0.474,1,11299.963,1
0,390,target,"[(1115, 788)]",[],[1],[0.6666666666666666],horizontal,"(390.0, 762.0)",1.15,0.616,1,11305.624,1
0,391,catch,"[(1075, 816)]",[],[1],[],vertical,"(890.0, 262.0)",1.6,nan,1,11310.661,2
0,392,catch,"[(1101, 799)]",[],[1],[],horizontal,"(890.0, 762.0)",,"('cti', 1.515),nan",0,11341.358,0
0,393,target,"[(1102, 791)]",[],[1],[0.5333333333333333],vertical,"(390.0, 762.0)",1.15,0.493,1,11345.859,1
0,394,catch,"[(1104, 778)]",[],[1],[],horizontal,"(390.0, 762.0)",1.6,nan,1,11350.741,1
0,395,target,"[(1076, 792)]",[],[1],[0.6666666666666666],horizontal,"(890.0, 762.0)",1.3333333333333333,0.626,1,11355.567,1
0,396,target,"[(1081, 773)]",[],[1],[0.5166666666666666],vertical,"(890.0, 762.0)",1.0,0.47,1,11365.159,2
0,397,target,"[(1109, 770)]",[],[1],[0.5333333333333333],horizontal,"(390.0, 262.0)",0.7833333333333333,0.492,1,11370.838,2
0,398,target,"[(1107, 774)]",[],[1],[0.45],vertical,"(390.0, 262.0)",1.2,0.412,1,11375.693,2
0,399,target,"[(1102, 782)]",[],[1],[0.5666666666666667],vertical,"(390.0, 262.0)",0.75,0.528,1,11380.942,2
0,400,target,"[(1111, 771)]",[],[1],[0.2833333333333333],vertical,"(890.0, 762.0)",1.3333333333333333,0.246,1,11385.972,2
0,401,catch,"[(1110, 787)]",[],[1],[],horizontal,"(390.0, 762.0)",1.6,nan,1,11391.426,3
0,402,target,"[(1123, 801)]",[],[1],[0.23333333333333334],vertical,"(390.0, 762.0)",1.4333333333333333,0.195,0,11397.258,0
0,403,catch,"[(1091, 793)]",[],[1],[],vertical,"(390.0, 762.0)",1.6,"('cti', 1.591),nan",0,11401.793,0
0,404,target,"[(1076, 808)]",[],[1],[0.5],horizontal,"(390.0, 762.0)",1.2166666666666666,0.461,1,11406.576,1
0,405,target,"[(1120, 766)]",[],[1],[0.5333333333333333],horizontal,"(890.0, 262.0)",1.3166666666666667,0.494,1,11411.942,1
0,406,target,"[(1120, 770)]",[],[1],[0.65],horizontal,"(890.0, 762.0)",0.8166666666666667,0.617,1,11417.494,1
0,407,catch,"[(1107, 784)]",[],[1],[],vertical,"(890.0, 762.0)",1.6,nan,1,11422.405,2
0,408,target,"[(1097, 761)]",[],[1],[0.48333333333333334],horizontal,"(890.0, 262.0)",1.15,0.455,1,11427.692,2
0,409,catch,"[(1110, 767)]",[],[1],[],vertical,"(890.0, 762.0)",1.6,nan,1,11433.139,2
0,410,target,"[(1081, 760)]",[],[1],[0.85],vertical,"(390.0, 762.0)",0.8166666666666667,nan,0,11438.362,0
0,411,target,"[(1079, 775)]",[],[1],[0.5833333333333334],horizontal,"(890.0, 262.0)",1.2333333333333334,0.536,1,11442.965,1
0,412,catch,"[(1100, 772)]",[],[1],[],vertical,"(390.0, 262.0)",,"('cti', 1.571),nan",0,11448.108,0
0,413,target,"[(1112, 798)]",[],[1],[0.5166666666666666],horizontal,"(390.0, 262.0)",0.85,0.477,1,11452.886,1
0,414,target,"[(1111, 773)]",[],[1],[0.5333333333333333],vertical,"(890.0, 262.0)",0.6166666666666667,0.495,1,11457.48,1
0,415,catch,"[(1084, 768)]",[],[1],[],vertical,"(890.0, 262.0)",,"('cti', 1.196),nan",0,11462.042,0
0,416,target,"[(1105, 801)]",[],[1],[0.48333333333333334],horizontal,"(390.0, 262.0)",1.1666666666666667,0.444,1,11466.609,1
0,417,target,"[(1104, 768)]",[],[1],[0.65],horizontal,"(390.0, 262.0)",0.6166666666666667,0.609,1,11471.177,1
0,418,target,"[(1115, 772)]",[],[1],[0.85],vertical,"(390.0, 762.0)",0.5166666666666666,nan,0,11475.686,0
0,419,target,"[(1076, 776)]",[],[1],[0.65],vertical,"(390.0, 762.0)",0.9,0.609,1,11479.844,1
0,420,target,"[(1123, 771)]",[],[1],[0.85],vertical,"(890.0, 762.0)",0.6166666666666667,nan,0,11484.571,0
0,421,target,"[(1062, 781)]",[],[1],[0.55],horizontal,"(890.0, 262.0)",0.8666666666666667,0.513,1,11488.867,1
0,422,target,"[(1108, 768)]",[],[1],[0.48333333333333334],vertical,"(890.0, 762.0)",1.1,0.441,1,11494.326,1
0,423,catch,"[(1123, 759)]",[],[1],[],vertical,"(890.0, 262.0)",,"('cti', 1.481),nan",0,11499.305,0
0,424,target,"[(1107, 771)]",[],[1],[0.05],horizontal,"(390.0, 762.0)",1.5166666666666666,0.02,0,11504.259,0
0,425,target,"[(1110, 771)]",[],[1],[0.5],horizontal,"(390.0, 762.0)",1.3666666666666667,0.459,1,11508.827,1
0,426,target,"[(1111, 800)]",[],[1],[0.6],horizontal,"(390.0, 262.0)",0.5833333333333334,0.558,1,11513.743,1
0,427,target,"[(1121, 794)]",[],[1],[0.4],horizontal,"(890.0, 762.0)",1.2166666666666666,0.367,1,11518.177,1
0,428,target,"[(1078, 803)]",[],[1],[0.08333333333333333],vertical,"(390.0, 762.0)",1.6833333333333333,0.05,0,11523.8,0
0,429,target,"[(1098, 778)]",[],[1],[0.5666666666666667],vertical,"(890.0, 262.0)",1.0666666666666667,0.527,1,11531.181,1
0,430,target,"[(1123, 779)]",[],[1],[0.65],horizontal,"(890.0, 262.0)",0.7,0.606,1,11536.022,1
0,431,target,"[(1109, 775)]",[],[1],[0.31666666666666665],vertical,"(390.0, 262.0)",1.4833333333333334,0.278,1,11540.76,1
0,432,target,"[(1126, 769)]",[],[1],[0.1],horizontal,"(390.0, 762.0)",1.5833333333333333,0.069,0,11545.551,0
0,433,target,"[(1080, 774)]",[],[1],[0.45],vertical,"(390.0, 762.0)",1.2,0.417,1,11550.366,1
0,434,target,"[(1120, 776)]",[],[1],[0.5833333333333334],horizontal,"(890.0, 762.0)",0.8333333333333334,0.55,1,11555.943,1
0,435,catch,"[(1088, 780)]",[],[1],[],vertical,"(890.0, 762.0)",1.6,"('cti', 1.615),nan",0,11560.766,0
0,436,target,"[(1061, 805)]",[],[1],[0.5333333333333333],horizontal,"(890.0, 762.0)",1.2666666666666666,0.494,1,11566.211,1
0,437,target,"[(1105, 793)]",[],[1],[0.08333333333333333],horizontal,"(890.0, 762.0)",1.55,0.054,0,11588.619,0
0,438,target,"[(1083, 784)]",[],[1],[0.6166666666666667],horizontal,"(890.0, 762.0)",0.8166666666666667,0.585,1,11593.418,1
0,439,target,"[(1100, 761)]",[],[1],[0.5166666666666666],vertical,"(890.0, 262.0)",1.4166666666666667,0.484,1,11598.092,1
0,440,target,"[(1078, 773)]",[],[1],[0.35],horizontal,"(390.0, 762.0)",1.1666666666666667,0.311,1,11602.993,1
0,441,target,"[(1110, 774)]",[],[1],[0.5666666666666667],horizontal,"(890.0, 762.0)",0.8333333333333334,0.53,1,11608.503,2
0,442,target,"[(1105, 782)]",[],[1],[0.5333333333333333],vertical,"(890.0, 262.0)",0.75,0.492,1,11613.83,2
0,443,catch,"[(1119, 786)]",[],[1],[],vertical,"(890.0, 762.0)",1.6,nan,1,11619.227,2
0,444,target,"[(1105, 784)]",[],[1],[0.4],vertical,"(390.0, 262.0)",1.45,0.365,1,11624.586,2
0,445,target,"[(1115, 786)]",[],[1],[0.5166666666666666],vertical,"(890.0, 262.0)",0.9166666666666666,0.477,1,11630.008,2
0,446,target,"[(1116, 766)]",[],[1],[0.5333333333333333],vertical,"(390.0, 762.0)",1.0,0.491,1,11635.604,3
0,447,target,"[(1104, 796)]",[],[1],[0.4666666666666667],horizontal,"(890.0, 262.0)",1.2,0.425,1,11640.928,3
0,448,target,"[(1105, 776)]",[],[1],[0.35],horizontal,"(890.0, 262.0)",1.1166666666666667,0.312,1,11647.158,3
0,449,target,"[(1110, 790)]",[],[1],[0.85],vertical,"(390.0, 762.0)",1.1,nan,0,11653.427,0
0,450,target,"[(1112, 782)]",[],[1],[0.06666666666666667],horizontal,"(390.0, 762.0)",1.65,0.036,0,11657.928,0
0,451,target,"[(1105, 800)]",[],[1],[0.5833333333333334],vertical,"(890.0, 262.0)",1.1333333333333333,0.542,1,11662.796,1
0,452,target,"[(1109, 787)]",[],[1],[0.85],horizontal,"(390.0, 762.0)",0.6333333333333333,nan,0,11668.117,0
0,453,target,"[(1060, 767)]",[],[1],[0.7666666666666666],vertical,"(890.0, 762.0)",0.5333333333333333,0.719,1,11672.725,1
0,454,target,"[(1110, 787)]",[],[1],[0.65],horizontal,"(390.0, 762.0)",0.6833333333333333,0.603,1,11677.545,1
0,455,catch,"[(1126, 778)]",[],[1],[],horizontal,"(390.0, 262.0)",1.6,nan,1,11682.66,1
0,456,target,"[(1108, 790)]",[],[1],[0.6333333333333333],vertical,"(390.0, 762.0)",1.1333333333333333,0.592,1,11687.78,2
0,457,target,"[(1123, 786)]",[],[1],[0.5166666666666666],horizontal,"(890.0, 762.0)",0.9166666666666666,0.484,1,11693.393,2
0,458,target,"[(1120, 778)]",[],[1],[0.5666666666666667],vertical,"(390.0, 762.0)",0.8166666666666667,0.519,1,11698.424,2
0,459,target,"[(1116, 776)]",[],[1],[0.55],horizontal,"(890.0, 262.0)",0.8166666666666667,0.501,1,11703.412,2
0,460,target,"[(1091, 767)]",[],[1],[0.5166666666666666],vertical,"(890.0, 262.0)",1.0833333333333333,0.477,1,11708.444,2
0,461,target,"[(1082, 778)]",[],[1],[0.5166666666666666],horizontal,"(890.0, 762.0)",1.0,0.476,1,11713.71,3
0,462,target,"[(1120, 772)]",[],[1],[0.35],vertical,"(890.0, 262.0)",1.4666666666666666,0.308,1,11719.385,3
0,463,target,"[(1107, 767)]",[],[1],[0.4],horizontal,"(390.0, 762.0)",1.3833333333333333,0.361,1,11725.171,3
0,464,target,"[(1103, 799)]",[],[1],[0.06666666666666667],horizontal,"(390.0, 762.0)",1.6333333333333333,0.034,0,11731.177,0
0,465,target,"[(1069, 786)]",[],[1],[0.5666666666666667],vertical,"(890.0, 762.0)",1.1166666666666667,0.523,1,11736.477,1
0,466,target,"[(1093, 799)]",[],[1],[0.4666666666666667],vertical,"(390.0, 262.0)",0.5333333333333333,0.426,1,11762.412,1
0,467,target,"[(1106, 796)]",[],[1],[0.26666666666666666],vertical,"(390.0, 262.0)",1.35,0.23,1,11767.196,1
0,468,target,"[(1097, 790)]",[],[1],[0.5166666666666666],vertical,"(890.0, 262.0)",0.6333333333333333,0.472,1,11772.424,2
0,469,target,"[(1105, 777)]",[],[1],[0.18333333333333332],horizontal,"(890.0, 762.0)",1.35,0.15,0,11777.597,0
0,470,target,"[(1110, 766)]",[],[1],[0.6166666666666667],horizontal,"(390.0, 762.0)",0.6666666666666666,0.574,1,11782.444,1
0,471,target,"[(1077, 787)]",[],[1],[0.55],vertical,"(890.0, 262.0)",1.4333333333333333,0.511,1,11787.166,1
0,472,target,"[(1100, 795)]",[],[1],[0.5333333333333333],horizontal,"(890.0, 762.0)",0.8333333333333334,0.49,1,11792.411,1
0,473,target,"[(1111, 790)]",[],[1],[0.5333333333333333],horizontal,"(890.0, 762.0)",0.7333333333333333,0.493,1,11797.295,2
0,474,catch,"[(1104, 765)]",[],[1],[],vertical,"(890.0, 262.0)",1.6,"('cti', 1.576),nan",0,11802.969,0
0,475,target,"[(1069, 776)]",[],[1],[0.23333333333333334],vertical,"(390.0, 262.0)",1.45,0.198,0,11807.776,0
0,476,target,"[(1079, 768)]",[],[1],[0.55],vertical,"(390.0, 262.0)",1.25,0.508,1,11815.344,1
0,477,target,"[(1110, 767)]",[],[1],[0.5333333333333333],vertical,"(890.0, 762.0)",0.95,0.492,1,11820.17,1
0,478,target,"[(1077, 779)]",[],[1],[0.13333333333333333],horizontal,"(890.0, 262.0)",1.0833333333333333,0.105,0,11824.859,0
0,479,target,"[(1084, 833)]",[],[1],[0.5333333333333333],vertical,"(890.0, 762.0)",0.9666666666666667,0.492,1,11829.179,1
0,480,target,"[(1087, 796)]",[],[1],[0.4666666666666667],vertical,"(390.0, 262.0)",0.7666666666666666,0.422,1,11862.402,1
0,481,target,"[(1112, 790)]",[],[1],[0.36666666666666664],vertical,"(890.0, 762.0)",1.3166666666666667,0.328,1,11867.061,1
0,482,target,"[(1110, 782)]",[],[1],[0.55],horizontal,"(890.0, 262.0)",0.6,0.506,1,11871.85,2
0,483,target,"[(1127, 786)]",[],[1],[0.55],vertical,"(890.0, 762.0)",0.7166666666666667,0.508,1,11876.537,2
0,484,target,"[(1117, 779)]",[],[1],[0.23333333333333334],horizontal,"(390.0, 262.0)",1.4333333333333333,0.199,0,11881.576,0
0,485,target,"[(1097, 765)]",[],[1],[0.5166666666666666],vertical,"(890.0, 762.0)",1.15,0.472,1,11886.496,1
0,486,catch,"[(1107, 768)]",[],[1],[],horizontal,"(890.0, 262.0)",1.6,nan,1,11891.172,1
0,487,target,"[(1094, 772)]",[],[1],[0.65],vertical,"(390.0, 262.0)",0.5166666666666666,0.611,1,11896.314,1
0,488,target,"[(1073, 771)]",[],[1],[0.6666666666666666],horizontal,"(390.0, 762.0)",0.7333333333333333,0.614,1,11900.711,2
0,489,target,"[(1102, 786)]",[],[1],[0.43333333333333335],horizontal,"(890.0, 762.0)",1.25,0.395,1,11905.468,2
0,490,target,"[(1110, 785)]",[],[1],[0.7166666666666667],horizontal,"(890.0, 762.0)",0.6166666666666667,0.673,1,11910.723,2
0,491,target,"[(1091, 770)]",[],[1],[0.48333333333333334],vertical,"(890.0, 262.0)",1.0166666666666666,0.445,1,11916.078,2
0,492,target,"[(1123, 776)]",[],[1],[0.5833333333333334],vertical,"(390.0, 262.0)",0.5333333333333333,0.545,1,11921.545,2
0,493,catch,"[(1124, 783)]",[],[1],[],horizontal,"(890.0, 262.0)",,"('cti', 1.584),nan",0,11926.5,0
0,494,target,"[(1109, 774)]",[],[1],[0.25],vertical,"(390.0, 262.0)",1.5166666666666666,0.215,1,11931.678,1
0,495,target,"[(1105, 772)]",[],[1],[0.5666666666666667],horizontal,"(890.0, 762.0)",0.8833333333333333,0.532,1,11936.978,1
0,496,target,"[(1111, 777)]",[],[1],[0.85],vertical,"(390.0, 262.0)",0.5,nan,0,11941.778,0
0,497,target,"[(1064, 803)]",[],[1],[],vertical,"(390.0, 262.0)",,"('cti', 1.327)",0,11946.478,0
0,498,target,"[(1038, 778)]",[],[1],[0.85],horizontal,"(390.0, 762.0)",0.5833333333333334,nan,0,12838.243,0
0,499,target,"[(1055, 798)]",[],[1],[0.5166666666666666],vertical,"(390.0, 762.0)",1.0333333333333332,0.479,1,12847.583,1
0,500,target,"[(1081, 783)]",[],[1],[0.2833333333333333],horizontal,"(890.0, 762.0)",1.3166666666666667,0.247,1,12853.031,1
0,501,target,"[(1100, 781)]",[],[1],[0.25],horizontal,"(390.0, 762.0)",1.55,0.216,1,12858.106,1
0,502,target,"[(1076, 776)]",[],[1],[],horizontal,"(390.0, 262.0)",,"('cti', 0.774)",0,12863.036,0
0,503,target,"[(1090, 769)]",[],[1],[0.3],vertical,"(390.0, 262.0)",0.8166666666666667,0.265,1,12867.123,1
0,504,target,"[(1118, 778)]",[],[1],[0.2833333333333333],vertical,"(890.0, 262.0)",1.1,0.247,1,12871.734,1
0,505,target,"[(1100, 777)]",[],[1],[0.55],vertical,"(890.0, 762.0)",1.15,0.505,1,12876.859,1
0,506,target,"[(1100, 778)]",[],[1],[0.65],vertical,"(390.0, 762.0)",0.8333333333333334,0.605,1,12882.093,2
0,507,target,"[(1120, 792)]",[],[1],[0.21666666666666667],horizontal,"(390.0, 262.0)",1.35,0.18,0,12887.159,0
0,508,target,"[(1104, 776)]",[],[1],[0.5333333333333333],vertical,"(390.0, 262.0)",0.65,0.492,1,12891.882,1
0,509,target,"[(1100, 766)]",[],[1],[0.5333333333333333],vertical,"(890.0, 262.0)",0.8666666666666667,0.497,1,12896.475,1
0,510,target,"[(1100, 781)]",[],[1],[],vertical,"(390.0, 262.0)",,"('cti', 1.193)",0,12901.015,0
0,511,target,"[(1091, 781)]",[],[1],[0.31666666666666665],vertical,"(890.0, 762.0)",1.1666666666666667,0.276,1,12905.526,1
0,512,target,"[(1105, 776)]",[],[1],[0.5333333333333333],horizontal,"(390.0, 262.0)",0.8166666666666667,0.495,1,12910.565,1
0,513,target,"[(1106, 771)]",[],[1],[0.3],horizontal,"(390.0, 262.0)",1.2166666666666666,0.264,1,12915.562,1
0,514,target,"[(1123, 776)]",[],[1],[0.16666666666666666],vertical,"(890.0, 262.0)",1.35,0.136,0,12920.583,0
0,515,target,"[(1091, 776)]",[],[1],[0.5333333333333333],horizontal,"(390.0, 262.0)",0.85,0.489,1,12925.158,1
0,516,catch,"[(1100, 781)]",[],[1],[],vertical,"(390.0, 262.0)",1.6,nan,1,12930.093,1
0,517,target,"[(1110, 786)]",[],[1],[0.31666666666666665],vertical,"(890.0, 762.0)",1.3833333333333333,0.278,1,12934.966,1
0,518,target,"[(1101, 774)]",[],[1],[0.06666666666666667],vertical,"(890.0, 762.0)",1.6833333333333333,0.035,0,12940.04,0
0,519,target,"[(1076, 762)]",[],[1],[0.55],horizontal,"(890.0, 762.0)",0.5666666666666667,0.506,1,12944.331,1
0,520,target,"[(1084, 762)]",[],[1],[0.45],horizontal,"(390.0, 262.0)",1.3,0.413,1,12948.949,1
0,521,catch,"[(1100, 761)]",[],[1],[],vertical,"(390.0, 762.0)",1.6,nan,1,12953.835,1
0,522,target,"[(1107, 786)]",[],[1],[],vertical,"(890.0, 262.0)",,"('cti', 1.376)",0,12958.862,0
0,523,target,"[(1041, 761)]",[],[1],[0.55],vertical,"(890.0, 762.0)",1.4166666666666667,0.514,1,12963.7,1
0,524,catch,"[(1104, 794)]",[],[1],[],horizontal,"(890.0, 762.0)",1.6,nan,1,12970.117,1
0,525,target,"[(1102, 785)]",[],[1],[0.18333333333333332],vertical,"(890.0, 262.0)",1.5666666666666667,0.148,0,12975.115,0
0,526,target,"[(1099, 771)]",[],[1],[0.6166666666666667],horizontal,"(890.0, 762.0)",1.3333333333333333,0.577,1,12980.003,1
0,527,target,"[(1105, 779)]",[],[1],[0.6666666666666666],vertical,"(390.0, 262.0)",0.6,0.631,1,12985.043,1
0,528,target,"[(1090, 778)]",[],[1],[0.5833333333333334],horizontal,"(890.0, 262.0)",1.15,0.551,1,12989.228,1
0,529,target,"[(1105, 779)]",[],[1],[0.5333333333333333],vertical,"(390.0, 262.0)",1.1166666666666667,0.493,1,12994.066,2
0,530,target,"[(1120, 766)]",[],[1],[0.7],vertical,"(390.0, 762.0)",0.7166666666666667,0.663,1,12999.414,2
0,531,target,"[(1125, 791)]",[],[1],[0.55],vertical,"(390.0, 762.0)",0.9833333333333333,0.514,1,13004.484,2
0,532,target,"[(1125, 770)]",[],[1],[0.4666666666666667],vertical,"(890.0, 262.0)",0.95,0.425,1,13009.551,2
0,533,target,"[(1103, 753), (1084, 778)]",[],"[0, 1]",[0.6333333333333333],vertical,"(390.0, 262.0)",0.7,0.594,1,13015.017,2
0,534,catch,"[(1124, 798)]",[],[1],[],vertical,"(890.0, 262.0)",,"('cti', 1.516),nan",0,13021.9,0
0,535,target,"[(1102, 735), (1060, 749), (1079, 800)]",[],"[0, 0, 1]",[],horizontal,"(890.0, 762.0)",,"('cti', 1.344)",0,13026.436,0
0,536,target,"[(1092, 800)]",[],[1],[0.5833333333333334],horizontal,"(390.0, 762.0)",0.9833333333333333,0.549,1,13033.966,1
0,537,target,"[(1105, 790)]",[],[1],[0.6],horizontal,"(890.0, 762.0)",1.0833333333333333,0.557,1,13038.55,1
0,538,target,"[(1104, 792)]",[],[1],[0.5333333333333333],horizontal,"(890.0, 762.0)",1.0333333333333332,0.501,1,13043.533,1
0,539,target,"[(1110, 778)]",[],[1],[0.6333333333333333],vertical,"(890.0, 262.0)",0.6333333333333333,0.593,1,13048.731,2
0,540,target,"[(1118, 756)]",[],[1],[0.6],vertical,"(390.0, 762.0)",0.6833333333333333,0.563,1,13053.841,2
0,541,target,"[(1112, 784)]",[],[1],[0.4166666666666667],vertical,"(390.0, 762.0)",1.1,0.377,1,13058.768,2
0,542,target,"[(1076, 765)]",[],[1],[0.2],horizontal,"(890.0, 262.0)",1.4833333333333334,0.169,0,13064.286,0
0,543,target,"[(1107, 777)]",[],[1],[0.55],vertical,"(390.0, 762.0)",0.95,0.516,1,13068.913,1
0,544,target,"[(1105, 762)]",[],[1],[0.3833333333333333],horizontal,"(890.0, 262.0)",0.85,0.347,1,13073.858,1
0,545,target,"[(1082, 776)]",[],[1],[0.35],horizontal,"(390.0, 762.0)",0.7333333333333333,0.312,1,13078.743,1
0,546,target,"[(1106, 783)]",[],[1],[0.36666666666666664],vertical,"(890.0, 762.0)",1.2833333333333332,0.329,1,13083.292,2
0,547,target,"[(1057, 801)]",[],[1],[0.6333333333333333],vertical,"(390.0, 262.0)",0.7,0.589,1,13088.685,2
0,548,target,"[(1067, 800)]",[],[1],[0.4],horizontal,"(390.0, 762.0)",1.2,0.359,1,13140.08,2
0,549,target,"[(1086, 785)]",[],[1],[0.5666666666666667],vertical,"(890.0, 762.0)",0.7,0.523,1,13145.335,2
0,550,target,"[(1118, 780)]",[],[1],[0.5666666666666667],horizontal,"(390.0, 262.0)",0.5166666666666666,0.522,1,13150.534,2
0,551,target,"[(1105, 776)]",[],[1],[0.1],vertical,"(890.0, 262.0)",1.45,0.068,0,13155.301,0
0,552,target,"[(1076, 802)]",[],[1],[0.5666666666666667],vertical,"(890.0, 262.0)",0.7833333333333333,0.523,1,13159.988,1
0,553,target,"[(1111, 786)]",[],[1],[0.48333333333333334],horizontal,"(890.0, 262.0)",0.8666666666666667,0.443,1,13225.3,1
0,554,target,"[(1105, 798)]",[],[1],[0.5833333333333334],horizontal,"(390.0, 262.0)",0.7,0.541,1,13230.008,1
0,555,target,"[(1110, 769)]",[],[1],[],horizontal,"(390.0, 762.0)",,"('cti', 1.368)",0,13234.451,0
0,556,target,"[(1061, 810)]",[],[1],[0.6833333333333333],vertical,"(890.0, 262.0)",0.65,0.637,1,13239.202,1
0,557,target,"[(1129, 764)]",[],[1],[0.06666666666666667],vertical,"(890.0, 762.0)",1.4166666666666667,0.036,0,13244.16,0
0,558,catch,"[(1077, 796)]",[],[1],[],horizontal,"(390.0, 262.0)",1.6,nan,1,13248.602,1
0,559,target,"[(1084, 745), (1079, 790)]",[],"[0, 1]",[0.85],vertical,"(390.0, 262.0)",1.65,"('cti', 1.63),nan",0,13254.835,0
0,560,target,"[(1181, 632), (1057, 797)]",[],"[0, 1]",[0.6666666666666666],horizontal,"(390.0, 262.0)",0.9666666666666667,0.625,1,13261.397,1
0,561,target,"[(1109, 781)]",[],[1],[],horizontal,"(890.0, 762.0)",,"('cti', 1.395)",0,15376.028,0
0,562,target,"[(1106, 812)]",[],[1],[0.3833333333333333],horizontal,"(390.0, 262.0)",1.4,0.346,1,15380.776,1
0,563,target,"[(1111, 766)]",[],[1],[0.23333333333333334],vertical,"(390.0, 262.0)",1.1833333333333333,0.201,1,15385.794,1
0,564,catch,"[(1110, 779)]",[],[1],[0.03333333333333333],horizontal,"(890.0, 762.0)",1.6,"0.02,nan",0,15390.849,0
0,565,target,"[(1076, 747), (1099, 776)]",[],"[0, 1]",[0.45],vertical,"(390.0, 762.0)",1.1333333333333333,0.417,1,15395.503,1
0,566,target,"[(1121, 770)]",[],[1],[0.5166666666666666],horizontal,"(890.0, 262.0)",0.75,0.481,1,15403.019,1
0,567,target,"[(1121, 768)]",[],[1],[0.5],vertical,"(890.0, 262.0)",0.95,0.461,1,15407.495,1
0,568,target,"[(1090, 768)]",[],[1],[0.65],vertical,"(890.0, 762.0)",0.95,0.6,1,15412.022,2
0,569,target,"[(1114, 780)]",[],[1],[0.85],vertical,"(390.0, 762.0)",1.55,"('cti', 1.54),nan",0,15417.393,0
0,570,target,"[(1108, 770)]",[],[1],[0.18333333333333332],vertical,"(390.0, 762.0)",1.3833333333333333,0.153,0,15422.787,0
0,571,catch,"[(1052, 762)]",[],[1],[],vertical,"(390.0, 762.0)",,"('cti', 1.54),nan",0,15427.035,0
0,572,target,"[(1108, 761)]",[],[1],[0.55],vertical,"(390.0, 262.0)",0.65,0.509,1,15431.977,1
0,573,target,"[(1110, 771)]",[],[1],[0.85],vertical,"(890.0, 762.0)",0.8666666666666667,nan,0,15436.843,0
0,574,target,"[(1081, 816)]",[],[1],[0.4],vertical,"(890.0, 762.0)",1.1666666666666667,0.362,1,15441.311,1
0,575,catch,"[(1115, 776)]",[],[1],[],horizontal,"(390.0, 262.0)",,"('cti', 1.08),nan",0,15451.308,0
0,576,catch,"[(1118, 773)]",[],[1],[],horizontal,"(890.0, 262.0)",1.6,nan,1,15455.881,1
0,577,target,"[(1109, 772)]",[],[1],[0.55],vertical,"(390.0, 762.0)",1.4166666666666667,0.51,1,15461.011,1
0,578,target,"[(1120, 778)]",[],[1],[0.6166666666666667],vertical,"(390.0, 762.0)",0.5166666666666666,0.572,1,15466.44,1
0,579,target,"[(1120, 787)]",[],[1],[0.06666666666666667],vertical,"(390.0, 262.0)",1.6,0.038,0,15470.985,0
0,580,target,"[(1110, 772)]",[],[1],[0.5166666666666666],vertical,"(890.0, 262.0)",1.3333333333333333,0.476,1,15475.462,1
0,581,target,"[(1110, 762)]",[],[1],[0.2],vertical,"(390.0, 262.0)",1.5666666666666667,0.168,0,15480.244,0
0,582,target,"[(1096, 765)]",[],[1],[0.55],vertical,"(390.0, 762.0)",0.8666666666666667,0.509,1,15484.842,1
0,583,target,"[(1113, 766)]",[],[1],[0.7333333333333333],vertical,"(390.0, 262.0)",1.0833333333333333,0.684,1,15489.691,1
0,584,target,"[(1105, 760)]",[],[1],[0.5833333333333334],horizontal,"(890.0, 262.0)",0.9,0.54,1,15494.46,1
0,585,target,"[(1109, 764)]",[],[1],[0.55],horizontal,"(390.0, 762.0)",0.95,0.511,1,15499.028,2
0,586,target,"[(1109, 766)]",[],[1],[0.55],horizontal,"(890.0, 762.0)",1.05,0.51,1,15504.462,2
0,587,target,"[(1109, 776)]",[],[1],[0.4666666666666667],horizontal,"(890.0, 262.0)",1.1333333333333333,0.425,1,15509.757,2
0,588,target,"[(1106, 771)]",[],[1],[0.5],horizontal,"(390.0, 262.0)",1.1333333333333333,0.46,1,15515.161,2
0,589,target,"[(1105, 778)]",[],[1],[0.85],horizontal,"(390.0, 262.0)",0.6666666666666666,nan,0,15520.179,0
0,590,target,"[(1081, 806)]",[],[1],[0.5333333333333333],vertical,"(890.0, 762.0)",0.6666666666666666,0.5,1,15524.294,1
0,591,target,"[(1107, 772)]",[],[1],[0.3],vertical,"(390.0, 262.0)",1.5666666666666667,0.262,1,15547.894,1
0,592,target,"[(1062, 795)]",[],[1],[0.5666666666666667],vertical,"(390.0, 762.0)",0.8666666666666667,0.527,1,15552.916,1
0,593,target,"[(1075, 775)]",[],[1],[0.23333333333333334],horizontal,"(390.0, 262.0)",1.0,0.198,0,15558.478,0
0,594,target,"[(1107, 780)]",[],[1],[0.48333333333333334],vertical,"(890.0, 262.0)",1.45,0.445,1,15562.994,1
0,595,catch,"[(1115, 763)]",[],[1],[0.03333333333333333],vertical,"(390.0, 262.0)",1.6,"0.018,nan",0,15568.362,0
0,596,target,"[(1085, 745), (1100, 785)]",[],"[0, 1]",[0.85],horizontal,"(890.0, 262.0)",0.6666666666666666,nan,0,15572.778,0
0,597,target,"[(1062, 772)]",[],[1],[0.5166666666666666],horizontal,"(890.0, 762.0)",1.2333333333333334,0.477,1,15578.563,1
0,598,catch,"[(1078, 781)]",[],[1],[],vertical,"(390.0, 262.0)",1.6,nan,1,15611.97,1
0,599,catch,"[(1095, 792)]",[],[1],[],horizontal,"(890.0, 262.0)",,"('cti', 1.533),nan",0,15616.829,0
0,600,target,"[(1102, 787)]",[],[1],[0.55],vertical,"(390.0, 262.0)",0.6333333333333333,0.515,1,15621.71,1
0,601,target,"[(1085, 787)]",[],[1],[0.4166666666666667],vertical,"(390.0, 762.0)",1.2666666666666666,0.377,1,15625.846,1
0,602,catch,"[(1057, 801)]",[],[1],[],horizontal,"(890.0, 262.0)",1.6,nan,1,15631.094,1
0,603,target,"[(1065, 786)]",[],[1],[],vertical,"(390.0, 262.0)",,"('cti', 1.535)",0,15645.612,0
0,604,catch,"[(1091, 778)]",[],[1],[],vertical,"(890.0, 762.0)",1.6,nan,1,15650.529,1
0,605,catch,"[(1070, 766)]",[],[1],[],vertical,"(890.0, 262.0)",,"('cti', 1.474),nan",0,15655.579,0
0,606,target,"[(1077, 786)]",[],[1],[0.5],vertical,"(390.0, 262.0)",1.0666666666666667,0.455,1,15660.685,1
0,607,target,"[(1110, 782)]",[],[1],[0.5166666666666666],horizontal,"(890.0, 262.0)",1.05,0.483,1,15665.974,1
0,608,target,"[(1106, 798)]",[],[1],[0.3],vertical,"(390.0, 762.0)",1.3833333333333333,0.266,1,15670.795,1
0,609,target,"[(1151, 781)]",[],[1],[],horizontal,"(390.0, 762.0)",,"('cti', 1.058)",0,15675.679,0
0,610,target,"[(1077, 802)]",[],[1],[0.85],vertical,"(890.0, 762.0)",0.9,nan,0,15679.845,0
0,611,target,"[(1048, 758)]",[],[1],[0.25],horizontal,"(390.0, 262.0)",1.6,0.22,1,15684.699,1
0,612,target,"[(1121, 777)]",[],[1],[0.5166666666666666],vertical,"(890.0, 762.0)",0.85,0.475,1,15692.262,1
0,613,target,"[(1123, 779)]",[],[1],[],horizontal,"(890.0, 262.0)",,"('cti', 1.41)",0,15696.93,0
0,614,catch,"[(1111, 750), (1074, 771)]",[],"[0, 1]",[],vertical,"(890.0, 762.0)",1.6,nan,1,15701.754,1
0,615,target,"[(1106, 776)]",[],[1],[0.5],vertical,"(890.0, 262.0)",0.7666666666666666,0.454,1,15708.512,1
0,616,target,"[(1120, 780)]",[],[1],[0.48333333333333334],vertical,"(390.0, 262.0)",1.2,0.438,1,15713.179,1
0,617,target,"[(1107, 766)]",[],[1],[0.5833333333333334],vertical,"(890.0, 762.0)",1.0666666666666667,0.543,1,15718.007,2
0,618,target,"[(1110, 770)]",[],[1],[0.6166666666666667],vertical,"(390.0, 262.0)",0.8,0.579,1,15723.513,2
0,619,target,"[(1127, 778)]",[],[1],[0.5],horizontal,"(890.0, 262.0)",0.7666666666666666,0.458,1,15728.8,2
0,620,catch,"[(1124, 777)]",[],[1],[],horizontal,"(390.0, 762.0)",,"('cti', 1.402),nan",0,15733.829,0
0,621,catch,"[(1099, 771)]",[],[1],[],vertical,"(890.0, 262.0)",1.6,nan,1,15738.348,1
0,622,target,"[(1127, 777)]",[],[1],[0.85],vertical,"(390.0, 262.0)",0.9666666666666667,nan,0,15743.152,0
0,623,target,"[(1072, 776)]",[],[1],[0.5166666666666666],vertical,"(890.0, 762.0)",0.95,0.475,1,15748.162,1
0,624,target,"[(1107, 770)]",[],[1],[],vertical,"(890.0, 762.0)",,"('cti', 1.498)",0,15754.581,0
0,625,target,"[(1071, 811)]",[],[1],[0.5833333333333334],horizontal,"(890.0, 762.0)",1.4166666666666667,0.535,1,15759.373,1
0,626,target,"[(1058, 802)]",[],[1],[0.85],vertical,"(390.0, 762.0)",0.8166666666666667,nan,0,15859.967,0
0,627,target,"[(1217, 550), (1062, 777)]",[],"[0, 1]",[0.85],horizontal,"(390.0, 762.0)",1.3166666666666667,nan,0,15864.48,0
0,628,target,"[(1067, 815)]",[],[1],[0.5],horizontal,"(890.0, 262.0)",1.1,0.468,1,18223.323,1
0,629,target,"[(1078, 794)]",[],[1],[0.5],vertical,"(390.0, 262.0)",1.05,0.464,1,18241.981,1
0,630,target,"[(1081, 792)]",[],[1],[0.05],horizontal,"(390.0, 262.0)",1.55,0.018,0,18246.913,0
0,631,target,"[(1105, 789)]",[],[1],[0.5833333333333334],vertical,"(890.0, 262.0)",0.7333333333333333,0.542,1,18251.656,1
0,632,catch,"[(1113, 775)]",[],[1],[],horizontal,"(890.0, 762.0)",1.6,nan,1,18256.274,1
0,633,target,"[(1112, 819)]",[],[1],[0.3333333333333333],vertical,"(390.0, 762.0)",1.3166666666666667,0.296,1,18261.016,1
0,634,target,"[(1128, 785)]",[],[1],[0.6],horizontal,"(390.0, 262.0)",0.7666666666666666,0.558,1,18265.951,2
0,635,target,"[(1111, 790)]",[],[1],[0.6166666666666667],vertical,"(390.0, 762.0)",0.9833333333333333,0.572,1,18271.272,2
0,636,target,"[(1106, 801)]",[],[1],[0.55],vertical,"(890.0, 262.0)",0.5,0.51,1,18276.649,2
0,637,target,"[(1116, 801)]",[],[1],[0.4666666666666667],horizontal,"(390.0, 262.0)",1.0166666666666666,0.424,1,18281.127,2
0,638,target,"[(1128, 777)]",[],[1],[0.6],vertical,"(890.0, 762.0)",0.55,0.556,1,18285.924,2
0,639,target,"[(1081, 786)]",[],[1],[0.25],horizontal,"(390.0, 262.0)",1.3833333333333333,0.214,1,18290.956,3
0,640,catch,"[(1087, 778)]",[],[1],[],vertical,"(890.0, 762.0)",,"('cti', 1.526),nan",0,18296.748,0
0,641,catch,"[(1076, 787)]",[],[1],[],horizontal,"(890.0, 762.0)",,"('cti', 1.491),nan",0,18301.395,0
0,642,target,"[(1077, 765)]",[],[1],[0.1],horizontal,"(890.0, 762.0)",1.6666666666666667,0.069,0,18305.891,0
0,643,target,"[(1108, 779)]",[],[1],[0.5833333333333334],horizontal,"(390.0, 762.0)",0.7666666666666666,0.54,1,18312.101,1
0,644,target,"[(1113, 792)]",[],[1],[0.6166666666666667],vertical,"(890.0, 762.0)",0.6,0.567,1,18317.047,1
0,645,target,"[(1105, 782)]",[],[1],[0.85],vertical,"(890.0, 762.0)",0.6666666666666666,nan,0,18321.424,0
0,646,target,"[(1062, 781)]",[],[1],[0.5],vertical,"(390.0, 262.0)",0.9,0.456,1,18325.64,1
0,647,target,"[(1067, 778)]",[],[1],[0.85],horizontal,"(890.0, 762.0)",0.5666666666666667,nan,0,18330.684,0
0,648,catch,"[(1077, 780)]",[],[1],[],vertical,"(890.0, 762.0)",,"('cti', 1.563),nan",0,18334.858,0
0,649,target,"[(1066, 785)]",[],[1],[0.55],vertical,"(390.0, 762.0)",1.1666666666666667,0.506,1,18342.273,1
0,650,target,"[(1102, 766)]",[],[1],[0.5166666666666666],horizontal,"(890.0, 262.0)",1.2,0.474,1,18348.183,1
0,651,target,"[(1124, 791)]",[],[1],[0.85],vertical,"(390.0, 762.0)",0.6666666666666666,nan,0,18353.325,0
0,652,target,"[(1085, 785)]",[],[1],[0.5666666666666667],vertical,"(890.0, 262.0)",0.7,0.524,1,18358.224,1
0,653,target,"[(1109, 779)]",[],[1],[],vertical,"(890.0, 262.0)",,"('cti', 1.18)",0,18362.817,0
0,654,catch,"[(1062, 802)]",[],[1],[],horizontal,"(890.0, 262.0)",1.6,nan,1,18366.992,1
0,655,catch,"[(1114, 801)]",[],[1],[],vertical,"(390.0, 262.0)",1.6,nan,1,18373.235,1
0,656,target,"[(1112, 776)]",[],[1],[0.65],horizontal,"(390.0, 762.0)",0.6333333333333333,0.602,1,18378.279,1
0,657,target,"[(1093, 785)]",[],[1],[0.5166666666666666],horizontal,"(890.0, 262.0)",0.5833333333333334,0.479,1,18383.272,2
0,658,target,"[(1109, 803)]",[],[1],[0.06666666666666667],horizontal,"(890.0, 262.0)",1.0333333333333332,0.035,0,18387.768,0
0,659,target,"[(1086, 767)]",[],[1],[0.21666666666666667],horizontal,"(390.0, 762.0)",1.15,0.182,0,18392.241,0
0,660,catch,"[(1084, 805)]",[],[1],[],vertical,"(890.0, 762.0)",,"('cti', 1.569),nan",0,18397.058,0
0,661,target,"[(1082, 794)]",[],[1],[0.6166666666666667],horizontal,"(390.0, 762.0)",0.8166666666666667,0.575,1,18401.385,1
0,662,target,"[(1077, 775)]",[],[1],[0.65],horizontal,"(390.0, 762.0)",0.6833333333333333,0.607,1,18406.307,1
0,663,target,"[(1107, 778)]",[],[1],[0.6333333333333333],horizontal,"(390.0, 262.0)",0.5833333333333334,0.59,1,18410.403,1
0,664,target,"[(1106, 776)]",[],[1],[0.5],vertical,"(390.0, 262.0)",1.15,0.464,1,18414.819,2
0,665,catch,"[(1102, 760)]",[],[1],[],horizontal,"(390.0, 762.0)",,"('cti', 1.467),nan",0,18420.289,0
0,666,target,"[(1116, 786)]",[],[1],[0.23333333333333334],horizontal,"(890.0, 262.0)",1.6333333333333333,0.201,1,18425.103,1
0,667,target,"[(1096, 781)]",[],[1],[],horizontal,"(890.0, 762.0)",,"('cti', 1.637)",0,18430.159,0
0,668,target,"[(1078, 791)]",[],[1],[0.5166666666666666],horizontal,"(890.0, 262.0)",0.9166666666666666,0.477,1,18434.742,1
0,669,target,"[(1110, 801)]",[],[1],[0.4666666666666667],vertical,"(890.0, 262.0)",1.0333333333333332,0.435,1,18439.499,1
0,670,target,"[(1100, 787)]",[],[1],[0.6],horizontal,"(890.0, 762.0)",0.6166666666666667,0.557,1,18444.343,1
0,671,catch,"[(1102, 801)]",[],[1],[],vertical,"(390.0, 262.0)",1.6,nan,1,18449.241,2
0,672,target,"[(1110, 771)]",[],[1],[0.5666666666666667],horizontal,"(890.0, 262.0)",0.5166666666666666,0.531,1,18454.526,2
0,673,target,"[(1102, 786)]",[],[1],[0.6166666666666667],vertical,"(890.0, 262.0)",0.5,0.572,1,18459.408,2
0,674,target,"[(1101, 779)]",[],[1],[0.4666666666666667],horizontal,"(390.0, 762.0)",1.1,0.427,1,18464.424,2
0,675,target,"[(1112, 787)]",[],[1],[0.43333333333333335],vertical,"(890.0, 262.0)",0.65,0.394,1,18469.725,2
0,676,target,"[(1098, 796)]",[],[1],[0.6333333333333333],vertical,"(890.0, 262.0)",0.55,0.587,1,18474.385,3
0,677,target,"[(1076, 780)]",[],[1],[0.5333333333333333],horizontal,"(890.0, 262.0)",0.7166666666666667,0.495,1,18479.476,3
0,678,target,"[(1103, 782)]",[],[1],[0.3833333333333333],horizontal,"(890.0, 262.0)",1.0166666666666666,0.347,1,18484.392,3
0,679,target,"[(1105, 796)]",[],[1],[0.4666666666666667],horizontal,"(890.0, 262.0)",1.3166666666666667,0.428,1,18490.024,3
0,680,target,"[(1106, 786)]",[],[1],[0.2],horizontal,"(890.0, 762.0)",1.5666666666666667,0.165,0,18495.927,0
0,681,catch,"[(1076, 801)]",[],[1],[],horizontal,"(890.0, 762.0)",1.6,nan,1,18500.442,1
0,682,target,"[(1105, 782)]",[],[1],[0.2],horizontal,"(890.0, 262.0)",1.4333333333333333,0.168,0,18505.375,0
0,683,catch,"[(1077, 783)]",[],[1],[],horizontal,"(390.0, 262.0)",1.6,nan,1,18510.009,1
0,684,catch,"[(1108, 787)]",[],[1],[0.03333333333333333],horizontal,"(390.0, 762.0)",1.6,"0.02,nan",0,18514.956,0
0,685,catch,"[(1075, 776)]",[],[1],[0.03333333333333333],vertical,"(890.0, 762.0)",1.6,"0.02,nan",0,18519.765,0
0,686,target,"[(1077, 803)]",[],[1],[0.3833333333333333],vertical,"(390.0, 262.0)",1.2833333333333332,0.352,1,18524.785,1
0,687,target,"[(1119, 776)]",[],[1],[0.85],horizontal,"(890.0, 262.0)",0.5,nan,0,18529.879,0
0,688,target,"[(1076, 776)]",[],[1],[0.5666666666666667],horizontal,"(890.0, 262.0)",0.5666666666666667,0.521,1,18534.037,1
0,689,target,"[(1113, 766)]",[],[1],[0.36666666666666664],horizontal,"(390.0, 262.0)",1.5,0.327,1,18538.547,1
0,690,target,"[(1110, 782)]",[],[1],[0.5833333333333334],horizontal,"(390.0, 262.0)",0.8833333333333333,0.541,1,18543.741,1
0,691,target,"[(1107, 781)]",[],[1],[0.3],vertical,"(390.0, 762.0)",1.65,0.263,1,18548.408,2
0,692,target,"[(1110, 792)]",[],[1],[0.5833333333333334],horizontal,"(890.0, 762.0)",0.9,0.543,1,18553.855,2
0,693,target,"[(1109, 787)]",[],[1],[0.6166666666666667],horizontal,"(390.0, 762.0)",1.05,0.577,1,18559.425,2
0,694,target,"[(1096, 778)]",[],[1],[0.45],horizontal,"(890.0, 262.0)",1.5333333333333332,0.407,1,18564.442,2
0,695,target,"[(1082, 792)]",[],[1],[0.48333333333333334],horizontal,"(390.0, 762.0)",1.25,0.447,1,18570.109,2
0,696,target,"[(1095, 796)]",[],[1],[0.6666666666666666],vertical,"(890.0, 762.0)",1.0166666666666666,0.617,1,18575.533,3
0,697,target,"[(1112, 777)]",[],[1],[],horizontal,"(390.0, 262.0)",,"('cti', 1.607)",0,18581.404,0
0,698,target,"[(1100, 786)]",[],[1],[0.65],horizontal,"(390.0, 762.0)",0.8333333333333334,0.615,1,18586.242,1
0,699,target,"[(1102, 766)]",[],[1],[0.43333333333333335],horizontal,"(890.0, 762.0)",1.3666666666666667,0.395,1,18590.851,1
0,700,catch,"[(1085, 775)]",[],[1],[],horizontal,"(890.0, 262.0)",1.6,nan,1,18595.758,1
0,701,target,"[(1126, 796)]",[],[1],[0.4166666666666667],horizontal,"(890.0, 762.0)",1.25,0.376,1,18600.916,2
0,702,target,"[(1121, 773)]",[],[1],[0.5666666666666667],horizontal,"(890.0, 762.0)",0.9666666666666667,0.529,1,18606.517,2
0,703,target,"[(1102, 798)]",[],[1],[0.05],horizontal,"(890.0, 262.0)",1.25,0.018,0,18611.708,0
0,704,target,"[(1091, 778)]",[],[1],[0.08333333333333333],horizontal,"(390.0, 762.0)",1.0333333333333332,0.054,0,18616.287,0
0,705,target,"[(1110, 784)]",[],[1],[0.3833333333333333],vertical,"(390.0, 262.0)",1.2666666666666666,0.345,1,18620.743,1
0,706,target,"[(1101, 772)]",[],[1],[0.6],horizontal,"(890.0, 262.0)",0.9833333333333333,0.56,1,18625.792,1
0,707,target,"[(1107, 764)]",[],[1],[0.5666666666666667],horizontal,"(890.0, 262.0)",0.9666666666666667,0.52,1,18630.514,1
0,708,target,"[(1103, 761)]",[],[1],[0.5333333333333333],vertical,"(890.0, 262.0)",0.9833333333333333,0.494,1,18635.321,2
0,709,catch,"[(1101, 773)]",[],[1],[],horizontal,"(390.0, 262.0)",1.6,nan,1,18640.325,2
0,710,target,"[(1120, 805)]",[],[1],[0.5],vertical,"(890.0, 262.0)",0.95,0.459,1,18645.943,2
0,711,target,"[(1126, 780)]",[],[1],[0.08333333333333333],horizontal,"(890.0, 262.0)",1.6,0.052,0,18651.242,0
0,712,target,"[(1096, 778)]",[],[1],[0.4666666666666667],horizontal,"(390.0, 762.0)",1.1,0.427,1,18656.143,1
0,713,target,"[(1107, 767)]",[],[1],[],horizontal,"(890.0, 762.0)",,"('cti', 1.21)",0,18661.436,0
0,714,target,"[(1067, 777)]",[],[1],[0.5],horizontal,"(890.0, 262.0)",0.5166666666666666,0.466,1,18665.739,1
0,715,catch,"[(1100, 771)]",[],[1],[],vertical,"(890.0, 262.0)",1.6,nan,1,18670.201,1
0,716,target,"[(1113, 786)]",[],[1],[0.6666666666666666],horizontal,"(390.0, 762.0)",1.1333333333333333,0.625,1,18675.192,1
0,717,target,"[(1108, 788)]",[],[1],[0.55],vertical,"(390.0, 262.0)",0.9833333333333333,0.507,1,18680.743,2
0,718,target,"[(1096, 762)]",[],[1],[0.5],vertical,"(890.0, 262.0)",1.2,0.468,1,18685.993,2
0,719,target,"[(1100, 773)]",[],[1],[0.2],horizontal,"(390.0, 262.0)",1.4166666666666667,0.166,0,18691.378,0
0,720,target,"[(1067, 766)]",[],[1],[0.5666666666666667],vertical,"(890.0, 762.0)",0.7166666666666667,0.525,1,18696.213,1
0,721,target,"[(1078, 769)]",[],[1],[0.6333333333333333],horizontal,"(390.0, 262.0)",0.5333333333333333,0.59,1,18700.755,1
0,722,target,"[(1120, 764)]",[],[1],[0.6333333333333333],vertical,"(890.0, 762.0)",0.85,0.593,1,18705.259,1
0,723,catch,"[(1091, 786)]",[],[1],[],vertical,"(890.0, 762.0)",1.6,nan,1,18709.913,2
0,724,target,"[(1105, 796)]",[],[1],[0.85],vertical,"(390.0, 762.0)",0.95,nan,0,18715.309,0
0,725,target,"[(1054, 782)]",[],[1],[0.26666666666666666],vertical,"(890.0, 762.0)",1.5166666666666666,0.23,1,18721.225,1
0,726,target,"[(1105, 781)]",[],[1],[0.48333333333333334],vertical,"(890.0, 262.0)",0.7666666666666666,0.442,1,18726.594,1
0,727,target,"[(1095, 787)]",[],[1],[0.11666666666666667],vertical,"(390.0, 762.0)",1.6333333333333333,0.084,0,18731.426,0
0,728,target,"[(1067, 774)]",[],[1],[],vertical,"(890.0, 262.0)",,"('cti', 1.132)",0,18736.343,0
0,729,target,"[(1007, 805)]",[],[1],[0.45],vertical,"(890.0, 762.0)",1.0166666666666666,0.413,1,18740.913,1
0,730,target,"[(1100, 795)]",[],[1],[0.5833333333333334],vertical,"(390.0, 262.0)",1.1333333333333333,0.541,1,18751.569,1
0,731,target,"[(1104, 785)]",[],[1],[0.3333333333333333],vertical,"(890.0, 762.0)",1.2666666666666666,0.297,1,18756.678,1
0,732,target,"[(1120, 786)]",[],[1],[0.5833333333333334],vertical,"(890.0, 262.0)",0.9,0.541,1,18761.76,2
0,733,target,"[(1108, 792)]",[],[1],[0.5166666666666666],horizontal,"(390.0, 262.0)",1.1666666666666667,0.473,1,18766.993,2
0,734,target,"[(1111, 785)]",[],[1],[0.4666666666666667],vertical,"(890.0, 262.0)",0.6833333333333333,0.425,1,18772.732,2
0,735,target,"[(1120, 781)]",[],[1],[],horizontal,"(390.0, 762.0)",,"('cti', 1.122)",0,18777.944,0
0,736,target,"[(1086, 801)]",[],[1],[0.85],horizontal,"(890.0, 262.0)",0.7166666666666667,nan,0,18782.16,0
0,737,target,"[(1077, 790)]",[],[1],[],vertical,"(890.0, 762.0)",,"('cti', 1.16)",0,18786.96,0
0,738,target,"[(1062, 781)]",[],[1],[0.55],vertical,"(890.0, 762.0)",0.95,0.505,1,18791.394,1
0,739,target,"[(1107, 780)]",[],[1],[0.3833333333333333],horizontal,"(390.0, 262.0)",1.4666666666666666,0.343,1,18795.959,1
0,740,target,"[(1105, 768)]",[],[1],[0.6],horizontal,"(390.0, 262.0)",0.9,0.558,1,18801.159,1
0,741,target,"[(1081, 782)]",[],[1],[0.6166666666666667],horizontal,"(890.0, 762.0)",0.7,0.574,1,18805.592,2
0,742,target,"[(1115, 764)]",[],[1],[0.4166666666666667],horizontal,"(890.0, 762.0)",1.4,0.376,1,18810.863,2
0,743,target,"[(1129, 786)]",[],[1],[],horizontal,"(890.0, 762.0)",,"('cti', 1.5)",0,18816.554,0
0,744,catch,"[(1091, 800)]",[],[1],[],horizontal,"(890.0, 762.0)",,"('cti', 1.229),nan",0,18821.061,0
0,745,target,"[(1074, 776)]",[],[1],[0.4666666666666667],horizontal,"(890.0, 762.0)",1.1833333333333333,0.426,1,18825.798,1
0,746,target,"[(1087, 771)]",[],[1],[0.85],vertical,"(390.0, 762.0)",0.7,nan,0,18830.376,0
0,747,catch,"[(1081, 791)]",[],[1],[],vertical,"(890.0, 262.0)",1.6,nan,1,18834.702,1
0,748,catch,"[(1078, 766)]",[],[1],[],horizontal,"(390.0, 262.0)",,"('cti', 1.563),nan",0,18839.823,0
0,749,target,"[(1070, 785)]",[],[1],[0.5333333333333333],horizontal,"(390.0, 762.0)",1.2,0.49,1,18844.588,1
0,750,target,"[(1110, 805)]",[],[1],[0.5166666666666666],horizontal,"(890.0, 262.0)",1.0833333333333333,0.479,1,18867.898,1
0,751,target,"[(1075, 763)]",[],[1],[0.4],vertical,"(890.0, 262.0)",1.2666666666666666,0.361,1,18872.736,1
0,752,target,"[(1103, 787)]",[],[1],[0.45],vertical,"(890.0, 762.0)",1.0666666666666667,0.408,1,18877.434,2
0,753,target,"[(1100, 778)]",[],[1],[0.5666666666666667],vertical,"(890.0, 262.0)",0.6333333333333333,0.524,1,18883.058,2
0,754,target,"[(1106, 770)]",[],[1],[0.6],horizontal,"(390.0, 762.0)",0.5333333333333333,0.56,1,18887.993,2
0,755,target,"[(1086, 777)]",[],[1],[0.5],horizontal,"(390.0, 262.0)",0.9166666666666666,0.456,1,18893.01,2
0,756,target,"[(1105, 786)]",[],[1],[0.5166666666666666],horizontal,"(390.0, 762.0)",0.7833333333333333,0.475,1,18897.894,2
0,757,target,"[(1100, 785)]",[],[1],[0.43333333333333335],horizontal,"(890.0, 262.0)",1.2166666666666666,0.391,1,18902.86,3
0,758,catch,"[(1092, 791)]",[],[1],[],horizontal,"(890.0, 262.0)",,"('cti', 1.469),nan",0,18908.921,0
0,759,target,"[(1072, 759)]",[],[1],[0.6],horizontal,"(390.0, 262.0)",0.6833333333333333,0.559,1,18913.76,1
0,760,catch,"[(1100, 776)]",[],[1],[],horizontal,"(390.0, 762.0)",1.6,nan,1,18918.201,1
0,761,target,"[(1090, 776)]",[],[1],[0.18333333333333332],vertical,"(890.0, 262.0)",1.55,0.15,0,18923.175,0
0,762,target,"[(1105, 756)]",[],[1],[0.48333333333333334],vertical,"(890.0, 762.0)",1.0833333333333333,0.442,1,18927.877,1
0,763,target,"[(1110, 765)]",[],[1],[0.55],vertical,"(890.0, 762.0)",0.5333333333333333,0.511,1,18934.195,1
0,764,target,"[(1080, 772)]",[],[1],[0.5333333333333333],horizontal,"(390.0, 262.0)",0.8333333333333334,0.493,1,18938.61,1
0,765,target,"[(1086, 778)]",[],[1],[0.36666666666666664],horizontal,"(390.0, 762.0)",1.6,0.328,1,18943.445,2
0,766,target,"[(1076, 792)]",[],[1],[0.5166666666666666],horizontal,"(890.0, 762.0)",1.1,0.473,1,18949.145,2
0,767,target,"[(1090, 772)]",[],[1],[0.55],horizontal,"(890.0, 762.0)",1.4166666666666667,0.511,1,18954.734,2
0,768,catch,"[(1102, 769)]",[],[1],[],horizontal,"(890.0, 762.0)",,"('cti', 1.516),nan",0,18960.356,0
0,769,target,"[(1076, 776)]",[],[1],[0.5666666666666667],vertical,"(890.0, 762.0)",0.6333333333333333,0.531,1,18965.019,1
0,770,target,"[(1110, 758)]",[],[1],[],horizontal,"(890.0, 262.0)",,"('cti', 1.116)",0,18969.194,0
0,771,target,"[(1105, 766)]",[],[1],[0.5166666666666666],vertical,"(890.0, 762.0)",1.2333333333333334,0.477,1,18973.307,1
0,772,target,"[(1085, 767)]",[],[1],[0.48333333333333334],vertical,"(890.0, 762.0)",1.35,0.444,1,18978.1,1
0,773,target,"[(1105, 786)]",[],[1],[0.48333333333333334],horizontal,"(390.0, 262.0)",1.1,0.443,1,18983.024,1
0,774,catch,"[(1095, 773)]",[],[1],[],vertical,"(890.0, 762.0)",1.6,nan,1,18987.86,2
0,775,target,"[(1100, 785)]",[],[1],[0.31666666666666665],horizontal,"(390.0, 262.0)",1.2833333333333332,0.278,1,18993.322,2
0,776,catch,"[(1111, 766)]",[],[1],[],horizontal,"(390.0, 762.0)",1.6,nan,1,18998.743,2
0,777,target,"[(1122, 786)]",[],[1],[0.5833333333333334],horizontal,"(890.0, 762.0)",0.6666666666666666,0.547,1,19003.716,2
0,778,target,"[(1117, 801)]",[],[1],[0.65],vertical,"(390.0, 262.0)",0.5166666666666666,0.605,1,19008.404,2
0,779,target,"[(1082, 780)]",[],[1],[0.18333333333333332],horizontal,"(890.0, 762.0)",1.3833333333333333,0.154,0,19013.586,0
0,780,target,"[(1062, 779)]",[],[1],[0.6666666666666666],horizontal,"(890.0, 762.0)",0.7166666666666667,0.627,1,19018.276,1
0,781,catch,"[(1091, 776)]",[],[1],[],vertical,"(890.0, 262.0)",,"('cti', 1.558),nan",0,19023.409,0
0,782,target,"[(1067, 782)]",[],[1],[0.6166666666666667],horizontal,"(890.0, 262.0)",1.0666666666666667,0.571,1,19028.168,1
0,783,target,"[(1106, 761)]",[],[1],[0.25],vertical,"(390.0, 262.0)",1.5,0.216,1,19033.159,1
0,784,target,"[(1115, 763)]",[],[1],[0.31666666666666665],horizontal,"(890.0, 262.0)",1.4333333333333333,0.285,1,19038.074,1
0,785,target,"[(1106, 779)]",[],[1],[0.21666666666666667],vertical,"(390.0, 762.0)",1.5833333333333333,0.182,0,19042.993,0
0,786,target,"[(1063, 758)]",[],[1],[],vertical,"(890.0, 762.0)",,"('cti', 1.12)",0,19048.047,0
0,787,target,"[(1067, 773)]",[],[1],[0.5666666666666667],vertical,"(390.0, 262.0)",0.8666666666666667,0.531,1,19052.726,1
0,788,catch,"[(1110, 774)]",[],[1],[],vertical,"(390.0, 262.0)",1.6,"('cti', 1.591),nan",0,19057.706,0
0,789,catch,"[(1092, 761)]",[],[1],[],vertical,"(890.0, 762.0)",,"('cti', 1.563),nan",0,19062.027,0
0,790,target,"[(1089, 782)]",[],[1],[0.11666666666666667],horizontal,"(890.0, 762.0)",1.6,0.086,0,19066.671,0
0,791,target,"[(1074, 799)]",[],[1],[0.6333333333333333],horizontal,"(390.0, 262.0)",0.5166666666666666,0.6,1,19071.661,1
0,792,catch,"[(1098, 784)]",[],[1],[],vertical,"(890.0, 262.0)",1.6,nan,1,19083.631,1
0,793,target,"[(1120, 789)]",[],[1],[0.5833333333333334],horizontal,"(390.0, 762.0)",1.1,0.544,1,19088.578,1
0,794,target,"[(1108, 776)]",[],[1],[0.4166666666666667],horizontal,"(390.0, 262.0)",1.3166666666666667,0.376,1,19093.276,2
0,795,catch,"[(1087, 767)]",[],[1],[],horizontal,"(390.0, 762.0)",1.6,nan,1,19098.728,2
0,796,target,"[(1119, 790)]",[],[1],[0.55],horizontal,"(890.0, 762.0)",1.0666666666666667,0.504,1,19104.227,2
0,797,target,"[(1105, 794)]",[],[1],[0.55],horizontal,"(390.0, 762.0)",0.9666666666666667,0.513,1,19109.496,2
0,798,target,"[(1120, 782)]",[],[1],[0.8],vertical,"(390.0, 762.0)",0.5833333333333334,0.756,1,19114.719,2
0,799,target,"[(1108, 773)]",[],[1],[0.18333333333333332],vertical,"(390.0, 762.0)",1.55,0.151,0,19119.795,0
0,800,target,"[(1072, 779)]",[],[1],[0.5833333333333334],vertical,"(890.0, 262.0)",1.5,0.543,1,19124.576,1
0,801,target,"[(1110, 776)]",[],[1],[0.23333333333333334],vertical,"(890.0, 262.0)",1.6833333333333333,0.198,0,19129.618,0
0,802,target,"[(1074, 800)]",[],[1],[0.5],vertical,"(890.0, 762.0)",1.1833333333333333,0.461,1,19134.527,1
0,803,target,"[(1097, 783)]",[],[1],[0.45],vertical,"(890.0, 262.0)",1.1166666666666667,0.417,1,19144.695,1
0,804,target,"[(1114, 776)]",[],[1],[0.5833333333333334],vertical,"(890.0, 262.0)",1.0,0.544,1,19149.649,1
0,805,target,"[(1090, 771)]",[],[1],[0.25],vertical,"(890.0, 762.0)",1.5166666666666666,0.216,1,19154.853,2
0,806,target,"[(1133, 790)]",[],[1],[0.5666666666666667],vertical,"(390.0, 262.0)",0.9166666666666666,0.526,1,19160.528,2
0,807,target,"[(1106, 771)]",[],[1],[0.36666666666666664],vertical,"(390.0, 762.0)",1.5666666666666667,0.328,1,19165.411,2
0,808,target,"[(1124, 792)]",[],[1],[0.6666666666666666],vertical,"(390.0, 262.0)",0.5166666666666666,0.619,1,19170.675,2
0,809,catch,"[(1114, 786)]",[],[1],[],horizontal,"(890.0, 762.0)",1.6,nan,1,19175.394,2
0,810,target,"[(1093, 789)]",[],[1],[0.6333333333333333],vertical,"(890.0, 262.0)",0.8833333333333333,0.595,1,19180.929,3
0,811,target,"[(1124, 781)]",[],[1],[0.5333333333333333],horizontal,"(390.0, 262.0)",0.5833333333333334,0.493,1,19186.761,3
0,812,target,"[(1104, 790)]",[],[1],[0.6166666666666667],vertical,"(890.0, 762.0)",0.5166666666666666,0.586,1,19191.797,3
0,813,catch,"[(1102, 770)]",[],[1],[],horizontal,"(890.0, 762.0)",,"('cti', 1.562),nan",0,19197.462,0
0,814,target,"[(1078, 803)]",[],[1],[0.5166666666666666],horizontal,"(890.0, 762.0)",0.9833333333333333,0.485,1,19201.889,1
0,815,target,"[(1083, 784)]",[],[1],[0.6166666666666667],horizontal,"(890.0, 762.0)",1.1,0.581,1,19207.052,1
0,816,target,"[(1108, 778)]",[],[1],[0.6666666666666666],vertical,"(890.0, 762.0)",0.8666666666666667,0.623,1,19212.506,1
0,817,target,"[(1103, 782)]",[],[1],[0.48333333333333334],horizontal,"(390.0, 262.0)",1.3833333333333333,0.443,1,19217.364,2
0,818,target,"[(1120, 799)]",[],[1],[0.1],horizontal,"(390.0, 762.0)",1.1166666666666667,0.069,0,19222.784,0
0,819,target,"[(1105, 769)]",[],[1],[0.5166666666666666],vertical,"(390.0, 262.0)",1.15,0.487,1,19226.911,1
0,820,target,"[(1124, 771)]",[],[1],[0.5833333333333334],horizontal,"(890.0, 262.0)",0.8,0.54,1,19232.051,1
0,821,target,"[(1091, 759)]",[],[1],[0.85],horizontal,"(890.0, 762.0)",1.6,"('cti', 1.587),nan",0,19237.049,0
