block,trial,trial_type,taps_start_loc_during_fix,taps_end_loc_during_fix,taps_on_lever_during_fix,taps_on_lever_s_during_fix,bar_orientation,target_xy,cti,rt,acc,time,pulses
0,1,target,"[(1096, 847)]",[],[1],[0.2833333333333333],horizontal,"(890.0, 262.0)",1.3166666666666667,0.252,1,0.371,1
0,2,target,"[(1106, 501), (1043, 810)]",[],"[0, 1]",[],horizontal,"(390.0, 762.0)",,"('cti', 1.469)",0,195.052,0
0,3,target,"[(1071, 780)]",[],[1],[0.85],horizontal,"(890.0, 262.0)",0.7,nan,0,954.008,0
0,4,target,"[(624, 164), (610, 164), (348, 571), (1102, 839)]",[],"[0, 0, 0, 1]",[0.85],vertical,"(890.0, 762.0)",1.2,nan,0,958.764,0
0,5,target,"[(1083, 797)]",[],[1],[0.5333333333333333],horizontal,"(390.0, 262.0)",1.15,0.497,1,991.192,1
0,6,target,"[(1081, 810)]",[],[1],[0.6166666666666667],vertical,"(890.0, 762.0)",0.55,0.577,1,995.813,1
0,7,target,"[(1085, 799)]",[],[1],[],vertical,"(390.0, 262.0)",,"('cti', 1.232)",0,1001.265,0
0,8,target,"[(1082, 810)]",[],[1],[0.85],vertical,"(390.0, 762.0)",1.1166666666666667,nan,0,1005.738,0
0,9,target,"[(1085, 792)]",[],[1],[0.6333333333333333],horizontal,"(890.0, 262.0)",0.5166666666666666,0.602,1,1010.551,1
0,10,target,"[(1107, 796)]",[],[1],[0.21666666666666667],vertical,"(390.0, 262.0)",1.0,0.182,0,1015.275,0
0,11,target,"[(1098, 799)]",[],[1],[0.23333333333333334],horizontal,"(390.0, 262.0)",0.8666666666666667,0.194,0,1019.498,0
0,12,target,"[(1102, 803)]",[],[1],[0.85],horizontal,"(890.0, 762.0)",0.9666666666666667,nan,0,1023.448,0
0,13,target,"[(1094, 803)]",[],[1],[0.6666666666666666],horizontal,"(890.0, 762.0)",1.2833333333333332,0.619,1,1028.23,1
0,14,target,"[(1116, 805)]",[],[1],[0.5],vertical,"(390.0, 262.0)",1.4166666666666667,0.461,1,1033.615,1
0,15,target,"[(1100, 808)]",[],[1],[0.6],horizontal,"(390.0, 262.0)",1.1333333333333333,0.559,1,1038.774,1
0,16,target,"[(1095, 806)]",[],[1],[0.6833333333333333],horizontal,"(390.0, 762.0)",0.9833333333333333,0.639,1,1043.831,2
0,17,target,"[(1105, 796)]",[],[1],[0.48333333333333334],horizontal,"(390.0, 262.0)",0.9833333333333333,0.446,1,1049.222,2
0,18,target,"[(1113, 786)]",[],[1],[0.5833333333333334],horizontal,"(890.0, 262.0)",1.1833333333333333,0.539,1,1054.064,2
0,19,target,"[(1106, 793)]",[],[1],[0.31666666666666665],horizontal,"(390.0, 262.0)",1.5666666666666667,0.283,1,1059.591,2
0,20,target,"[(1098, 801)]",[],[1],[0.55],horizontal,"(890.0, 262.0)",0.7166666666666667,0.509,1,1064.844,2
0,21,target,"[(1112, 785)]",[],[1],[0.5],horizontal,"(890.0, 262.0)",1.3833333333333333,0.464,1,1070.162,3
0,22,target,"[(1102, 796)]",[],[1],[0.5833333333333334],vertical,"(890.0, 262.0)",1.3,0.539,1,1076.134,3
0,23,target,"[(1089, 816)]",[],[1],[0.5666666666666667],horizontal,"(390.0, 762.0)",1.0666666666666667,0.525,1,1081.898,3
0,24,target,"[(1104, 801)]",[],[1],[0.55],vertical,"(890.0, 762.0)",0.7,0.512,1,1087.477,3
0,25,target,"[(1094, 805)]",[],[1],[0.55],vertical,"(890.0, 762.0)",1.0166666666666666,0.509,1,1092.673,3
0,26,target,"[(1075, 795)]",[],[1],[0.5666666666666667],horizontal,"(390.0, 762.0)",0.65,0.525,1,1098.665,3
0,27,target,"[(1071, 801)]",[],[1],[0.6166666666666667],horizontal,"(890.0, 262.0)",0.65,0.575,1,1103.831,3
0,28,target,"[(1100, 792)]",[],[1],[0.5166666666666666],horizontal,"(890.0, 262.0)",0.85,0.478,1,1109.812,3
0,29,target,"[(1100, 776)]",[],[1],[],horizontal,"(390.0, 762.0)",,"('cti', 1.617)",0,1115.532,0
0,30,target,"[(1106, 801)]",[],[1],[0.55],horizontal,"(890.0, 262.0)",1.0,0.507,1,1120.239,1
0,31,target,"[(1072, 796)]",[],[1],[0.5833333333333334],vertical,"(890.0, 762.0)",0.8166666666666667,0.541,1,1125.177,1
0,32,target,"[(1099, 779)]",[],[1],[0.5333333333333333],vertical,"(390.0, 762.0)",1.2333333333333334,0.496,1,1130.837,1
0,33,target,"[(1061, 783)]",[],[1],[0.5833333333333334],horizontal,"(890.0, 262.0)",0.7,0.537,1,1135.541,2
0,34,target,"[(1099, 795)]",[],[1],[0.5333333333333333],horizontal,"(890.0, 262.0)",1.0666666666666667,0.495,1,1140.649,2
0,35,target,"[(1119, 786)]",[],[1],[0.48333333333333334],horizontal,"(390.0, 262.0)",1.35,0.446,1,1146.031,2
0,36,target,"[(1099, 779)]",[],[1],[0.5],vertical,"(390.0, 262.0)",1.0666666666666667,0.455,1,1151.529,2
0,37,target,"[(1077, 795)]",[],[1],[],vertical,"(390.0, 762.0)",,"('cti', 1.486)",0,1156.836,0
0,38,target,"[(1085, 786)]",[],[1],[0.6333333333333333],horizontal,"(890.0, 262.0)",0.95,0.588,1,1161.624,1
0,39,target,"[(1083, 785)]",[],[1],[0.3],horizontal,"(890.0, 762.0)",1.6333333333333333,0.268,1,1166.332,1
0,40,target,"[(1077, 795)]",[],[1],[0.4],horizontal,"(390.0, 762.0)",1.55,0.362,1,1171.752,1
0,41,target,"[(1099, 794)]",[],[1],[0.6666666666666666],vertical,"(390.0, 262.0)",0.8833333333333333,0.619,1,1176.966,2
0,42,target,"[(1103, 794)]",[],[1],[0.5666666666666667],vertical,"(890.0, 262.0)",0.5166666666666666,0.526,1,1182.292,2
0,43,target,"[(1075, 792)]",[],[1],[0.5],horizontal,"(890.0, 262.0)",0.6666666666666666,0.464,1,1187.098,2
0,44,target,"[(1077, 796)]",[],[1],[0.6833333333333333],vertical,"(390.0, 762.0)",1.0333333333333332,0.638,1,1191.814,2
0,45,target,"[(1089, 789)]",[],[1],[0.85],vertical,"(390.0, 762.0)",0.9333333333333333,nan,0,1197.431,0
0,46,target,"[(1095, 793)]",[],[1],[0.5166666666666666],horizontal,"(890.0, 262.0)",1.15,0.479,1,1201.966,1
0,47,target,"[(1088, 792)]",[],[1],[0.6166666666666667],vertical,"(390.0, 262.0)",1.0333333333333332,0.573,1,1206.535,1
0,48,target,"[(1086, 775)]",[],[1],[0.85],horizontal,"(390.0, 762.0)",0.6166666666666667,nan,0,1211.831,0
0,49,catch,"[(1080, 787)]",[],[1],[],horizontal,"(390.0, 262.0)",1.3666666666666667,nan,1,1216.266,1
0,50,target,"[(1109, 794)]",[],[1],[0.5833333333333334],vertical,"(390.0, 762.0)",1.0333333333333332,0.546,1,1220.949,1
0,51,target,"[(1073, 779)]",[],[1],[0.7],vertical,"(390.0, 762.0)",0.7666666666666666,0.656,1,1225.848,1
0,52,catch,"[(1080, 792)]",[],[1],[],horizontal,"(890.0, 262.0)",1.5166666666666666,nan,1,1230.95,2
0,53,target,"[(1107, 790)]",[],[1],[0.08333333333333333],horizontal,"(390.0, 762.0)",1.5833333333333333,0.052,0,1235.938,0
0,54,target,"[(1128, 786)]",[],[1],[],horizontal,"(390.0, 762.0)",,"('cti', 1.493)",0,1240.253,0
0,55,target,"[(1087, 854)]",[],[1],[0.85],horizontal,"(390.0, 762.0)",0.6,nan,0,1244.865,0
0,56,target,"[(1065, 831)]",[],[1],[],horizontal,"(390.0, 262.0)",,"('cti', 1.613)",0,1254.659,0
0,57,target,"[(1080, 786)]",[],[1],[0.16666666666666666],horizontal,"(390.0, 262.0)",1.45,0.132,0,1259.404,0
0,58,catch,"[(1116, 799)]",[],[1],[],vertical,"(390.0, 762.0)",1.4666666666666666,nan,1,1264.128,1
0,59,target,"[(1083, 792)]",[],[1],[0.6333333333333333],horizontal,"(390.0, 762.0)",0.9,0.593,1,1268.752,1
0,60,catch,"[(1093, 790)]",[],[1],[],vertical,"(390.0, 262.0)",1.6666666666666667,nan,1,1273.184,1
0,61,target,"[(1083, 790)]",[],[1],[0.2833333333333333],horizontal,"(390.0, 762.0)",1.3833333333333333,0.246,1,1278.465,2
0,62,target,"[(1110, 788)]",[],[1],[0.48333333333333334],horizontal,"(390.0, 762.0)",1.5666666666666667,0.445,1,1283.907,2
0,63,target,"[(1104, 796)]",[],[1],[0.5833333333333334],vertical,"(890.0, 262.0)",0.7666666666666666,0.543,1,1289.684,2
0,64,target,"[(1086, 796)]",[],[1],[0.85],horizontal,"(890.0, 262.0)",0.95,nan,0,1294.5,0
0,65,target,"[(1112, 797)]",[],[1],[0.4166666666666667],horizontal,"(890.0, 262.0)",1.35,0.379,1,1299.533,1
0,66,target,"[(1111, 790)]",[],[1],[0.5333333333333333],horizontal,"(890.0, 262.0)",0.8,0.493,1,1304.73,1
0,67,target,"[(1102, 786)]",[],[1],[0.6333333333333333],horizontal,"(390.0, 762.0)",0.5333333333333333,0.59,1,1309.332,1
0,68,target,"[(1109, 794)]",[],[1],[0.5666666666666667],horizontal,"(890.0, 262.0)",1.1166666666666667,0.526,1,1313.675,2
0,69,target,"[(1107, 781)]",[],[1],[0.5333333333333333],horizontal,"(890.0, 262.0)",0.7833333333333333,0.485,1,1318.898,2
0,70,target,"[(1113, 790)]",[],[1],[0.85],horizontal,"(390.0, 262.0)",0.9,nan,0,1323.726,0
0,71,target,"[(1108, 793)]",[],[1],[0.5],horizontal,"(390.0, 262.0)",1.3166666666666667,0.461,1,1328.42,1
0,72,target,"[(1122, 789)]",[],[1],[0.08333333333333333],vertical,"(390.0, 262.0)",1.5666666666666667,0.054,0,1333.399,0
0,73,target,"[(1074, 790)]",[],[1],[0.5],vertical,"(890.0, 762.0)",0.8333333333333334,0.459,1,1337.682,1
0,74,target,"[(1085, 790)]",[],[1],[0.5333333333333333],horizontal,"(390.0, 262.0)",0.7166666666666667,0.489,1,1342.465,1
0,75,catch,"[(1104, 791)]",[],[1],[],vertical,"(890.0, 262.0)",1.6333333333333333,nan,1,1346.747,1
0,76,target,"[(1066, 773)]",[],[1],[0.5],horizontal,"(390.0, 762.0)",1.3,0.456,1,1351.399,2
0,77,target,"[(1104, 797)]",[],[1],[0.6],vertical,"(890.0, 262.0)",1.2666666666666666,0.558,1,1356.432,2
0,78,target,"[(1104, 787)]",[],[1],[0.5833333333333334],vertical,"(390.0, 262.0)",1.2666666666666666,0.54,1,1362.409,2
0,79,target,"[(1081, 778)]",[],[1],[0.31666666666666665],horizontal,"(890.0, 762.0)",1.6333333333333333,0.278,1,1367.775,2
0,80,target,"[(1104, 794)]",[],[1],[0.5333333333333333],horizontal,"(390.0, 762.0)",0.75,0.492,1,1373.132,2
0,81,target,"[(1094, 791)]",[],[1],[0.11666666666666667],vertical,"(390.0, 762.0)",1.6833333333333333,0.087,0,1377.899,0
0,82,target,"[(1099, 786)]",[],[1],[0.5333333333333333],horizontal,"(390.0, 262.0)",1.45,0.493,1,1382.526,1
0,83,target,"[(1075, 790)]",[],[1],[0.5],vertical,"(890.0, 262.0)",1.2666666666666666,0.467,1,1387.466,1
0,84,target,"[(1100, 785)]",[],[1],[0.5166666666666666],horizontal,"(890.0, 262.0)",1.0666666666666667,0.478,1,1392.76,1
0,85,target,"[(1076, 775)]",[],[1],[0.5],vertical,"(890.0, 762.0)",1.2833333333333332,0.456,1,1397.602,2
0,86,catch,"[(1117, 786)]",[],[1],[],horizontal,"(390.0, 762.0)",1.4666666666666666,nan,1,1402.7,2
0,87,catch,"[(1104, 790)]",[],[1],[],vertical,"(390.0, 762.0)",,"('cti', 1.537),nan",0,1407.49,0
0,88,target,"[(1112, 785)]",[],[1],[0.5166666666666666],vertical,"(890.0, 262.0)",1.35,0.475,1,1412.456,1
0,89,target,"[(1100, 790)]",[],[1],[0.4166666666666667],horizontal,"(890.0, 262.0)",1.2333333333333334,0.376,1,1417.415,1
0,90,target,"[(1102, 791)]",[],[1],[0.48333333333333334],vertical,"(890.0, 262.0)",1.1333333333333333,0.448,1,1422.199,1
0,91,target,"[(1107, 780)]",[],[1],[0.4666666666666667],vertical,"(890.0, 262.0)",0.5,0.431,1,1426.865,2
0,92,target,"[(1112, 799)]",[],[1],[0.5],vertical,"(390.0, 762.0)",1.65,0.464,1,1431.723,2
0,93,target,"[(1075, 791)]",[],[1],[0.7333333333333333],horizontal,"(390.0, 762.0)",0.9166666666666666,0.695,1,1437.659,2
0,94,target,"[(1098, 785)]",[],[1],[0.5166666666666666],horizontal,"(890.0, 262.0)",0.7833333333333333,0.475,1,1443.116,2
0,95,target,"[(1109, 799)]",[],[1],[0.48333333333333334],vertical,"(890.0, 762.0)",1.3,0.448,1,1448.266,2
0,96,catch,"[(1087, 779)]",[],[1],[],horizontal,"(890.0, 762.0)",1.5166666666666666,nan,1,1453.628,3
0,97,target,"[(1100, 792)]",[],[1],[0.15],vertical,"(890.0, 762.0)",1.4833333333333334,0.118,0,1459.419,0
0,98,target,"[(1095, 801)]",[],[1],[0.5333333333333333],vertical,"(390.0, 762.0)",0.9333333333333333,0.491,1,1463.775,1
0,99,target,"[(1071, 792)]",[],[1],[0.31666666666666665],vertical,"(390.0, 262.0)",1.4,0.279,1,1468.301,1
0,100,target,"[(1025, 773)]",[],[1],[0.5333333333333333],horizontal,"(390.0, 762.0)",0.8833333333333333,0.495,1,1473.481,1
0,101,target,"[(1061, 812)]",[],[1],[0.3333333333333333],horizontal,"(390.0, 762.0)",1.6,0.293,1,1497.817,2
0,102,target,"[(1075, 779)]",[],[1],[0.5666666666666667],horizontal,"(890.0, 262.0)",0.7,0.524,1,1503.69,2
0,103,target,"[(1075, 817)]",[],[1],[0.6],vertical,"(390.0, 762.0)",1.2166666666666666,0.559,1,1508.552,2
0,104,target,"[(1097, 779)]",[],[1],[0.55],horizontal,"(890.0, 262.0)",0.8,0.505,1,1516.311,2
0,105,target,"[(1086, 790)]",[],[1],[0.85],vertical,"(390.0, 262.0)",1.05,nan,0,1521.331,0
0,106,target,"[(1092, 779)]",[],[1],[0.4166666666666667],vertical,"(390.0, 762.0)",1.4833333333333334,0.389,1,1525.935,1
0,107,target,"[(1099, 791)]",[],[1],[0.5],vertical,"(390.0, 762.0)",1.4666666666666666,0.459,1,1531.295,1
0,108,catch,"[(1095, 787)]",[],[1],[],horizontal,"(390.0, 762.0)",1.4333333333333333,nan,1,1536.284,1
0,109,target,"[(1104, 795)]",[],[1],[0.5666666666666667],horizontal,"(390.0, 262.0)",1.0333333333333332,0.528,1,1541.217,2
0,110,target,"[(1086, 780)]",[],[1],[0.5333333333333333],horizontal,"(890.0, 262.0)",0.85,0.494,1,1546.965,2
0,111,target,"[(1102, 787)]",[],[1],[0.2833333333333333],horizontal,"(890.0, 262.0)",1.4333333333333333,0.249,1,1551.992,2
0,112,catch,"[(1092, 778)]",[],[1],[],vertical,"(890.0, 262.0)",,"('cti', 1.241),nan",0,1557.543,0
0,113,target,"[(1081, 784)]",[],[1],[0.5166666666666666],vertical,"(390.0, 762.0)",1.5666666666666667,0.477,1,1562.116,1
0,114,target,"[(1077, 791)]",[],[1],[0.5333333333333333],horizontal,"(390.0, 762.0)",1.25,0.492,1,1568.048,1
0,115,target,"[(1082, 794)]",[],[1],[0.7],vertical,"(390.0, 762.0)",0.8,0.653,1,1573.052,1
0,116,target,"[(1084, 795)]",[],[1],[0.6166666666666667],horizontal,"(890.0, 762.0)",0.9833333333333333,0.581,1,1578.323,2
0,117,target,"[(1103, 785)]",[],[1],[0.4],horizontal,"(390.0, 762.0)",1.2833333333333332,0.367,1,1583.683,2
0,118,target,"[(1100, 798)]",[],[1],[0.55],horizontal,"(890.0, 262.0)",0.75,0.506,1,1589.317,2
0,119,catch,"[(1107, 786)]",[],[1],[],horizontal,"(390.0, 762.0)",1.6,nan,1,1594.06,2
0,120,target,"[(1106, 795)]",[],[1],[0.5166666666666666],vertical,"(890.0, 762.0)",0.5,0.475,1,1599.333,2
0,121,target,"[(1100, 775)]",[],[1],[0.85],vertical,"(390.0, 762.0)",0.6,nan,0,1604.268,0
0,122,target,"[(1102, 795)]",[],[1],[0.5],vertical,"(890.0, 762.0)",1.1166666666666667,0.456,1,1608.983,1
0,123,target,"[(1095, 799)]",[],[1],[0.5833333333333334],horizontal,"(390.0, 762.0)",0.7833333333333333,0.546,1,1614.223,1
0,124,target,"[(1086, 795)]",[],[1],[0.45],horizontal,"(390.0, 262.0)",1.5666666666666667,0.414,1,1618.725,1
0,125,target,"[(1077, 799)]",[],[1],[0.75],vertical,"(390.0, 762.0)",1.0833333333333333,0.712,1,1623.743,2
0,126,target,"[(1102, 788)]",[],[1],[0.4666666666666667],vertical,"(890.0, 762.0)",1.3166666666666667,0.43,1,1629.316,2
0,127,catch,"[(1083, 780)]",[],[1],[],vertical,"(390.0, 762.0)",1.4333333333333333,nan,1,1634.649,2
0,128,target,"[(1077, 787)]",[],[1],[0.5333333333333333],horizontal,"(890.0, 262.0)",0.6,0.495,1,1639.449,2
0,129,target,"[(1101, 787)]",[],[1],[0.35],vertical,"(890.0, 262.0)",1.5333333333333332,0.311,1,1644.174,2
0,130,target,"[(1101, 790)]",[],[1],[0.6666666666666666],horizontal,"(390.0, 762.0)",0.85,0.625,1,1649.33,3
0,131,target,"[(1081, 810)]",[],[1],[0.85],vertical,"(890.0, 262.0)",1.65,"('cti', 1.653),nan",0,1655.089,0
0,132,target,"[(1069, 815)]",[],[1],[0.55],horizontal,"(890.0, 762.0)",1.1,0.52,1,1660.525,1
0,133,target,"[(1094, 806)]",[],[1],[0.5666666666666667],vertical,"(890.0, 762.0)",1.0166666666666666,0.524,1,1665.976,1
0,134,target,"[(1103, 785)]",[],[1],[0.5833333333333334],vertical,"(890.0, 762.0)",0.5166666666666666,0.552,1,1670.717,1
0,135,catch,"[(1079, 779)]",[],[1],[],horizontal,"(890.0, 262.0)",1.4666666666666666,nan,1,1675.189,2
0,136,target,"[(1107, 789)]",[],[1],[0.3833333333333333],vertical,"(390.0, 762.0)",1.2666666666666666,0.345,1,1680.618,2
0,137,target,"[(1080, 784)]",[],[1],[0.48333333333333334],vertical,"(890.0, 762.0)",0.7,0.442,1,1686.284,2
0,138,catch,"[(1089, 790)]",[],[1],[0.03333333333333333],horizontal,"(890.0, 762.0)",1.5,"0.018,nan",0,1691.175,0
0,139,target,"[(1070, 796)]",[],[1],[0.5333333333333333],vertical,"(890.0, 762.0)",0.9666666666666667,0.493,1,1696.025,1
0,140,target,"[(1086, 794)]",[],[1],[0.85],horizontal,"(390.0, 762.0)",0.7,nan,0,1701.7,0
0,141,target,"[(1090, 785)]",[],[1],[0.5666666666666667],horizontal,"(890.0, 762.0)",0.75,0.531,1,1706.134,1
0,142,target,"[(1096, 790)]",[],[1],[0.55],vertical,"(890.0, 262.0)",0.6666666666666666,0.507,1,1711.229,1
0,143,target,"[(1090, 790)]",[],[1],[0.6333333333333333],horizontal,"(390.0, 262.0)",0.7166666666666667,0.594,1,1715.652,1
0,144,target,"[(1084, 791)]",[],[1],[0.5833333333333334],horizontal,"(890.0, 762.0)",1.0666666666666667,0.545,1,1720.264,2
0,145,target,"[(1104, 772)]",[],[1],[0.55],horizontal,"(390.0, 262.0)",0.8666666666666667,0.513,1,1725.584,2
0,146,target,"[(1100, 787)]",[],[1],[],horizontal,"(890.0, 262.0)",,"('cti', 1.568)",0,1730.484,0
0,147,target,"[(1106, 783)]",[],[1],[0.55],vertical,"(390.0, 262.0)",0.6166666666666667,0.509,1,1735.127,1
0,148,target,"[(1094, 794)]",[],[1],[0.4166666666666667],vertical,"(390.0, 762.0)",1.3,0.379,1,1739.303,1
0,149,target,"[(1076, 786)]",[],[1],[0.3333333333333333],horizontal,"(390.0, 262.0)",1.4666666666666666,0.296,1,1744.274,1
0,150,target,"[(1101, 782)]",[],[1],[0.5166666666666666],vertical,"(890.0, 262.0)",1.1,0.473,1,1749.417,2
0,151,target,"[(1099, 786)]",[],[1],[0.6],horizontal,"(390.0, 762.0)",0.6,0.559,1,1754.568,2
0,152,target,"[(1080, 785)]",[],[1],[0.5166666666666666],vertical,"(390.0, 262.0)",1.1,0.475,1,1759.683,2
0,153,target,"[(1082, 786)]",[],[1],[0.5833333333333334],horizontal,"(390.0, 262.0)",1.05,0.539,1,1764.768,2
0,154,target,"[(1106, 786)]",[],[1],[0.85],vertical,"(390.0, 762.0)",0.8,nan,0,1770.115,0
0,155,target,"[(1085, 767)]",[],[1],[0.3833333333333333],vertical,"(890.0, 762.0)",1.2666666666666666,0.347,1,1774.867,1
0,156,target,"[(1075, 813)]",[],[1],[0.35],vertical,"(390.0, 762.0)",1.4,0.316,1,1779.586,1
0,157,target,"[(1091, 793)]",[],[1],[0.85],horizontal,"(390.0, 262.0)",1.6833333333333333,"('cti', 1.671),nan",0,1784.767,0
0,158,target,"[(1064, 779)]",[],[1],[0.5333333333333333],horizontal,"(390.0, 762.0)",1.15,0.492,1,1790.485,1
0,159,target,"[(1077, 813)]",[],[1],[0.85],horizontal,"(890.0, 762.0)",0.65,nan,0,1795.273,0
0,160,target,"[(1090, 760)]",[],[1],[0.85],vertical,"(890.0, 262.0)",0.8833333333333333,nan,0,1799.557,0
0,161,catch,"[(1100, 782)]",[],[1],[],horizontal,"(390.0, 762.0)",1.4166666666666667,nan,1,1804.352,1
0,162,target,"[(1092, 786)]",[],[1],[0.55],vertical,"(890.0, 262.0)",0.65,0.505,1,1809.584,1
0,163,target,"[(1088, 810)]",[],[1],[0.5833333333333334],horizontal,"(390.0, 762.0)",0.95,0.538,1,1814.017,1
0,164,target,"[(1077, 809)]",[],[1],[0.6833333333333333],vertical,"(890.0, 762.0)",1.05,0.633,1,1819.001,2
0,165,target,"[(1107, 802)]",[],[1],[0.5333333333333333],horizontal,"(390.0, 762.0)",1.0333333333333332,0.494,1,1824.618,2
0,166,target,"[(1077, 788)]",[],[1],[0.48333333333333334],vertical,"(890.0, 762.0)",1.0666666666666667,0.439,1,1829.852,2
0,167,target,"[(1047, 810)]",[],[1],[0.5333333333333333],horizontal,"(890.0, 762.0)",0.55,0.498,1,1835.166,2
0,168,target,"[(1075, 768)]",[],[1],[0.48333333333333334],horizontal,"(390.0, 262.0)",0.55,0.443,1,1842.556,2
0,169,catch,"[(1080, 779)]",[],[1],[],horizontal,"(390.0, 262.0)",1.5833333333333333,nan,1,1847.432,3
0,170,target,"[(1093, 789)]",[],[1],[0.6166666666666667],horizontal,"(890.0, 762.0)",0.95,0.573,1,1852.968,3
0,171,target,"[(1103, 785)]",[],[1],[0.4666666666666667],vertical,"(390.0, 762.0)",1.2166666666666666,0.428,1,1858.495,3
0,172,target,"[(1104, 792)]",[],[1],[0.55],vertical,"(390.0, 262.0)",1.05,0.507,1,1864.069,3
0,173,target,"[(1109, 777)]",[],[1],[0.6],horizontal,"(390.0, 262.0)",0.95,0.56,1,1870.118,3
0,174,target,"[(1079, 800)]",[],[1],[0.55],vertical,"(890.0, 262.0)",1.1833333333333333,0.503,1,1875.334,3
0,175,target,"[(1078, 805)]",[],[1],[0.5],vertical,"(390.0, 262.0)",1.6333333333333333,0.46,1,1880.958,3
0,176,target,"[(1081, 797)]",[],[1],[0.7333333333333333],vertical,"(890.0, 762.0)",0.5666666666666667,0.71,1,1886.769,3
0,177,target,"[(1080, 796)]",[],[1],[0.4666666666666667],vertical,"(890.0, 262.0)",0.6166666666666667,0.423,1,1892.734,3
0,178,target,"[(1109, 792)]",[],[1],[0.4666666666666667],horizontal,"(890.0, 262.0)",1.2166666666666666,0.423,1,1897.802,3
0,179,target,"[(1075, 817)]",[],[1],[0.13333333333333333],horizontal,"(390.0, 762.0)",1.6166666666666667,0.099,0,1903.761,0
0,180,target,"[(1056, 785)]",[],[1],[0.55],vertical,"(890.0, 762.0)",1.0666666666666667,0.506,1,1909.551,1
0,181,target,"[(1072, 810)]",[],[1],[0.5333333333333333],vertical,"(890.0, 262.0)",1.4666666666666666,0.494,1,1914.573,1
0,182,target,"[(1080, 796)]",[],[1],[0.3833333333333333],vertical,"(890.0, 262.0)",1.3166666666666667,0.34,1,1919.936,1
0,183,target,"[(1109, 776)]",[],[1],[0.36666666666666664],vertical,"(890.0, 762.0)",1.2666666666666666,0.328,1,1925.409,2
0,184,target,"[(1095, 787)]",[],[1],[0.6833333333333333],vertical,"(890.0, 762.0)",0.5,0.636,1,1930.585,2
0,185,target,"[(1108, 790)]",[],[1],[0.05],horizontal,"(890.0, 762.0)",1.5,0.019,0,1935.576,0
0,186,target,"[(1075, 795)]",[],[1],[0.5833333333333334],vertical,"(390.0, 762.0)",0.9166666666666666,0.538,1,1940.229,1
0,187,target,"[(1075, 794)]",[],[1],[0.4666666666666667],vertical,"(890.0, 262.0)",1.5666666666666667,0.433,1,1946.21,1
0,188,target,"[(1095, 785)]",[],[1],[0.23333333333333334],horizontal,"(390.0, 762.0)",1.5,0.204,1,1951.477,1
0,189,target,"[(1091, 793)]",[],[1],[0.26666666666666666],horizontal,"(390.0, 762.0)",1.5833333333333333,0.231,1,1956.753,2
0,190,target,"[(1108, 771)]",[],[1],[0.85],vertical,"(390.0, 262.0)",0.6833333333333333,nan,0,1962.002,0
0,191,target,"[(1113, 764)]",[],[1],[0.43333333333333335],horizontal,"(890.0, 762.0)",1.2333333333333334,0.392,1,1966.148,1
0,192,target,"[(1090, 809)]",[],[1],[0.25],horizontal,"(390.0, 262.0)",1.45,0.214,1,1971.236,1
0,193,catch,"[(1072, 805)]",[],[1],[],vertical,"(390.0, 762.0)",1.4833333333333334,nan,1,1976.164,1
0,194,target,"[(1087, 792)]",[],[1],[0.48333333333333334],horizontal,"(390.0, 262.0)",1.2666666666666666,0.441,1,1981.235,2
0,195,target,"[(1105, 795)]",[],[1],[0.5],horizontal,"(890.0, 262.0)",0.6833333333333333,0.463,1,1986.519,2
0,196,target,"[(1091, 792)]",[],[1],[0.5666666666666667],vertical,"(890.0, 262.0)",0.6833333333333333,0.528,1,1991.611,2
0,197,target,"[(1075, 802)]",[],[1],[0.6],vertical,"(890.0, 762.0)",0.9833333333333333,0.552,1,1996.652,2
0,198,catch,"[(1073, 785)]",[],[1],[],vertical,"(390.0, 262.0)",1.35,nan,1,2002.069,2
0,199,catch,"[(1071, 784)]",[],[1],[],horizontal,"(890.0, 262.0)",1.5333333333333332,nan,1,2007.269,3
0,200,target,"[(1075, 790)]",[],[1],[0.6],horizontal,"(890.0, 262.0)",0.5666666666666667,0.56,1,2012.854,3
0,201,target,"[(1084, 782)]",[],[1],[0.85],vertical,"(390.0, 762.0)",0.7,nan,0,2018.459,0
0,202,target,"[(1085, 776)]",[],[1],[0.6333333333333333],vertical,"(390.0, 762.0)",1.0,0.59,1,2022.694,1
0,203,target,"[(1072, 785)]",[],[1],[0.23333333333333334],vertical,"(890.0, 262.0)",1.55,0.2,1,2027.736,1
0,204,target,"[(1100, 781)]",[],[1],[0.48333333333333334],horizontal,"(390.0, 262.0)",1.1333333333333333,0.447,1,2032.72,1
0,205,target,"[(1103, 787)]",[],[1],[0.5833333333333334],vertical,"(390.0, 762.0)",0.9,0.539,1,2037.847,2
0,206,target,"[(1104, 794)]",[],[1],[0.85],vertical,"(890.0, 262.0)",1.6333333333333333,"('cti', 1.621),nan",0,2043.185,0
0,207,target,"[(1082, 786)]",[],[1],[0.85],vertical,"(890.0, 762.0)",0.5333333333333333,nan,0,2048.268,0
0,208,target,"[(1095, 786)]",[],[1],[0.35],vertical,"(390.0, 762.0)",1.45,0.312,1,2052.935,1
0,209,catch,"[(1079, 794)]",[],[1],[],vertical,"(390.0, 762.0)",,"('cti', 1.52),nan",0,2058.319,0
0,210,target,"[(1098, 775)]",[],[1],[0.36666666666666664],horizontal,"(390.0, 762.0)",1.5,0.331,1,2063.097,1
0,211,target,"[(1095, 810)]",[],[1],[0.55],horizontal,"(390.0, 262.0)",0.5333333333333333,0.506,1,2068.407,1
0,212,target,"[(1090, 781)]",[],[1],[0.5333333333333333],horizontal,"(890.0, 262.0)",1.1,0.496,1,2072.885,1
0,213,target,"[(1097, 805)]",[],[1],[0.25],horizontal,"(890.0, 262.0)",1.4666666666666666,0.214,1,2078.219,2
0,214,target,"[(1091, 797)]",[],[1],[0.85],vertical,"(390.0, 762.0)",1.0666666666666667,nan,0,2083.553,0
0,215,target,"[(1110, 785)]",[],[1],[0.4666666666666667],vertical,"(890.0, 262.0)",1.35,0.425,1,2088.681,1
0,216,target,"[(1079, 790)]",[],[1],[0.5333333333333333],vertical,"(390.0, 262.0)",0.95,0.49,1,2093.869,1
0,217,target,"[(1082, 784)]",[],[1],[0.6166666666666667],vertical,"(390.0, 762.0)",0.6166666666666667,0.574,1,2098.399,1
0,218,target,"[(1086, 785)]",[],[1],[0.26666666666666666],vertical,"(390.0, 262.0)",1.6166666666666667,0.235,1,2103.304,2
0,219,target,"[(1082, 783)]",[],[1],[0.23333333333333334],horizontal,"(390.0, 262.0)",1.3,0.198,0,2108.903,0
0,220,target,"[(1085, 784)]",[],[1],[0.23333333333333334],horizontal,"(390.0, 762.0)",1.4666666666666666,0.2,1,2113.341,1
0,221,target,"[(1104, 774)]",[],[1],[],horizontal,"(390.0, 762.0)",,"('cti', 1.502)",0,2118.686,0
0,222,target,"[(1058, 777)]",[],[1],[0.5333333333333333],vertical,"(890.0, 762.0)",1.15,0.502,1,2123.27,1
0,223,target,"[(1086, 773)]",[],[1],[0.1],horizontal,"(890.0, 762.0)",1.6,0.068,0,2129.482,0
0,224,target,"[(1105, 782)]",[],[1],[0.85],vertical,"(890.0, 762.0)",0.5333333333333333,nan,0,2133.911,0
0,225,target,"[(1095, 771)]",[],[1],[0.55],vertical,"(390.0, 262.0)",1.1333333333333333,0.506,1,2138.198,1
0,226,target,"[(1103, 790)]",[],[1],[0.6166666666666667],horizontal,"(390.0, 262.0)",0.95,0.576,1,2143.244,1
0,227,target,"[(1084, 806)]",[],[1],[0.35],vertical,"(890.0, 762.0)",1.3333333333333333,0.31,1,2148.452,1
0,228,target,"[(1075, 779)]",[],[1],[0.5],horizontal,"(890.0, 262.0)",1.4,0.461,1,2153.456,2
0,229,target,"[(1085, 775)]",[],[1],[0.15],vertical,"(390.0, 762.0)",1.65,0.12,0,2159.227,0
0,230,catch,"[(1080, 782)]",[],[1],[],horizontal,"(390.0, 762.0)",1.6666666666666667,nan,1,2164.073,1
0,231,target,"[(1095, 775)]",[],[1],[0.7],vertical,"(390.0, 762.0)",0.55,0.667,1,2168.836,1
0,232,target,"[(1061, 799)]",[],[1],[0.6],vertical,"(890.0, 262.0)",1.6666666666666667,0.564,1,2173.639,1
0,233,target,"[(1080, 805)]",[],[1],[0.55],horizontal,"(390.0, 762.0)",0.5333333333333333,0.519,1,2179.507,2
0,234,target,"[(1076, 771)]",[],[1],[0.16666666666666666],horizontal,"(890.0, 762.0)",1.6166666666666667,0.138,0,2184.987,0
0,235,target,"[(1080, 785)]",[],[1],[0.5],vertical,"(890.0, 762.0)",1.4,0.459,1,2189.618,1
0,236,catch,"[(1060, 788)]",[],[1],[],vertical,"(890.0, 262.0)",,"('cti', 1.465),nan",0,2194.491,0
0,237,catch,"[(1058, 778)]",[],[1],[],horizontal,"(390.0, 262.0)",1.45,nan,1,2199.07,1
0,238,target,"[(1080, 787)]",[],[1],[0.21666666666666667],vertical,"(890.0, 762.0)",1.4166666666666667,0.182,0,2203.753,0
0,239,target,"[(1085, 779)]",[],[1],[0.5166666666666666],vertical,"(890.0, 762.0)",1.45,0.477,1,2208.659,1
0,240,target,"[(1104, 787)]",[],[1],[0.5],vertical,"(890.0, 762.0)",1.1,0.461,1,2213.686,1
0,241,target,"[(1104, 814)]",[],[1],[0.3],horizontal,"(890.0, 262.0)",1.5333333333333332,0.262,1,2218.47,1
0,242,target,"[(1074, 790)]",[],[1],[0.5833333333333334],horizontal,"(390.0, 762.0)",1.0,0.542,1,2224.02,2
0,243,target,"[(1102, 789)]",[],[1],[0.5666666666666667],vertical,"(890.0, 262.0)",0.6,0.532,1,2229.337,2
0,244,catch,"[(1105, 772)]",[],[1],[],horizontal,"(390.0, 762.0)",1.4,nan,1,2233.832,2
0,245,target,"[(1081, 763)]",[],[1],[0.08333333333333333],horizontal,"(890.0, 262.0)",1.6666666666666667,0.05,0,2238.955,0
0,246,target,"[(1105, 777)]",[],[1],[0.13333333333333333],horizontal,"(390.0, 762.0)",1.4833333333333334,0.101,0,2243.765,0
0,247,target,"[(1101, 795)]",[],[1],[0.36666666666666664],horizontal,"(890.0, 762.0)",1.3333333333333333,0.329,1,2248.489,1
0,248,target,"[(1104, 787)]",[],[1],[0.5166666666666666],horizontal,"(390.0, 262.0)",1.0,0.475,1,2253.621,1
0,249,target,"[(1101, 785)]",[],[1],[0.55],vertical,"(890.0, 262.0)",1.2166666666666666,0.507,1,2258.154,1
0,250,target,"[(1094, 790)]",[],[1],[0.6333333333333333],vertical,"(390.0, 762.0)",0.6166666666666667,0.594,1,2263.521,2
0,251,catch,"[(1086, 785)]",[],[1],[],vertical,"(890.0, 762.0)",1.6666666666666667,nan,1,2268.83,2
0,252,target,"[(1104, 782)]",[],[1],[0.45],horizontal,"(390.0, 262.0)",1.5666666666666667,0.412,1,2274.524,2
0,253,target,"[(1076, 810)]",[],[1],[0.85],vertical,"(390.0, 762.0)",0.7,nan,0,2280.37,0
0,254,target,"[(1080, 780)]",[],[1],[0.5833333333333334],horizontal,"(390.0, 762.0)",1.05,0.551,1,2284.786,1
0,255,target,"[(1086, 796)]",[],[1],[0.55],vertical,"(390.0, 762.0)",1.2,0.506,1,2289.588,1
0,256,target,"[(1109, 799)]",[],[1],[0.5666666666666667],horizontal,"(390.0, 762.0)",0.8833333333333333,0.525,1,2294.62,1
0,257,target,"[(1075, 778)]",[],[1],[0.55],horizontal,"(390.0, 262.0)",1.2833333333333332,0.518,1,2299.472,2
0,258,target,"[(1088, 786)]",[],[1],[0.85],horizontal,"(390.0, 262.0)",0.9,nan,0,2304.964,0
0,259,target,"[(1103, 765)]",[],[1],[0.85],horizontal,"(390.0, 762.0)",0.5166666666666666,nan,0,2309.657,0
0,260,target,"[(1084, 796)]",[],[1],[0.6],horizontal,"(890.0, 762.0)",0.5833333333333334,0.556,1,2314.005,1
0,261,target,"[(1074, 785)]",[],[1],[0.5666666666666667],horizontal,"(390.0, 762.0)",1.0833333333333333,0.529,1,2319.006,1
0,262,target,"[(1091, 782)]",[],[1],[0.5],vertical,"(390.0, 762.0)",1.5666666666666667,0.456,1,2324.221,1
0,263,catch,"[(1078, 779)]",[],[1],[],horizontal,"(390.0, 262.0)",1.6,nan,1,2329.503,2
0,264,target,"[(1096, 785)]",[],[1],[0.85],horizontal,"(890.0, 762.0)",0.5,nan,0,2334.628,0
0,265,target,"[(1063, 786)]",[],[1],[0.5333333333333333],horizontal,"(390.0, 762.0)",1.1,0.493,1,2338.804,1
0,266,target,"[(1074, 776)]",[],[1],[0.43333333333333335],vertical,"(890.0, 262.0)",1.55,0.397,1,2343.653,1
0,267,target,"[(1066, 778)]",[],[1],[0.55],horizontal,"(890.0, 262.0)",0.7833333333333333,0.508,1,2348.978,1
0,268,target,"[(1068, 787)]",[],[1],[0.2833333333333333],horizontal,"(890.0, 762.0)",1.4,0.248,1,2353.785,2
0,269,target,"[(1092, 784)]",[],[1],[0.6333333333333333],vertical,"(890.0, 262.0)",0.7,0.591,1,2359.079,2
0,270,target,"[(1086, 785)]",[],[1],[0.5],vertical,"(890.0, 762.0)",1.1166666666666667,0.463,1,2364.344,2
0,271,target,"[(1075, 773)]",[],[1],[0.5833333333333334],horizontal,"(390.0, 262.0)",0.6166666666666667,0.543,1,2369.503,2
0,272,target,"[(1107, 776)]",[],[1],[0.3333333333333333],horizontal,"(890.0, 262.0)",1.45,0.296,1,2374.312,2
0,273,target,"[(1106, 784)]",[],[1],[0.55],vertical,"(390.0, 262.0)",1.0333333333333332,0.509,1,2379.85,3
0,274,target,"[(1084, 788)]",[],[1],[0.1],horizontal,"(390.0, 762.0)",1.6833333333333333,0.066,0,2385.47,0
0,275,target,"[(1081, 793)]",[],[1],[0.5166666666666666],horizontal,"(890.0, 262.0)",1.1333333333333333,0.482,1,2390.755,1
0,276,target,"[(1080, 771)]",[],[1],[0.55],vertical,"(890.0, 762.0)",0.8333333333333334,0.505,1,2395.896,1
0,277,catch,"[(1102, 778)]",[],[1],[],vertical,"(890.0, 762.0)",1.4166666666666667,nan,1,2400.43,1
0,278,target,"[(1101, 774)]",[],[1],[0.5666666666666667],vertical,"(390.0, 762.0)",1.0166666666666666,0.524,1,2405.272,2
0,279,target,"[(1103, 804)]",[],[1],[0.4],horizontal,"(890.0, 262.0)",1.3833333333333333,0.363,1,2410.807,2
0,280,target,"[(1089, 777)]",[],[1],[0.5666666666666667],horizontal,"(390.0, 762.0)",0.5333333333333333,0.523,1,2416.255,2
0,281,target,"[(1104, 790)]",[],[1],[0.5333333333333333],vertical,"(390.0, 762.0)",1.1666666666666667,0.5,1,2420.855,2
0,282,target,"[(1088, 795)]",[],[1],[0.6],vertical,"(390.0, 762.0)",1.0666666666666667,0.573,1,2426.405,2
0,283,target,"[(1089, 795)]",[],[1],[0.5833333333333334],vertical,"(390.0, 262.0)",0.7166666666666667,0.544,1,2432.08,3
0,284,target,"[(1087, 770)]",[],[1],[0.5833333333333334],vertical,"(890.0, 262.0)",0.6666666666666666,0.545,1,2437.922,3
0,285,target,"[(1090, 799)]",[],[1],[0.5666666666666667],horizontal,"(890.0, 762.0)",0.8,0.524,1,2443.172,3
0,286,target,"[(1077, 804)]",[],[1],[0.13333333333333333],vertical,"(390.0, 762.0)",1.5833333333333333,0.101,0,2449.171,0
0,287,target,"[(1083, 780)]",[],[1],[0.4666666666666667],vertical,"(390.0, 262.0)",1.2833333333333332,0.426,1,2454.337,1
0,288,target,"[(1085, 805)]",[],[1],[0.31666666666666665],horizontal,"(890.0, 762.0)",1.65,0.276,1,2459.322,1
0,289,target,"[(1104, 804)]",[],[1],[0.11666666666666667],horizontal,"(390.0, 262.0)",1.5666666666666667,0.087,0,2464.536,0
0,290,target,"[(1095, 780)]",[],[1],[0.4666666666666667],horizontal,"(390.0, 762.0)",1.25,0.426,1,2469.739,1
0,291,target,"[(1081, 770)]",[],[1],[0.5],vertical,"(890.0, 262.0)",1.0666666666666667,0.458,1,2474.87,1
0,292,target,"[(1121, 773)]",[],[1],[0.11666666666666667],horizontal,"(890.0, 762.0)",1.4833333333333334,0.084,0,2479.786,0
0,293,target,"[(1079, 786)]",[],[1],[],vertical,"(390.0, 262.0)",,"('cti', 1.494)",0,2484.367,0
0,294,target,"[(1090, 764)]",[],[1],[0.45],vertical,"(890.0, 262.0)",1.25,0.406,1,2489.055,1
0,295,target,"[(1085, 786)]",[],[1],[0.6666666666666666],horizontal,"(890.0, 262.0)",0.8,0.622,1,2493.899,1
0,296,target,"[(1076, 790)]",[],[1],[0.3833333333333333],horizontal,"(390.0, 762.0)",1.3333333333333333,0.347,1,2499.254,1
0,297,catch,"[(1086, 778)]",[],[1],[],horizontal,"(390.0, 262.0)",,"('cti', 1.353),nan",0,2504.304,0
0,298,target,"[(1081, 799)]",[],[1],[0.5666666666666667],vertical,"(890.0, 262.0)",0.95,0.529,1,2509.254,1
0,299,target,"[(1088, 786)]",[],[1],[0.6],vertical,"(390.0, 762.0)",0.8666666666666667,0.552,1,2513.698,1
0,300,target,"[(1086, 792)]",[],[1],"[0.85, 0.85]",vertical,"(390.0, 762.0)",1.1666666666666667,"0.802,nan",0,2518.598,0
0,301,target,"[(1072, 780)]",[],[1],[0.4166666666666667],horizontal,"(390.0, 262.0)",1.35,0.374,1,2523.517,1
0,302,target,"[(1081, 770)]",[],[1],[0.6833333333333333],horizontal,"(890.0, 762.0)",0.5,0.636,1,2528.412,1
0,303,catch,"[(1084, 763)]",[],[1],[],vertical,"(890.0, 262.0)",1.6166666666666667,nan,1,2532.812,1
0,304,target,"[(1096, 786)]",[],[1],[0.5833333333333334],horizontal,"(390.0, 262.0)",0.7333333333333333,0.54,1,2537.815,2
0,305,target,"[(1089, 787)]",[],[1],[0.65],vertical,"(890.0, 762.0)",0.6666666666666666,0.605,1,2543.254,2
0,306,catch,"[(1080, 764)]",[],[1],[],vertical,"(890.0, 262.0)",1.4833333333333334,nan,1,2548.096,2
0,307,target,"[(1102, 760)]",[],[1],[0.5166666666666666],horizontal,"(890.0, 262.0)",1.05,0.474,1,2553.359,2
0,308,target,"[(1075, 783)]",[],[1],[0.5],horizontal,"(890.0, 262.0)",0.7833333333333333,0.458,1,2558.816,2
0,309,target,"[(1100, 780)]",[],[1],[0.85],vertical,"(890.0, 262.0)",1.55,"('cti', 1.536),nan",0,2563.788,0
0,310,target,"[(1061, 780)]",[],[1],[0.85],vertical,"(890.0, 762.0)",0.55,nan,0,2569.268,0
0,311,target,"[(1098, 783)]",[],[1],[0.3],horizontal,"(890.0, 262.0)",1.3166666666666667,0.266,1,2586.105,1
0,312,target,"[(1089, 785)]",[],[1],[0.48333333333333334],horizontal,"(390.0, 262.0)",1.5833333333333333,0.443,1,2591.188,1
0,313,target,"[(1100, 800)]",[],[1],[0.6],vertical,"(890.0, 762.0)",0.85,0.555,1,2596.206,1
0,314,target,"[(1101, 800)]",[],[1],[0.5666666666666667],vertical,"(890.0, 762.0)",0.6333333333333333,0.526,1,2601.205,2
0,315,target,"[(1063, 780)]",[],[1],[0.7166666666666667],vertical,"(390.0, 762.0)",0.9166666666666666,0.681,1,2606.061,2
0,316,target,"[(1088, 772)]",[],[1],[0.5166666666666666],vertical,"(890.0, 262.0)",0.8333333333333334,0.473,1,2611.49,2
0,317,target,"[(1080, 795)]",[],[1],[0.35],vertical,"(890.0, 262.0)",1.5,0.31,1,2616.57,2
0,318,target,"[(1100, 776)]",[],[1],[0.85],vertical,"(890.0, 762.0)",1.0,nan,0,2621.922,0
0,319,target,"[(1065, 762)]",[],[1],[0.6333333333333333],vertical,"(890.0, 762.0)",0.8333333333333334,0.586,1,2626.821,1
0,320,target,"[(1067, 795)]",[],[1],[0.5],horizontal,"(890.0, 262.0)",0.95,0.456,1,2631.622,1
0,321,target,"[(1085, 796)]",[],[1],[0.6833333333333333],vertical,"(390.0, 262.0)",0.55,0.638,1,2636.338,1
0,322,target,"[(1101, 796)]",[],[1],[0.5833333333333334],horizontal,"(390.0, 762.0)",1.0666666666666667,0.547,1,2640.806,2
0,323,target,"[(1107, 798)]",[],[1],[0.6166666666666667],vertical,"(890.0, 762.0)",0.7,0.574,1,2645.867,2
0,324,catch,"[(1107, 790)]",[],[1],[],vertical,"(890.0, 762.0)",1.35,nan,1,2651.271,2
0,325,target,"[(1089, 790)]",[],[1],[0.6],horizontal,"(890.0, 262.0)",0.8,0.561,1,2656.021,2
0,326,target,"[(1103, 781)]",[],[1],[0.5166666666666666],vertical,"(890.0, 762.0)",1.05,0.478,1,2661.674,2
0,327,target,"[(1103, 758)]",[],[1],[0.21666666666666667],vertical,"(890.0, 262.0)",1.6833333333333333,0.182,0,2667.24,0
0,328,target,"[(1093, 791)]",[],[1],[0.5166666666666666],vertical,"(390.0, 262.0)",1.5333333333333332,0.474,1,2672.124,1
0,329,target,"[(1081, 783)]","[(1063, 807)]",[1],[0.4166666666666667],vertical,"(390.0, 762.0)",,"('bar', 0.43)",0,2677.392,0
0,330,target,"[(1059, 807)]",[],[1],[0.3333333333333333],vertical,"(890.0, 262.0)",1.6,0.296,1,2680.164,1
0,331,target,"[(1100, 780)]",[],[1],[0.85],vertical,"(890.0, 262.0)",0.5666666666666667,nan,0,2712.221,0
0,332,target,"[(1068, 780)]",[],[1],[0.21666666666666667],vertical,"(890.0, 762.0)",1.5333333333333332,0.183,0,2716.652,0
0,333,target,"[(1104, 768)]",[],[1],[],vertical,"(890.0, 262.0)",,"('cti', 1.209)",0,2721.457,0
0,334,target,"[(1077, 797)]",[],[1],[0.5166666666666666],vertical,"(890.0, 262.0)",1.2,0.477,1,2725.721,1
0,335,target,"[(1099, 784)]",[],[1],[0.6666666666666666],vertical,"(890.0, 762.0)",0.7833333333333333,0.626,1,2734.322,1
0,336,target,"[(1102, 782)]",[],[1],[0.48333333333333334],vertical,"(890.0, 762.0)",1.1,0.44,1,2738.706,1
0,337,target,"[(1094, 777)]",[],[1],[0.5833333333333334],horizontal,"(390.0, 762.0)",0.95,0.537,1,2743.855,2
0,338,target,"[(1108, 786)]",[],[1],[0.25],vertical,"(890.0, 262.0)",1.3833333333333333,0.213,1,2749.055,2
0,339,target,"[(1078, 790)]",[],[1],[0.5833333333333334],horizontal,"(390.0, 762.0)",1.0333333333333332,0.537,1,2754.29,2
0,340,target,"[(1093, 786)]",[],[1],[0.6166666666666667],horizontal,"(390.0, 762.0)",0.95,0.579,1,2759.728,2
0,341,catch,"[(1107, 779)]",[],[1],[],horizontal,"(390.0, 762.0)",1.4166666666666667,nan,1,2765.406,2
0,342,target,"[(1102, 785)]",[],[1],[0.5],horizontal,"(890.0, 262.0)",1.2333333333333334,0.46,1,2770.646,3
0,343,target,"[(1104, 779)]",[],[1],[0.55],horizontal,"(890.0, 762.0)",0.9333333333333333,0.512,1,2776.348,3
0,344,catch,"[(1101, 795)]",[],[1],[],vertical,"(390.0, 262.0)",1.3666666666666667,nan,1,2781.956,3
0,345,target,"[(1080, 789)]",[],[1],[0.7166666666666667],vertical,"(390.0, 762.0)",1.0,0.683,1,2787.522,3
0,346,target,"[(1077, 781)]",[],[1],[0.5666666666666667],horizontal,"(890.0, 262.0)",0.95,0.531,1,2793.476,3
0,347,target,"[(1109, 777)]",[],[1],[0.5166666666666666],vertical,"(890.0, 762.0)",0.6333333333333333,0.473,1,2799.24,3
0,348,target,"[(1081, 785)]",[],[1],[0.13333333333333333],horizontal,"(390.0, 762.0)",1.4833333333333334,0.101,0,2804.407,0
0,349,target,"[(1097, 786)]",[],[1],[0.5166666666666666],vertical,"(390.0, 262.0)",0.6333333333333333,0.48,1,2809.296,1
0,350,target,"[(1103, 765)]",[],[1],[0.5166666666666666],vertical,"(390.0, 262.0)",0.6666666666666666,0.478,1,2813.723,1
0,351,target,"[(1062, 796)]","[(1055, 802)]",[1],[0.4],vertical,"(390.0, 762.0)",,"('bar', 0.413)",0,2817.836,0
0,352,target,"[(1066, 818)]",[],[1],[],vertical,"(890.0, 762.0)",,"('cti', 1.291)",0,2820.514,0
0,353,target,"[(1047, 779)]",[],[1],[0.16666666666666666],horizontal,"(390.0, 762.0)",1.55,0.135,0,2861.315,0
0,354,target,"[(1080, 796)]",[],[1],[0.4666666666666667],horizontal,"(890.0, 262.0)",1.0666666666666667,0.432,1,2869.177,1
0,355,target,"[(1095, 773)]",[],[1],[0.85],vertical,"(390.0, 762.0)",0.6833333333333333,nan,0,2873.697,0
0,356,target,"[(1096, 770)]",[],[1],[0.5666666666666667],horizontal,"(890.0, 262.0)",1.15,0.525,1,2878.108,1
0,357,target,"[(1097, 773)]",[],[1],[0.35],horizontal,"(890.0, 262.0)",1.2333333333333334,0.317,1,2883.157,1
0,358,target,"[(1087, 795)]",[],[1],[0.3333333333333333],vertical,"(390.0, 262.0)",1.1833333333333333,0.293,1,2888.341,1
0,359,target,"[(1080, 767)]",[],[1],[0.5666666666666667],horizontal,"(890.0, 262.0)",0.5333333333333333,0.522,1,2893.474,2
0,360,target,"[(1075, 790)]",[],[1],[0.15],vertical,"(890.0, 262.0)",1.6333333333333333,0.118,0,2899.474,0
0,361,target,"[(1079, 760)]",[],[1],[0.1],horizontal,"(890.0, 762.0)",1.0666666666666667,0.068,0,2904.422,0
0,362,target,"[(1087, 789)]",[],[1],[0.7833333333333333],vertical,"(390.0, 762.0)",1.4166666666666667,0.738,1,2908.906,1
0,363,target,"[(1099, 800)]",[],[1],[0.5],horizontal,"(890.0, 262.0)",1.2666666666666666,0.459,1,2914.255,1
0,364,target,"[(1107, 783)]",[],[1],[0.48333333333333334],vertical,"(390.0, 262.0)",1.0833333333333333,0.447,1,2919.066,1
0,365,target,"[(1077, 794)]",[],[1],[0.85],horizontal,"(890.0, 262.0)",1.5166666666666666,nan,0,2924.408,0
0,366,target,"[(1062, 771)]",[],[1],[0.5666666666666667],vertical,"(390.0, 262.0)",1.1,0.522,1,2929.591,1
0,367,target,"[(1081, 782)]",[],[1],[0.05],vertical,"(890.0, 262.0)",1.6166666666666667,0.02,0,2934.823,0
0,368,catch,"[(1103, 766)]",[],[1],[],horizontal,"(890.0, 762.0)",,"('cti', 1.547),nan",0,2939.603,0
0,369,target,"[(1047, 770)]",[],[1],[0.7333333333333333],vertical,"(390.0, 262.0)",0.7166666666666667,0.692,1,2944.208,1
0,370,target,"[(1095, 777)]",[],[1],[0.55],vertical,"(890.0, 762.0)",1.0666666666666667,0.511,1,2958.741,1
0,371,target,"[(1086, 785)]",[],[1],[0.5333333333333333],vertical,"(390.0, 262.0)",0.6833333333333333,0.5,1,2963.846,1
0,372,target,"[(1091, 773)]",[],[1],[],horizontal,"(390.0, 262.0)",,"('cti', 1.289)",0,2968.474,0
0,373,target,"[(1106, 796)]",[],[1],[0.5833333333333334],vertical,"(890.0, 762.0)",0.5333333333333333,0.541,1,2973.33,1
0,374,target,"[(1103, 775)]",[],[1],[0.6166666666666667],vertical,"(890.0, 262.0)",0.8,0.578,1,2977.582,1
0,375,target,"[(1075, 767)]",[],[1],[0.85],vertical,"(390.0, 762.0)",1.2166666666666666,nan,0,2982.434,0
0,376,catch,"[(1070, 743), (1058, 773)]",[],"[0, 1]",[],vertical,"(390.0, 262.0)",1.6833333333333333,nan,1,2987.573,1
0,377,target,"[(1079, 790)]",[],[1],[0.21666666666666667],vertical,"(390.0, 262.0)",1.5333333333333332,0.184,0,2994.107,0
0,378,target,"[(1100, 784)]",[],[1],[0.48333333333333334],horizontal,"(890.0, 762.0)",1.1333333333333333,0.442,1,2998.535,1
0,379,catch,"[(1098, 769)]",[],[1],[],horizontal,"(890.0, 262.0)",1.4166666666666667,nan,1,3003.386,1
0,380,target,"[(1082, 782)]",[],[1],[0.5666666666666667],horizontal,"(890.0, 262.0)",0.5166666666666666,0.53,1,3008.015,1
0,381,target,"[(1080, 795)]",[],[1],[0.2833333333333333],vertical,"(390.0, 762.0)",1.35,0.248,1,3012.573,2
0,382,target,"[(1080, 780)]",[],[1],[0.5],vertical,"(890.0, 262.0)",0.8666666666666667,0.464,1,3018.151,2
0,383,catch,"[(1082, 775)]",[],[1],[],horizontal,"(390.0, 762.0)",1.55,nan,1,3023.181,2
0,384,target,"[(1105, 785)]",[],[1],[0.08333333333333333],vertical,"(390.0, 262.0)",1.4833333333333334,0.051,0,3028.614,0
0,385,target,"[(1084, 788)]",[],[1],[0.85],vertical,"(390.0, 762.0)",0.5333333333333333,nan,0,3033.47,0
0,386,catch,"[(1100, 756)]",[],[1],[],vertical,"(390.0, 762.0)",1.4666666666666666,nan,1,3037.592,1
0,387,target,"[(1102, 798)]",[],[1],[0.6],horizontal,"(890.0, 262.0)",1.2666666666666666,0.555,1,3042.441,1
0,388,target,"[(1101, 780)]",[],[1],[0.8],vertical,"(390.0, 762.0)",1.0,0.755,1,3047.342,1
0,389,target,"[(1081, 795)]",[],[1],[0.05],horizontal,"(890.0, 762.0)",1.65,0.02,0,3052.425,0
0,390,target,"[(1088, 775)]",[],[1],[0.4166666666666667],horizontal,"(390.0, 262.0)",0.8166666666666667,0.379,1,3057.075,1
0,391,target,"[(1098, 769)]",[],[1],[0.26666666666666666],horizontal,"(390.0, 262.0)",1.3,0.232,1,3061.975,1
0,392,target,"[(1094, 792)]",[],[1],[0.6333333333333333],horizontal,"(390.0, 762.0)",0.9166666666666666,0.592,1,3067.172,1
0,393,target,"[(1100, 777)]",[],[1],[0.55],vertical,"(890.0, 262.0)",1.0,0.51,1,3072.49,2
0,394,target,"[(1090, 766)]",[],[1],[0.55],horizontal,"(390.0, 262.0)",0.8833333333333333,0.51,1,3077.72,2
0,395,target,"[(1109, 798)]",[],[1],[0.85],vertical,"(390.0, 762.0)",1.0166666666666666,nan,0,3082.992,0
0,396,target,"[(1079, 779)]",[],[1],[0.55],horizontal,"(390.0, 762.0)",1.3,0.515,1,3087.491,1
0,397,target,"[(1084, 780)]",[],[1],[0.8166666666666667],vertical,"(390.0, 762.0)",0.9833333333333333,0.768,1,3093.107,1
0,398,target,"[(1103, 771)]",[],[1],[0.26666666666666666],vertical,"(890.0, 262.0)",1.4,0.232,1,3097.977,1
0,399,target,"[(1086, 784)]",[],[1],[0.5833333333333334],vertical,"(890.0, 762.0)",0.85,0.54,1,3102.792,2
0,400,target,"[(1100, 766)]",[],[1],[0.3],vertical,"(890.0, 262.0)",1.3666666666666667,0.261,1,3108.141,2
0,401,target,"[(1100, 770)]",[],[1],[0.26666666666666666],vertical,"(390.0, 762.0)",1.3833333333333333,0.231,1,3113.344,2
0,402,catch,"[(1101, 769)]",[],[1],[],vertical,"(890.0, 262.0)",1.5166666666666666,nan,1,3119.105,2
0,403,target,"[(1089, 762)]",[],[1],[0.06666666666666667],horizontal,"(390.0, 762.0)",1.5833333333333333,0.036,0,3124.347,0
0,404,target,"[(1066, 788)]",[],[1],[0.5666666666666667],horizontal,"(890.0, 762.0)",0.8166666666666667,0.524,1,3128.774,1
0,405,target,"[(1099, 773)]",[],[1],[0.5],vertical,"(890.0, 762.0)",1.4333333333333333,0.461,1,3133.557,1
0,406,target,"[(1082, 787)]",[],[1],[0.05],vertical,"(890.0, 762.0)",1.6666666666666667,0.018,0,3138.525,0
0,407,target,"[(1097, 781)]",[],[1],[0.55],vertical,"(390.0, 262.0)",0.5666666666666667,0.506,1,3143.121,1
0,408,catch,"[(1090, 783)]",[],[1],[],horizontal,"(390.0, 762.0)",1.5333333333333332,nan,1,3147.791,1
0,409,target,"[(1081, 772)]",[],[1],[0.05],horizontal,"(390.0, 262.0)",1.5833333333333333,0.018,0,3152.624,0
0,410,target,"[(1103, 802)]",[],[1],[0.5],vertical,"(890.0, 762.0)",1.1333333333333333,0.456,1,3157.275,1
0,411,target,"[(1105, 768)]",[],[1],[0.5666666666666667],horizontal,"(890.0, 762.0)",0.8166666666666667,0.527,1,3162.236,1
0,412,catch,"[(1081, 779)]",[],[1],[],vertical,"(390.0, 262.0)",1.5,nan,1,3166.992,1
0,413,target,"[(1084, 769)]",[],[1],[0.6833333333333333],horizontal,"(390.0, 762.0)",0.5,0.64,1,3171.813,2
0,414,catch,"[(1104, 777)]",[],[1],[],vertical,"(890.0, 262.0)",1.5,nan,1,3176.342,2
0,415,target,"[(1084, 774)]",[],[1],[0.5666666666666667],horizontal,"(390.0, 262.0)",0.5166666666666666,0.527,1,3181.417,2
0,416,target,"[(1086, 789)]",[],[1],[0.3833333333333333],horizontal,"(390.0, 262.0)",1.4,0.345,1,3186.607,2
0,417,target,"[(1104, 778)]",[],[1],[0.5833333333333334],vertical,"(390.0, 262.0)",1.0166666666666666,0.538,1,3192.025,2
0,418,target,"[(1087, 803)]",[],[1],[0.55],vertical,"(390.0, 262.0)",1.0333333333333332,0.503,1,3197.593,3
0,419,target,"[(1090, 793)]",[],[1],[0.21666666666666667],horizontal,"(390.0, 262.0)",1.4666666666666666,0.179,0,3203.557,0
0,420,target,"[(1081, 784)]",[],[1],[0.85],horizontal,"(390.0, 762.0)",0.9,nan,0,3208.675,0
0,421,target,"[(1060, 768)]",[],[1],[0.5166666666666666],vertical,"(390.0, 262.0)",1.4,0.475,1,3213.541,1
0,422,target,"[(1079, 788)]",[],[1],[0.5833333333333334],horizontal,"(390.0, 762.0)",0.7333333333333333,0.541,1,3223.351,1
0,423,catch,"[(1105, 785)]",[],[1],[],horizontal,"(390.0, 262.0)",1.5166666666666666,nan,1,3228.459,1
0,424,target,"[(1100, 790)]",[],[1],[0.6833333333333333],vertical,"(390.0, 762.0)",0.6333333333333333,0.647,1,3233.442,2
0,425,target,"[(1095, 799)]",[],[1],[0.35],horizontal,"(390.0, 262.0)",1.55,0.312,1,3238.408,2
0,426,target,"[(1090, 779)]",[],[1],[0.65],vertical,"(390.0, 262.0)",0.8666666666666667,0.605,1,3244.109,2
0,427,target,"[(1086, 782)]",[],[1],[0.6],vertical,"(890.0, 762.0)",0.7666666666666666,0.559,1,3249.297,2
0,428,catch,"[(1082, 767)]",[],[1],[],horizontal,"(390.0, 762.0)",1.5666666666666667,nan,1,3254.345,2
0,429,target,"[(1103, 788)]",[],[1],[0.5166666666666666],horizontal,"(390.0, 262.0)",0.8333333333333334,0.473,1,3259.685,3
0,430,catch,"[(1079, 793)]",[],[1],[],vertical,"(890.0, 762.0)",1.5,nan,1,3264.892,3
0,431,target,"[(1104, 781)]",[],[1],[0.43333333333333335],vertical,"(390.0, 262.0)",1.1333333333333333,0.391,1,3271.075,3
0,432,target,"[(1086, 785)]",[],[1],[0.55],vertical,"(890.0, 762.0)",0.6833333333333333,0.51,1,3277.008,3
0,433,target,"[(1099, 798)]",[],[1],[0.5],horizontal,"(390.0, 262.0)",1.1666666666666667,0.459,1,3282.491,3
0,434,target,"[(1105, 787)]",[],[1],[],horizontal,"(890.0, 762.0)",,"('cti', 1.252)",0,3288.503,0
0,435,target,"[(1073, 804)]",[],[1],[0.6333333333333333],horizontal,"(890.0, 262.0)",1.0666666666666667,0.594,1,3293.227,1
0,436,target,"[(1078, 770)]",[],[1],[0.5666666666666667],horizontal,"(890.0, 762.0)",0.6166666666666667,0.527,1,3299.249,1
0,437,target,"[(1106, 783)]",[],[1],[0.21666666666666667],vertical,"(390.0, 762.0)",1.6666666666666667,0.18,0,3303.517,0
0,438,catch,"[(1086, 780)]",[],[1],[],vertical,"(890.0, 262.0)",1.4,nan,1,3308.223,1
0,439,target,"[(1105, 773)]",[],[1],[0.65],vertical,"(890.0, 262.0)",0.85,0.608,1,3313.049,1
0,440,target,"[(1104, 776)]",[],[1],[0.55],vertical,"(890.0, 262.0)",0.8166666666666667,0.505,1,3317.343,1
0,441,target,"[(1109, 789)]",[],[1],[],horizontal,"(890.0, 262.0)",,"('cti', 1.25)",0,3322.0,0
0,442,target,"[(1085, 786)]",[],[1],[0.7166666666666667],horizontal,"(890.0, 262.0)",0.6,0.692,1,3326.586,1
0,443,catch,"[(1090, 769)]",[],[1],[],horizontal,"(890.0, 762.0)",,"('cti', 1.573),nan",0,3331.408,0
0,444,catch,"[(1075, 770)]",[],[1],[],horizontal,"(890.0, 762.0)",,"('cti', 1.633),nan",0,3336.149,0
0,445,target,"[(1084, 780)]",[],[1],[0.55],horizontal,"(390.0, 262.0)",0.6833333333333333,0.507,1,3340.518,1
0,446,target,"[(1107, 794)]",[],[1],[0.85],vertical,"(390.0, 762.0)",0.75,nan,0,3345.164,0
0,447,target,"[(1108, 768)]",[],[1],[0.31666666666666665],horizontal,"(390.0, 262.0)",1.4833333333333334,0.281,1,3349.66,1
0,448,target,"[(1104, 778)]",[],[1],[0.5],vertical,"(890.0, 262.0)",0.95,0.459,1,3355.159,1
0,449,target,"[(1114, 782)]",[],[1],[0.45],horizontal,"(890.0, 762.0)",1.25,0.416,1,3360.042,1
0,450,target,"[(1110, 790)]",[],[1],[0.5833333333333334],vertical,"(890.0, 262.0)",0.85,0.542,1,3365.243,2
0,451,catch,"[(1105, 785)]",[],[1],[],horizontal,"(890.0, 262.0)",1.5833333333333333,nan,1,3370.262,2
0,452,target,"[(1118, 795)]",[],[1],[0.2833333333333333],vertical,"(390.0, 262.0)",1.5166666666666666,0.249,1,3375.558,2
0,453,target,"[(1103, 780)]",[],[1],[],horizontal,"(390.0, 262.0)",,"('cti', 1.281)",0,3381.358,0
0,454,target,"[(1087, 773)]",[],[1],[0.85],horizontal,"(390.0, 762.0)",0.7166666666666667,nan,0,3386.323,0
0,455,target,"[(1067, 788)]",[],[1],[0.85],horizontal,"(890.0, 762.0)",0.5666666666666667,nan,0,3390.421,0
0,456,target,"[(1100, 747), (1094, 791)]",[],"[0, 1]",[0.5166666666666666],vertical,"(890.0, 262.0)",1.2833333333333332,0.479,1,3394.892,1
0,457,catch,"[(1114, 774)]",[],[1],[],horizontal,"(890.0, 262.0)",1.4333333333333333,nan,1,3401.142,1
0,458,target,"[(1106, 793)]",[],[1],[0.5666666666666667],vertical,"(390.0, 762.0)",0.5,0.523,1,3405.986,1
0,459,target,"[(1106, 799)]",[],[1],[0.6],horizontal,"(390.0, 262.0)",1.0333333333333332,0.562,1,3410.483,2
0,460,target,"[(1099, 785)]",[],[1],[0.05],vertical,"(390.0, 262.0)",1.15,0.02,0,3415.643,0
0,461,catch,"[(1072, 785)]",[],[1],[],vertical,"(390.0, 762.0)",1.5833333333333333,nan,1,3419.725,1
0,462,target,"[(1100, 776)]",[],[1],[0.65],vertical,"(390.0, 262.0)",0.5,0.616,1,3425.127,1
0,463,target,"[(1101, 774)]",[],[1],[0.26666666666666666],horizontal,"(890.0, 262.0)",1.55,0.231,1,3429.356,1
0,464,target,"[(1095, 792)]",[],[1],[0.43333333333333335],horizontal,"(890.0, 762.0)",1.35,0.401,1,3434.343,2
0,465,target,"[(1081, 772)]",[],[1],[0.48333333333333334],vertical,"(390.0, 262.0)",1.4,0.444,1,3439.592,2
0,466,target,"[(1109, 770)]",[],[1],[0.45],horizontal,"(390.0, 762.0)",1.2666666666666666,0.418,1,3445.399,2
0,467,target,"[(1082, 776)]",[],[1],[0.6833333333333333],horizontal,"(890.0, 762.0)",1.0333333333333332,0.639,1,3450.541,2
0,468,target,"[(1086, 784)]",[],[1],[0.5333333333333333],horizontal,"(390.0, 762.0)",1.25,0.487,1,3456.192,2
0,469,target,"[(1103, 755)]",[],[1],[0.5666666666666667],vertical,"(390.0, 762.0)",1.0833333333333333,0.529,1,3461.725,3
0,470,target,"[(1087, 785)]",[],[1],[0.85],vertical,"(390.0, 762.0)",0.5833333333333334,nan,0,3467.157,0
0,471,catch,"[(1094, 785)]",[],[1],[],vertical,"(890.0, 762.0)",1.4166666666666667,nan,1,3471.22,1
0,472,catch,"[(1079, 785)]",[],[1],[],vertical,"(890.0, 262.0)",1.5666666666666667,nan,1,3476.562,1
0,473,target,"[(1114, 769)]",[],[1],[0.5166666666666666],horizontal,"(390.0, 762.0)",1.2333333333333334,0.485,1,3481.612,1
0,474,target,"[(1106, 763)]",[],[1],[0.48333333333333334],vertical,"(890.0, 762.0)",1.4166666666666667,0.446,1,3486.442,2
0,475,catch,"[(1090, 772)]",[],[1],[],horizontal,"(890.0, 762.0)",1.35,nan,1,3492.067,2
0,476,catch,"[(1117, 774)]",[],[1],[],vertical,"(390.0, 762.0)",1.6,nan,1,3497.292,2
0,477,catch,"[(1109, 788)]",[],[1],[],vertical,"(390.0, 262.0)",1.3666666666666667,nan,1,3502.714,2
0,478,catch,"[(1108, 775)]",[],[1],[],horizontal,"(390.0, 262.0)",1.4666666666666666,nan,1,3507.736,2
0,479,target,"[(1102, 782)]",[],[1],[0.15],vertical,"(390.0, 762.0)",1.6666666666666667,0.118,0,3513.043,0
0,480,target,"[(1110, 770)]",[],[1],[0.7166666666666667],vertical,"(890.0, 262.0)",0.9166666666666666,0.669,1,3517.878,1
0,481,target,"[(1119, 800)]",[],[1],[0.6166666666666667],vertical,"(390.0, 262.0)",0.6333333333333333,0.572,1,3522.865,1
0,482,target,"[(1079, 811)]",[],[1],[0.3333333333333333],horizontal,"(890.0, 762.0)",1.45,0.299,1,3527.522,1
0,483,target,"[(1104, 765)]",[],[1],[0.55],horizontal,"(890.0, 262.0)",0.9,0.512,1,3533.65,2
0,484,target,"[(1092, 800)]",[],[1],[0.3333333333333333],horizontal,"(390.0, 262.0)",1.45,0.294,1,3538.991,2
0,485,target,"[(1087, 773)]",[],[1],[0.6166666666666667],vertical,"(890.0, 262.0)",0.8166666666666667,0.576,1,3544.581,2
0,486,target,"[(1106, 776)]",[],[1],[0.1],horizontal,"(390.0, 262.0)",1.4,0.068,0,3549.577,0
0,487,target,"[(1081, 790)]",[],[1],[0.55],horizontal,"(890.0, 262.0)",1.1333333333333333,0.51,1,3554.375,1
0,488,target,"[(1086, 770)]",[],[1],[0.5833333333333334],horizontal,"(390.0, 262.0)",0.6166666666666667,0.543,1,3559.53,1
0,489,target,"[(1106, 775)]",[],[1],[0.2],horizontal,"(890.0, 762.0)",1.4166666666666667,0.168,0,3563.927,0
0,490,target,"[(1109, 773)]",[],[1],[0.5166666666666666],horizontal,"(390.0, 262.0)",1.1333333333333333,0.481,1,3568.461,1
0,491,target,"[(1094, 787)]",[],[1],[0.2833333333333333],vertical,"(390.0, 762.0)",1.6333333333333333,0.246,1,3573.169,1
0,492,target,"[(1100, 788)]",[],[1],[0.5166666666666666],horizontal,"(390.0, 262.0)",1.25,0.476,1,3578.234,1
0,493,target,"[(1095, 782)]",[],[1],[0.35],horizontal,"(390.0, 262.0)",1.3666666666666667,0.314,1,3583.035,2
0,494,target,"[(1106, 778)]",[],[1],[0.3333333333333333],horizontal,"(390.0, 262.0)",0.9833333333333333,0.299,1,3588.512,2
0,495,target,"[(1060, 777)]",[],[1],[0.5],vertical,"(890.0, 762.0)",1.2333333333333334,0.459,1,3593.394,2
0,496,target,"[(1109, 779)]",[],[1],[0.85],horizontal,"(890.0, 762.0)",0.5166666666666666,nan,0,3599.043,0
0,497,target,"[(1071, 787)]",[],[1],[0.5166666666666666],horizontal,"(390.0, 262.0)",0.9,0.476,1,3603.011,1
0,498,target,"[(1071, 796)]",[],[1],[0.6],vertical,"(390.0, 262.0)",0.5,0.557,1,3607.814,1
0,499,target,"[(1080, 789)]",[],[1],[0.15],vertical,"(390.0, 262.0)",1.4833333333333334,0.12,0,3612.194,0
0,500,target,"[(1099, 773)]",[],[1],[0.5166666666666666],vertical,"(890.0, 262.0)",0.85,0.479,1,3617.327,1
0,501,target,"[(1100, 766)]",[],[1],[0.6],vertical,"(890.0, 762.0)",0.7833333333333333,0.563,1,3621.861,1
0,502,target,"[(1104, 788)]",[],[1],[0.6833333333333333],vertical,"(390.0, 762.0)",1.0666666666666667,0.656,1,3626.661,1
0,503,target,"[(1109, 778)]",[],[1],[0.6],vertical,"(390.0, 262.0)",0.75,0.562,1,3631.627,2
0,504,target,"[(1104, 770)]",[],[1],[0.06666666666666667],horizontal,"(890.0, 762.0)",1.5333333333333332,0.035,0,3636.878,0
0,505,target,"[(1103, 773)]",[],[1],[0.5333333333333333],vertical,"(890.0, 262.0)",1.3333333333333333,0.497,1,3641.318,1
0,506,target,"[(1104, 789)]",[],[1],[0.7],vertical,"(390.0, 762.0)",1.2333333333333334,0.658,1,3646.016,1
0,507,target,"[(1110, 786)]",[],[1],[0.18333333333333332],horizontal,"(390.0, 262.0)",1.5,0.151,0,3651.235,0
0,508,target,"[(1083, 769)]",[],[1],[0.6166666666666667],vertical,"(890.0, 762.0)",1.55,0.571,1,3656.06,1
0,509,target,"[(1096, 782)]",[],[1],[0.6166666666666667],horizontal,"(890.0, 762.0)",0.7333333333333333,0.573,1,3661.394,1
0,510,target,"[(1067, 790)]",[],[1],[0.5666666666666667],horizontal,"(390.0, 762.0)",0.95,0.524,1,3665.828,1
0,511,target,"[(1097, 791)]",[],[1],[0.6],horizontal,"(390.0, 262.0)",1.2166666666666666,0.56,1,3690.421,2
0,512,target,"[(1078, 779)]",[],[1],[0.5833333333333334],vertical,"(890.0, 762.0)",0.9833333333333333,0.544,1,3696.016,2
0,513,target,"[(1111, 781)]",[],[1],[0.3833333333333333],vertical,"(390.0, 262.0)",1.2166666666666666,0.35,1,3701.145,2
0,514,target,"[(1107, 787)]",[],[1],[0.85],vertical,"(390.0, 762.0)",0.7166666666666667,nan,0,3706.34,0
0,515,target,"[(1099, 799)]",[],[1],[0.5166666666666666],horizontal,"(390.0, 762.0)",1.1666666666666667,0.478,1,3710.778,1
0,516,target,"[(1106, 775)]",[],[1],[0.6],horizontal,"(390.0, 762.0)",0.7833333333333333,0.554,1,3716.837,1
0,517,target,"[(1109, 779)]",[],[1],[0.5833333333333334],horizontal,"(390.0, 762.0)",0.8,0.544,1,3721.712,1
0,518,catch,"[(1103, 790)]",[],[1],[],vertical,"(890.0, 762.0)",1.6,nan,1,3726.177,2
0,519,target,"[(1122, 769)]",[],[1],[0.7166666666666667],horizontal,"(390.0, 762.0)",0.9333333333333333,0.677,1,3731.861,2
0,520,target,"[(1123, 768)]",[],[1],[0.45],horizontal,"(390.0, 262.0)",1.3833333333333333,0.413,1,3736.972,2
0,521,target,"[(1101, 785)]",[],[1],[0.65],vertical,"(390.0, 762.0)",0.7333333333333333,0.607,1,3742.628,2
0,522,target,"[(1104, 790)]",[],[1],[0.48333333333333334],vertical,"(390.0, 262.0)",0.6166666666666667,0.449,1,3747.611,2
0,523,target,"[(1091, 787)]",[],[1],[0.43333333333333335],vertical,"(890.0, 762.0)",1.4833333333333334,0.404,1,3752.735,3
0,524,target,"[(1090, 801)]",[],[1],[],vertical,"(890.0, 262.0)",,"('cti', 1.627)",0,3758.828,0
0,525,target,"[(1109, 774)]",[],[1],[0.5833333333333334],vertical,"(890.0, 262.0)",0.6,0.536,1,3763.697,1
0,526,target,"[(1089, 762)]",[],[1],[0.85],horizontal,"(390.0, 262.0)",0.5,nan,0,3768.562,0
0,527,target,"[(1112, 760)]",[],[1],[0.5333333333333333],horizontal,"(390.0, 262.0)",0.6666666666666666,0.489,1,3772.996,1
0,528,target,"[(1107, 794)]",[],[1],[0.5333333333333333],vertical,"(390.0, 262.0)",1.3833333333333333,0.494,1,3777.214,1
0,529,target,"[(1107, 767)]",[],[1],[0.85],vertical,"(390.0, 762.0)",1.05,nan,0,3782.75,0
0,530,target,"[(1102, 769)]",[],[1],[0.5166666666666666],vertical,"(890.0, 762.0)",1.05,0.474,1,3787.561,1
0,531,target,"[(1103, 773)]",[],[1],[0.6],vertical,"(390.0, 262.0)",0.6333333333333333,0.558,1,3792.551,1
0,532,target,"[(1110, 788)]",[],[1],[0.16666666666666666],horizontal,"(890.0, 262.0)",1.5,0.134,0,3797.079,0
0,533,target,"[(1104, 805)]",[],[1],[0.55],vertical,"(390.0, 262.0)",1.05,0.511,1,3801.609,1
0,534,target,"[(1119, 758)]",[],[1],[0.6666666666666666],horizontal,"(390.0, 762.0)",0.65,0.615,1,3806.346,1
0,535,target,"[(1099, 809)]",[],[1],[0.75],horizontal,"(890.0, 762.0)",0.7833333333333333,0.703,1,3810.856,1
0,536,target,"[(1104, 787)]",[],[1],[0.5],horizontal,"(390.0, 762.0)",1.35,0.458,1,3816.262,2
0,537,target,"[(1109, 756)]",[],[1],[0.35],vertical,"(890.0, 762.0)",1.5166666666666666,0.31,1,3821.725,2
0,538,catch,"[(1119, 788)]",[],[1],[],vertical,"(890.0, 762.0)",1.6,"('cti', 1.581),nan",0,3827.495,0
0,539,target,"[(1101, 780)]",[],[1],[0.48333333333333334],vertical,"(390.0, 762.0)",1.3166666666666667,0.444,1,3832.245,1
0,540,target,"[(1086, 786)]",[],[1],[0.31666666666666665],vertical,"(890.0, 762.0)",1.3833333333333333,0.277,1,3837.228,1
0,541,target,"[(1109, 777)]",[],[1],[0.5],vertical,"(890.0, 262.0)",1.3666666666666667,0.456,1,3842.161,1
0,542,target,"[(1095, 788)]",[],[1],[0.85],vertical,"(390.0, 762.0)",0.5166666666666666,nan,0,3846.896,0
0,543,target,"[(1110, 755)]",[],[1],[0.5833333333333334],horizontal,"(390.0, 262.0)",1.1833333333333333,0.54,1,3851.496,1
0,544,target,"[(1109, 785)]",[],[1],[0.7166666666666667],horizontal,"(890.0, 762.0)",1.1,0.677,1,3856.87,1
0,545,target,"[(1100, 809)]",[],[1],[0.35],vertical,"(890.0, 262.0)",1.4666666666666666,0.312,1,3862.067,1
0,546,target,"[(1087, 806)]",[],[1],[0.6333333333333333],horizontal,"(390.0, 762.0)",0.6333333333333333,0.589,1,3867.946,2
0,547,target,"[(1098, 777)]",[],[1],[0.85],vertical,"(390.0, 762.0)",1.0,nan,0,3873.444,0
0,548,target,"[(1107, 786)]",[],[1],[0.5333333333333333],horizontal,"(890.0, 262.0)",1.15,0.494,1,3878.536,1
0,549,target,"[(1104, 776)]",[],[1],[0.3333333333333333],vertical,"(890.0, 762.0)",1.35,0.3,1,3883.637,1
0,550,target,"[(1109, 761)]",[],[1],[0.85],vertical,"(390.0, 762.0)",0.75,nan,0,3888.828,0
0,551,target,"[(1059, 822)]",[],[1],[0.4166666666666667],horizontal,"(390.0, 762.0)",1.45,0.384,1,3893.318,1
0,552,target,"[(1101, 790)]",[],[1],[0.85],vertical,"(390.0, 262.0)",1.6666666666666667,"('cti', 1.674),nan",0,4236.498,0
0,553,target,"[(1055, 793)]",[],[1],[0.5333333333333333],horizontal,"(890.0, 262.0)",0.7,0.49,1,4242.158,1
0,554,target,"[(1101, 779)]",[],[1],[0.55],vertical,"(390.0, 262.0)",1.2333333333333334,0.51,1,4258.271,1
0,555,target,"[(1116, 775)]",[],[1],[0.5333333333333333],vertical,"(890.0, 262.0)",0.6333333333333333,0.494,1,4263.776,1
0,556,target,"[(1081, 784)]",[],[1],[0.5333333333333333],vertical,"(390.0, 762.0)",1.3833333333333333,0.494,1,4268.413,2
0,557,target,"[(1092, 803)]",[],[1],[0.85],vertical,"(890.0, 762.0)",1.2166666666666666,nan,0,4274.181,0
0,558,target,"[(1080, 782)]",[],[1],[0.85],vertical,"(390.0, 262.0)",1.3333333333333333,nan,0,4279.081,0
0,559,catch,"[(1075, 789)]",[],[1],[],vertical,"(890.0, 262.0)",1.4,nan,1,4284.314,1
0,560,target,"[(1090, 805)]",[],[1],[0.55],vertical,"(890.0, 762.0)",0.9833333333333333,0.51,1,4289.105,1
0,561,target,"[(1095, 788)]",[],[1],[0.85],horizontal,"(390.0, 762.0)",0.7666666666666666,nan,0,4293.579,0
0,562,target,"[(1109, 868)]",[],[1],[0.85],vertical,"(390.0, 762.0)",1.1,nan,0,4298.498,0
0,563,catch,"[(1072, 793)]",[],[1],[],horizontal,"(390.0, 762.0)",1.3833333333333333,nan,1,4305.081,1
0,564,target,"[(1061, 808)]",[],[1],[0.6166666666666667],horizontal,"(890.0, 762.0)",1.4833333333333334,0.574,1,4309.925,1
0,565,target,"[(1101, 786)]",[],[1],[0.85],vertical,"(390.0, 762.0)",0.55,nan,0,4317.38,0
0,566,target,"[(1092, 801)]",[],[1],[0.5],vertical,"(890.0, 262.0)",1.55,0.459,1,4322.047,1
0,567,target,"[(1106, 787)]",[],[1],[0.5833333333333334],horizontal,"(390.0, 262.0)",0.7666666666666666,0.551,1,4327.496,1
0,568,target,"[(1089, 784)]",[],[1],[0.65],vertical,"(390.0, 762.0)",1.1,0.613,1,4332.642,1
0,569,target,"[(1099, 800)]",[],[1],[0.55],vertical,"(390.0, 262.0)",0.6,0.514,1,4337.714,2
0,570,target,"[(1104, 776)]",[],[1],[0.55],vertical,"(390.0, 262.0)",0.7666666666666666,0.518,1,4342.38,2
0,571,target,"[(1121, 777)]",[],[1],[0.5],horizontal,"(390.0, 262.0)",0.7333333333333333,0.475,1,4347.182,2
0,572,target,"[(1107, 799)]",[],[1],[0.5166666666666666],vertical,"(390.0, 262.0)",0.65,0.48,1,4352.047,2
0,573,target,"[(1104, 782)]",[],[1],[0.85],vertical,"(390.0, 762.0)",0.5666666666666667,nan,0,4357.072,0
0,574,target,"[(1087, 792)]",[],[1],[0.6666666666666666],vertical,"(890.0, 762.0)",0.9333333333333333,0.632,1,4361.595,1
0,575,target,"[(1103, 805)]",[],[1],[0.65],horizontal,"(890.0, 262.0)",0.5333333333333333,0.606,1,4366.448,1
0,576,catch,"[(1112, 790)]",[],[1],[],horizontal,"(390.0, 262.0)",1.45,nan,1,4370.93,1
0,577,target,"[(1108, 800)]",[],[1],[0.85],horizontal,"(390.0, 262.0)",0.6166666666666667,nan,0,4376.148,0
0,578,target,"[(1098, 784)]",[],[1],[0.5333333333333333],vertical,"(390.0, 262.0)",1.5,0.492,1,4381.03,1
0,579,target,"[(1104, 769)]",[],[1],[0.5833333333333334],vertical,"(890.0, 762.0)",1.2,0.543,1,4386.149,1
0,580,target,"[(1100, 785)]",[],[1],[0.08333333333333333],horizontal,"(390.0, 762.0)",1.6666666666666667,0.052,0,4391.227,0
0,581,target,"[(1100, 789)]",[],[1],[0.6],vertical,"(890.0, 762.0)",1.05,0.554,1,4395.74,1
0,582,target,"[(1091, 807)]",[],[1],[0.21666666666666667],vertical,"(890.0, 762.0)",1.5,0.182,0,4400.464,0
0,583,target,"[(581, 101), (658, 294), (842, 429), (842, 288), (852, 447), (842, 447), (1061, 836)]",[],"[0, 0, 0, 0, 0, 0, 1]",[0.4666666666666667],horizontal,"(390.0, 262.0)",0.9,0.426,1,4405.282,1
0,584,target,"[(1070, 805)]",[],[1],[0.5166666666666666],horizontal,"(890.0, 262.0)",1.1166666666666667,0.484,1,4962.451,1
0,585,target,"[(1075, 783)]",[],[1],[0.2833333333333333],vertical,"(390.0, 762.0)",1.4333333333333333,0.25,1,4967.227,1
0,586,target,"[(1106, 771)]",[],[1],[],vertical,"(390.0, 262.0)",,"('cti', 1.431)",0,4971.923,0
0,587,target,"[(1095, 767)]",[],[1],[0.5],vertical,"(390.0, 762.0)",1.1333333333333333,0.461,1,4976.827,1
0,588,target,"[(1092, 766)]",[],[1],[0.3],vertical,"(890.0, 762.0)",1.6333333333333333,0.264,1,4981.651,1
0,589,target,"[(1042, 781)]",[],[1],[0.6166666666666667],horizontal,"(390.0, 262.0)",1.0333333333333332,0.584,1,4987.063,1
0,590,catch,"[(1074, 769)]",[],[1],[],horizontal,"(390.0, 762.0)",1.6833333333333333,nan,1,4992.41,2
0,591,target,"[(1081, 776)]",[],[1],[0.5333333333333333],horizontal,"(890.0, 262.0)",0.5166666666666666,0.496,1,4998.088,2
0,592,catch,"[(1097, 783)]",[],[1],[],horizontal,"(390.0, 262.0)",,"('cti', 1.626),nan",0,5003.147,0
0,593,target,"[(1079, 780)]",[],[1],[0.55],vertical,"(390.0, 762.0)",1.1833333333333333,0.517,1,5008.264,1
0,594,target,"[(1119, 785)]",[],[1],[0.6],vertical,"(890.0, 262.0)",0.6333333333333333,0.569,1,5013.25,1
0,595,catch,"[(1082, 780)]",[],[1],[],vertical,"(890.0, 762.0)",1.5333333333333332,nan,1,5017.765,1
0,596,target,"[(1083, 774)]",[],[1],[0.15],vertical,"(890.0, 262.0)",1.0333333333333332,0.116,0,5022.925,0
0,597,target,"[(1087, 792)]",[],[1],[0.3833333333333333],vertical,"(390.0, 262.0)",1.35,0.348,1,5026.935,1
0,598,target,"[(1081, 792)]",[],[1],[0.85],vertical,"(390.0, 262.0)",0.7,nan,0,5036.518,0
0,599,target,"[(1075, 784)]",[],[1],[0.48333333333333334],vertical,"(890.0, 262.0)",0.9,0.442,1,5040.999,1
0,600,catch,"[(1104, 775)]",[],[1],[],vertical,"(390.0, 762.0)",1.45,nan,1,5046.01,1
0,601,target,"[(1107, 805)]",[],[1],[0.5333333333333333],vertical,"(890.0, 262.0)",0.7833333333333333,0.501,1,5050.463,1
0,602,target,"[(1094, 805)]",[],[1],[0.85],vertical,"(890.0, 262.0)",0.6666666666666666,nan,0,5055.335,0
0,603,target,"[(1061, 780)]",[],[1],[0.5666666666666667],vertical,"(890.0, 262.0)",1.2666666666666666,0.53,1,5059.782,1
0,604,target,"[(1082, 763)]",[],[1],[0.55],vertical,"(890.0, 262.0)",0.9666666666666667,0.508,1,5064.902,1
0,605,target,"[(1101, 790)]",[],[1],[0.13333333333333333],horizontal,"(890.0, 262.0)",1.4666666666666666,0.102,0,5069.599,0
0,606,target,"[(1079, 766)]",[],[1],[0.5166666666666666],horizontal,"(390.0, 262.0)",1.2166666666666666,0.478,1,5074.44,1
0,607,target,"[(1080, 793)]",[],[1],[0.3],vertical,"(390.0, 262.0)",1.5833333333333333,0.267,1,5079.3,1
0,608,target,"[(1082, 782)]",[],[1],[0.5166666666666666],vertical,"(390.0, 262.0)",1.0,0.476,1,5084.484,1
0,609,catch,"[(1077, 770)]",[],[1],[],vertical,"(390.0, 262.0)",1.35,nan,1,5089.367,2
0,610,target,"[(1071, 766)]",[],[1],[0.4666666666666667],horizontal,"(390.0, 262.0)",1.3,0.433,1,5094.788,2
0,611,target,"[(1107, 774)]",[],[1],[0.6],vertical,"(890.0, 762.0)",0.8166666666666667,0.561,1,5100.167,2
0,612,target,"[(1104, 786)]",[],[1],[0.5333333333333333],horizontal,"(390.0, 262.0)",0.6833333333333333,0.496,1,5104.91,2
0,613,catch,"[(1062, 783)]",[],[1],[],vertical,"(390.0, 762.0)",1.4,nan,1,5109.752,2
0,614,target,"[(1076, 774)]",[],[1],[0.5166666666666666],horizontal,"(390.0, 762.0)",0.6666666666666666,0.474,1,5114.917,3
0,615,catch,"[(1076, 760)]",[],[1],[],horizontal,"(890.0, 762.0)",1.4833333333333334,nan,1,5120.104,3
0,616,target,"[(1104, 780)]",[],[1],[0.5],horizontal,"(390.0, 262.0)",1.3,0.457,1,5125.685,3
0,617,target,"[(1099, 770)]",[],[1],[0.48333333333333334],vertical,"(390.0, 262.0)",1.3166666666666667,0.44,1,5131.485,3
0,618,target,"[(1104, 781)]",[],[1],[0.55],horizontal,"(890.0, 762.0)",1.4833333333333334,0.509,1,5137.335,3
0,619,target,"[(1092, 784)]",[],[1],[0.4666666666666667],vertical,"(890.0, 762.0)",1.2166666666666666,0.429,1,5143.519,3
0,620,target,"[(1099, 765)]",[],[1],[0.6166666666666667],horizontal,"(390.0, 262.0)",0.6833333333333333,0.57,1,5149.369,3
0,621,target,"[(1099, 787)]",[],[1],[0.8166666666666667],horizontal,"(890.0, 762.0)",1.3,0.772,1,5154.268,3
0,622,target,"[(1094, 790)]",[],[1],[0.08333333333333333],horizontal,"(390.0, 262.0)",1.35,0.053,0,5160.178,0
0,623,target,"[(1061, 795)]",[],[1],[],horizontal,"(390.0, 262.0)",,"('cti', 1.555)",0,5164.905,0
0,624,target,"[(1075, 780)]",[],[1],[0.6833333333333333],vertical,"(390.0, 262.0)",1.1,0.643,1,5169.835,1
0,625,target,"[(1106, 770)]",[],[1],[0.16666666666666666],horizontal,"(890.0, 762.0)",1.4666666666666666,0.138,0,5174.906,0
0,626,target,"[(1085, 783)]",[],[1],[0.6],vertical,"(390.0, 262.0)",0.8666666666666667,0.553,1,5180.024,1
0,627,target,"[(1090, 772)]",[],[1],[0.55],horizontal,"(390.0, 762.0)",0.9333333333333333,0.511,1,5184.864,1
0,628,target,"[(1084, 757)]",[],[1],[0.06666666666666667],horizontal,"(890.0, 262.0)",1.6833333333333333,0.036,0,5189.383,0
0,629,target,"[(1118, 769)]",[],[1],[0.5166666666666666],vertical,"(890.0, 262.0)",0.75,0.471,1,5194.083,1
0,630,target,"[(1110, 780)]",[],[1],[],vertical,"(390.0, 762.0)",,"('cti', 1.185)",0,5198.419,0
0,631,catch,"[(1077, 770)]",[],[1],[],vertical,"(390.0, 262.0)",1.65,nan,1,5202.394,1
0,632,target,"[(1124, 776)]",[],[1],[0.6333333333333333],vertical,"(890.0, 762.0)",0.7,0.587,1,5206.951,1
0,633,target,"[(1078, 772)]",[],[1],[0.5666666666666667],vertical,"(390.0, 762.0)",0.6666666666666666,0.523,1,5211.417,1
0,634,target,"[(1106, 780)]",[],[1],[0.3333333333333333],horizontal,"(890.0, 762.0)",1.4,0.295,1,5215.802,2
0,635,target,"[(1109, 785)]",[],[1],[0.6333333333333333],horizontal,"(890.0, 762.0)",0.5833333333333334,0.589,1,5221.585,2
0,636,target,"[(1080, 772)]",[],[1],[0.3333333333333333],vertical,"(890.0, 762.0)",1.2833333333333332,0.298,1,5226.719,2
0,637,target,"[(1085, 777)]",[],[1],[0.85],vertical,"(390.0, 762.0)",0.6666666666666666,nan,0,5232.33,0
0,638,target,"[(1069, 787)]",[],[1],[0.13333333333333333],vertical,"(890.0, 262.0)",1.6,0.101,0,5236.662,0
0,639,target,"[(1078, 782)]",[],[1],[],vertical,"(390.0, 262.0)",,"('cti', 1.521)",0,5241.386,0
0,640,target,"[(1104, 774)]",[],[1],[0.6],horizontal,"(890.0, 262.0)",1.0333333333333332,0.559,1,5246.369,1
0,641,target,"[(1093, 775)]",[],[1],[0.5833333333333334],horizontal,"(390.0, 762.0)",1.1833333333333333,0.54,1,5251.002,1
0,642,target,"[(1127, 781)]",[],[1],[0.35],vertical,"(390.0, 262.0)",1.3833333333333333,0.311,1,5256.369,1
0,643,target,"[(1083, 791)]",[],[1],[0.5166666666666666],horizontal,"(390.0, 262.0)",1.0,0.475,1,5261.494,2
0,644,target,"[(1104, 778)]",[],[1],[0.26666666666666666],horizontal,"(390.0, 262.0)",1.4666666666666666,0.23,1,5266.335,2
0,645,target,"[(1098, 770)]",[],[1],[0.48333333333333334],vertical,"(390.0, 262.0)",1.1666666666666667,0.438,1,5271.368,2
0,646,target,"[(1060, 782)]",[],[1],[0.25],horizontal,"(390.0, 262.0)",1.1666666666666667,0.214,1,5276.373,2
0,647,target,"[(1102, 779)]",[],[1],[0.06666666666666667],horizontal,"(390.0, 262.0)",1.3666666666666667,0.035,0,5282.021,0
0,648,target,"[(1113, 774)]",[],[1],[0.48333333333333334],vertical,"(390.0, 762.0)",1.2333333333333334,0.446,1,5286.802,1
0,649,target,"[(1081, 787)]",[],[1],[0.55],vertical,"(390.0, 262.0)",0.7333333333333333,0.509,1,5291.953,1
0,650,target,"[(1075, 811)]",[],[1],[0.6],horizontal,"(390.0, 262.0)",0.7166666666666667,0.557,1,5296.768,1
0,651,catch,"[(1080, 775)]",[],[1],[],horizontal,"(890.0, 762.0)",1.55,nan,1,5301.718,2
0,652,catch,"[(1090, 760)]",[],[1],[],vertical,"(390.0, 762.0)",1.6,nan,1,5306.774,2
0,653,target,"[(1085, 776)]",[],[1],[0.25],vertical,"(890.0, 262.0)",1.6666666666666667,0.217,1,5312.118,2
0,654,target,"[(1102, 781)]",[],[1],[0.85],vertical,"(390.0, 762.0)",0.55,nan,0,5317.824,0
0,655,target,"[(1078, 771)]",[],[1],[0.4],vertical,"(890.0, 262.0)",1.3666666666666667,0.361,1,5322.011,1
0,656,target,"[(1080, 767)]",[],[1],[0.6],vertical,"(890.0, 262.0)",0.9166666666666666,0.554,1,5326.958,1
0,657,target,"[(1106, 777)]",[],[1],[0.08333333333333333],horizontal,"(890.0, 262.0)",1.6666666666666667,0.052,0,5331.527,0
0,658,target,"[(1058, 785)]",[],[1],[0.5333333333333333],vertical,"(890.0, 262.0)",1.15,0.49,1,5336.486,1
0,659,target,"[(1104, 795)]",[],[1],[0.18333333333333332],horizontal,"(890.0, 262.0)",1.5833333333333333,0.146,0,5345.57,0
0,660,target,"[(1085, 789)]",[],[1],[0.55],horizontal,"(890.0, 762.0)",0.8166666666666667,0.504,1,5350.085,1
0,661,target,"[(1075, 791)]",[],[1],[0.5333333333333333],vertical,"(890.0, 762.0)",0.6666666666666666,0.487,1,5355.153,1
0,662,target,"[(1107, 793)]",[],[1],[],vertical,"(390.0, 762.0)",,"('cti', 1.585)",0,5360.002,0
0,663,catch,"[(1093, 770)]",[],[1],[],vertical,"(390.0, 762.0)",1.65,nan,1,5364.628,1
0,664,target,"[(1106, 796)]",[],[1],[0.6166666666666667],vertical,"(390.0, 262.0)",0.8333333333333334,0.578,1,5369.653,1
0,665,target,"[(1081, 779)]",[],[1],[0.23333333333333334],vertical,"(890.0, 762.0)",1.3666666666666667,0.193,0,5374.356,0
0,666,target,"[(1105, 755)]",[],[1],[0.48333333333333334],horizontal,"(890.0, 262.0)",0.95,0.444,1,5378.702,1
0,667,target,"[(1109, 790)]",[],[1],[0.6666666666666666],vertical,"(390.0, 262.0)",0.8166666666666667,0.624,1,5383.481,1
0,668,target,"[(1101, 770)]",[],[1],[0.05],horizontal,"(890.0, 262.0)",1.2833333333333332,0.018,0,5388.519,0
0,669,target,"[(1085, 813)]",[],[1],[0.5666666666666667],vertical,"(890.0, 762.0)",1.1333333333333333,0.52,1,5392.779,1
0,670,target,"[(1080, 765)]",[],[1],[0.5833333333333334],vertical,"(890.0, 262.0)",0.5,0.541,1,5400.635,1
0,671,catch,"[(1108, 791)]",[],[1],[],horizontal,"(390.0, 262.0)",1.6166666666666667,nan,1,5404.767,1
0,672,target,"[(1105, 788)]",[],[1],[0.43333333333333335],horizontal,"(890.0, 262.0)",1.2666666666666666,0.395,1,5409.536,2
0,673,target,"[(1088, 773)]",[],[1],[0.6],vertical,"(890.0, 262.0)",0.9833333333333333,0.557,1,5414.97,2
0,674,target,"[(1101, 772)]",[],[1],[0.5333333333333333],horizontal,"(890.0, 262.0)",1.05,0.492,1,5419.928,2
0,675,target,"[(1104, 764)]",[],[1],[0.5],vertical,"(390.0, 762.0)",1.2333333333333334,0.461,1,5425.086,2
0,676,target,"[(1110, 772)]",[],[1],[0.5166666666666666],vertical,"(390.0, 262.0)",0.85,0.472,1,5430.265,2
0,677,target,"[(1101, 769)]",[],[1],[0.55],vertical,"(390.0, 262.0)",0.9,0.513,1,5435.37,3
0,678,catch,"[(1122, 771)]",[],[1],[],horizontal,"(890.0, 762.0)",1.3833333333333333,nan,1,5440.932,3
0,679,target,"[(1101, 799)]",[],[1],[0.5833333333333334],vertical,"(890.0, 762.0)",0.7333333333333333,0.543,1,5446.603,3
0,680,target,"[(1122, 782)]",[],[1],[],horizontal,"(890.0, 262.0)",,"('cti', 1.104)",0,5452.052,0
0,681,target,"[(1073, 772)]",[],[1],[0.65],horizontal,"(390.0, 762.0)",1.0666666666666667,0.609,1,5456.092,1
0,682,target,"[(1098, 777)]",[],[1],[0.55],vertical,"(890.0, 262.0)",0.55,0.507,1,5461.219,1
0,683,target,"[(1098, 765)]",[],[1],[0.5166666666666666],vertical,"(890.0, 762.0)",0.9,0.475,1,5465.586,1
0,684,target,"[(1103, 773)]",[],[1],[],vertical,"(390.0, 762.0)",,"('cti', 1.498)",0,5470.41,0
0,685,target,"[(1125, 753), (1072, 780)]",[],"[0, 1]",[0.5833333333333334],horizontal,"(390.0, 262.0)",0.6666666666666666,0.541,1,5475.102,1
0,686,target,"[(1079, 790)]",[],[1],[0.35],horizontal,"(890.0, 762.0)",0.9666666666666667,0.314,1,5481.064,1
0,687,target,"[(1114, 783)]",[],[1],[0.4],vertical,"(390.0, 762.0)",1.3166666666666667,0.37,1,5485.903,1
0,688,target,"[(1105, 782)]",[],[1],[0.1],horizontal,"(390.0, 762.0)",1.4166666666666667,0.068,0,5490.72,0
0,689,target,"[(1114, 774)]",[],[1],[0.21666666666666667],horizontal,"(890.0, 762.0)",1.3666666666666667,0.184,0,5495.553,0
0,690,target,"[(1103, 760)]",[],[1],[0.5],horizontal,"(390.0, 762.0)",1.3166666666666667,0.459,1,5500.148,1
0,691,target,"[(1078, 770)]",[],[1],[0.85],horizontal,"(390.0, 262.0)",0.6333333333333333,nan,0,5505.188,0
0,692,target,"[(1079, 761)]",[],[1],[0.5166666666666666],vertical,"(390.0, 262.0)",0.9166666666666666,0.477,1,5509.879,1
0,693,target,"[(1100, 795)]",[],[1],[0.6166666666666667],vertical,"(390.0, 262.0)",0.7666666666666666,0.571,1,5514.685,1
0,694,target,"[(1105, 773)]",[],[1],[0.3],vertical,"(890.0, 762.0)",1.2833333333333332,0.265,1,5519.08,1
0,695,target,"[(1077, 766)]",[],[1],[0.15],vertical,"(890.0, 762.0)",1.4833333333333334,0.119,0,5523.987,0
0,696,target,"[(1081, 782)]",[],[1],[0.85],horizontal,"(890.0, 762.0)",0.7,nan,0,5528.459,0
0,697,target,"[(1090, 775)]",[],[1],[0.2],vertical,"(890.0, 762.0)",1.6,0.168,0,5533.082,0
0,698,target,"[(1100, 770)]",[],[1],[0.4166666666666667],vertical,"(890.0, 262.0)",1.3166666666666667,0.375,1,5537.753,1
0,699,target,"[(1108, 782)]",[],[1],[0.6666666666666666],horizontal,"(390.0, 762.0)",0.7333333333333333,0.62,1,5542.832,1
0,700,target,"[(1104, 785)]",[],[1],[0.2833333333333333],vertical,"(890.0, 262.0)",1.55,0.248,1,5547.503,1
0,701,target,"[(1105, 784)]",[],[1],[0.5],horizontal,"(890.0, 262.0)",0.5,0.459,1,5552.545,2
0,702,target,"[(1107, 776)]",[],[1],[0.6],vertical,"(390.0, 262.0)",0.5333333333333333,0.558,1,5556.898,2
0,703,target,"[(1109, 782)]",[],[1],[],vertical,"(390.0, 762.0)",,"('cti', 1.588)",0,5562.09,0
0,704,target,"[(1093, 768)]",[],[1],[0.6166666666666667],vertical,"(390.0, 762.0)",1.5,0.571,1,5567.004,1
0,705,target,"[(1091, 765)]",[],[1],[0.6833333333333333],horizontal,"(890.0, 762.0)",0.6833333333333333,0.643,1,5571.921,1
0,706,target,"[(1081, 771)]",[],[1],[0.5666666666666667],horizontal,"(390.0, 262.0)",0.95,0.528,1,5576.587,1
0,707,target,"[(1104, 777)]",[],[1],[0.5166666666666666],horizontal,"(890.0, 762.0)",0.75,0.477,1,5581.088,2
0,708,target,"[(1100, 761)]",[],[1],[0.4166666666666667],horizontal,"(390.0, 762.0)",1.6666666666666667,0.376,1,5586.469,2
0,709,target,"[(1077, 766)]",[],[1],[0.5833333333333334],horizontal,"(890.0, 762.0)",0.9666666666666667,0.545,1,5592.228,2
0,710,target,"[(1100, 783)]",[],[1],[0.5166666666666666],horizontal,"(890.0, 762.0)",0.7166666666666667,0.473,1,5597.253,2
0,711,target,"[(1088, 773)]",[],[1],[0.85],horizontal,"(390.0, 262.0)",0.7666666666666666,nan,0,5602.62,0
0,712,target,"[(1079, 774)]",[],[1],[0.5],vertical,"(390.0, 762.0)",0.6833333333333333,0.471,1,5607.217,1
0,713,target,"[(1081, 788)]",[],[1],[0.6],vertical,"(390.0, 762.0)",1.0,0.563,1,5611.604,1
0,714,target,"[(1075, 769)]",[],[1],[0.45],vertical,"(890.0, 262.0)",1.2166666666666666,0.411,1,5616.829,1
0,715,target,"[(1079, 782)]",[],[1],[0.4666666666666667],vertical,"(890.0, 762.0)",1.4,0.433,1,5621.683,2
0,716,target,"[(1104, 779)]",[],[1],[0.55],horizontal,"(890.0, 262.0)",0.5666666666666667,0.509,1,5626.938,2
0,717,target,"[(1090, 781)]",[],[1],[0.5833333333333334],vertical,"(390.0, 262.0)",0.9166666666666666,0.541,1,5631.563,2
0,718,target,"[(1098, 796)]",[],[1],[0.65],horizontal,"(890.0, 762.0)",0.5666666666666667,0.616,1,5636.72,2
0,719,target,"[(1112, 769)]",[],[1],[0.36666666666666664],vertical,"(390.0, 762.0)",1.3333333333333333,0.33,1,5641.837,2
0,720,target,"[(1100, 775)]",[],[1],[0.05],vertical,"(890.0, 262.0)",1.1333333333333333,0.02,0,5647.655,0
0,721,target,"[(1089, 779)]",[],[1],[0.5333333333333333],horizontal,"(890.0, 262.0)",0.6,0.496,1,5651.853,1
0,722,target,"[(1106, 770)]",[],[1],[0.5166666666666666],vertical,"(890.0, 262.0)",0.5,0.48,1,5656.221,1
0,723,catch,"[(1119, 780)]",[],[1],[],vertical,"(890.0, 262.0)",1.5333333333333332,nan,1,5660.838,1
0,724,target,"[(1104, 796)]",[],[1],[0.2833333333333333],horizontal,"(390.0, 262.0)",1.2,0.253,1,5666.025,2
0,725,target,"[(1095, 776)]",[],[1],[0.5333333333333333],horizontal,"(890.0, 262.0)",0.5166666666666666,0.499,1,5671.438,2
0,726,target,"[(1121, 781)]",[],[1],[0.5],horizontal,"(390.0, 262.0)",0.75,0.461,1,5676.029,2
0,727,catch,"[(1102, 770)]",[],[1],[],vertical,"(890.0, 762.0)",1.4,nan,1,5680.621,2
0,728,target,"[(1106, 771)]",[],[1],[0.5333333333333333],horizontal,"(390.0, 762.0)",1.1,0.497,1,5685.871,2
0,729,target,"[(1088, 795)]",[],[1],[],horizontal,"(390.0, 762.0)",,"('cti', 1.465)",0,5690.986,0
0,730,catch,"[(1107, 779)]",[],[1],[],vertical,"(390.0, 762.0)",1.6,"('cti', 1.591),nan",0,5695.337,0
0,731,target,"[(1108, 766)]",[],[1],[0.85],horizontal,"(890.0, 762.0)",1.6166666666666667,"('cti', 1.613),nan",0,5700.388,0
0,732,target,"[(1095, 791)]",[],[1],[0.5166666666666666],horizontal,"(890.0, 262.0)",0.95,0.479,1,5706.088,1
0,733,target,"[(1087, 774)]",[],[1],[0.55],horizontal,"(890.0, 762.0)",0.95,0.506,1,5711.112,1
0,734,target,"[(1098, 772)]",[],[1],[0.5],horizontal,"(890.0, 762.0)",1.3666666666666667,0.457,1,5715.677,1
0,735,target,"[(1086, 777)]",[],[1],[0.5333333333333333],vertical,"(890.0, 262.0)",1.1333333333333333,0.501,1,5720.634,2
0,736,target,"[(1105, 771)]",[],[1],[0.05],horizontal,"(890.0, 262.0)",1.45,0.02,0,5725.731,0
0,737,target,"[(1080, 778)]",[],[1],[0.2833333333333333],vertical,"(890.0, 262.0)",1.5166666666666666,0.249,1,5730.108,1
0,738,target,"[(1102, 792)]",[],[1],[0.5833333333333334],horizontal,"(390.0, 262.0)",0.55,0.546,1,5735.004,1
0,739,target,"[(1086, 773)]",[],[1],[0.5166666666666666],horizontal,"(390.0, 762.0)",1.15,0.478,1,5739.687,1
0,740,catch,"[(1106, 795)]",[],[1],[],horizontal,"(390.0, 262.0)",1.5166666666666666,nan,1,5744.612,2
0,741,target,"[(1099, 761)]",[],[1],[0.3],vertical,"(890.0, 262.0)",1.45,0.268,1,5749.655,2
0,742,target,"[(1114, 766)]",[],[1],[0.85],horizontal,"(890.0, 262.0)",1.5,"('cti', 1.498),nan",0,5754.771,0
0,743,catch,"[(1078, 785)]",[],[1],[],horizontal,"(890.0, 762.0)",1.6,nan,1,5760.022,1
0,744,target,"[(1112, 758)]",[],[1],[0.48333333333333334],vertical,"(890.0, 762.0)",1.0666666666666667,0.443,1,5764.859,1
0,745,target,"[(1081, 790)]",[],[1],[0.6166666666666667],vertical,"(390.0, 762.0)",0.8833333333333333,0.586,1,5770.051,1
0,746,target,"[(1100, 779)]",[],[1],[0.5333333333333333],horizontal,"(890.0, 262.0)",0.8333333333333334,0.494,1,5774.897,2
0,747,target,"[(1055, 768)]",[],[1],[0.6166666666666667],horizontal,"(890.0, 262.0)",0.7833333333333333,0.571,1,5779.721,2
0,748,target,"[(1091, 778)]",[],[1],[0.6333333333333333],horizontal,"(890.0, 762.0)",0.9833333333333333,0.594,1,5793.645,2
0,749,target,"[(1107, 778)]",[],[1],[],vertical,"(890.0, 762.0)",,"('cti', 1.527)",0,5798.828,0
0,750,catch,"[(1090, 777)]",[],[1],[],vertical,"(890.0, 762.0)",1.4333333333333333,nan,1,5803.638,1
0,751,target,"[(1100, 785)]",[],[1],[0.5666666666666667],horizontal,"(890.0, 262.0)",0.6666666666666666,0.526,1,5808.463,1
0,752,catch,"[(1111, 792)]",[],[1],[],vertical,"(890.0, 262.0)",1.5666666666666667,nan,1,5812.925,1
0,753,target,"[(1081, 792)]",[],[1],[0.85],horizontal,"(390.0, 762.0)",0.6666666666666666,nan,0,5818.286,0
0,754,target,"[(1082, 765)]",[],[1],[0.5333333333333333],vertical,"(390.0, 762.0)",1.0666666666666667,0.492,1,5822.859,1
0,755,target,"[(1109, 770)]",[],[1],[0.6333333333333333],vertical,"(390.0, 262.0)",0.6166666666666667,0.587,1,5828.017,1
0,756,target,"[(1100, 769)]",[],[1],[0.85],horizontal,"(890.0, 762.0)",0.55,nan,0,5832.56,0
0,757,target,"[(1100, 745), (1076, 784)]",[],"[0, 1]",[0.26666666666666666],vertical,"(890.0, 262.0)",1.6166666666666667,0.23,1,5836.989,1
0,758,catch,"[(1106, 773)]",[],[1],[],vertical,"(890.0, 762.0)",,"('cti', 1.53),nan",0,5843.47,0
0,759,target,"[(1082, 778)]",[],[1],[0.85],vertical,"(890.0, 762.0)",0.5,nan,0,5848.053,0
0,760,catch,"[(1106, 770)]",[],[1],[],vertical,"(390.0, 262.0)",1.3666666666666667,nan,1,5852.556,1
0,761,target,"[(1101, 779)]",[],[1],[0.85],horizontal,"(890.0, 762.0)",0.6,nan,0,5857.639,0
0,762,target,"[(1080, 768)]",[],[1],[0.48333333333333334],horizontal,"(890.0, 762.0)",1.2666666666666666,0.445,1,5862.071,1
0,763,target,"[(1120, 769)]",[],[1],[0.7833333333333333],horizontal,"(390.0, 262.0)",0.9,0.741,1,5867.588,1
0,764,target,"[(1095, 778)]",[],[1],[0.5333333333333333],horizontal,"(890.0, 762.0)",0.7833333333333333,0.499,1,5872.683,1
0,765,target,"[(1104, 777)]",[],[1],[0.48333333333333334],vertical,"(390.0, 262.0)",0.8666666666666667,0.449,1,5876.984,2
0,766,target,"[(1106, 781)]",[],[1],[0.31666666666666665],horizontal,"(890.0, 262.0)",1.0333333333333332,0.277,1,5882.004,2
0,767,catch,"[(1081, 775)]",[],[1],[],horizontal,"(890.0, 762.0)",1.35,nan,1,5887.492,2
0,768,target,"[(1100, 790)]",[],[1],[0.05],vertical,"(390.0, 262.0)",1.4,0.018,0,5892.373,0
0,769,target,"[(1088, 754)]",[],[1],[0.65],horizontal,"(890.0, 262.0)",0.6,0.605,1,5896.797,1
0,770,target,"[(1104, 773)]",[],[1],[],horizontal,"(890.0, 262.0)",,"('cti', 1.55)",0,5900.977,0
0,771,target,"[(1099, 761)]",[],[1],[0.6166666666666667],vertical,"(390.0, 262.0)",0.85,0.574,1,5905.593,1
0,772,catch,"[(1105, 778)]",[],[1],[],vertical,"(890.0, 762.0)",1.5,nan,1,5910.297,1
0,773,target,"[(1107, 772)]",[],[1],[0.43333333333333335],vertical,"(390.0, 762.0)",1.3833333333333333,0.396,1,5915.487,1
0,774,target,"[(1084, 769)]",[],[1],[0.18333333333333332],vertical,"(890.0, 262.0)",1.5,0.149,0,5920.621,0
0,775,target,"[(1104, 782)]",[],[1],[0.5],vertical,"(390.0, 262.0)",0.7666666666666666,0.457,1,5924.922,1
0,776,target,"[(1085, 793)]",[],[1],[0.48333333333333334],vertical,"(890.0, 762.0)",0.7833333333333333,0.442,1,5929.271,1
0,777,target,"[(1106, 766)]",[],[1],[0.35],horizontal,"(890.0, 262.0)",0.75,0.313,1,5933.739,1
0,778,target,"[(1081, 780)]",[],[1],[],horizontal,"(890.0, 762.0)",,"('cti', 1.159)",0,5938.454,0
0,779,target,"[(1104, 790)]",[],[1],[0.6833333333333333],vertical,"(390.0, 262.0)",0.5666666666666667,0.634,1,5943.232,1
0,780,target,"[(1104, 783)]",[],[1],[0.6],vertical,"(390.0, 762.0)",1.0666666666666667,0.557,1,5947.502,1
0,781,target,"[(1093, 770)]",[],[1],[0.3],horizontal,"(390.0, 762.0)",1.6333333333333333,0.262,1,5952.555,1
0,782,target,"[(1078, 776)]",[],[1],[0.6166666666666667],horizontal,"(390.0, 262.0)",1.0666666666666667,0.573,1,5957.937,2
0,783,target,"[(1080, 780)]",[],[1],[0.3],vertical,"(390.0, 762.0)",1.4666666666666666,0.261,1,5963.173,2
0,784,target,"[(1101, 772)]",[],[1],[0.21666666666666667],horizontal,"(390.0, 762.0)",1.4833333333333334,0.18,0,5968.94,0
0,785,target,"[(1077, 755)]",[],[1],[0.5333333333333333],horizontal,"(890.0, 762.0)",0.9666666666666667,0.492,1,5973.571,1
0,786,target,"[(1110, 782)]",[],[1],[0.6],vertical,"(390.0, 262.0)",1.1166666666666667,0.561,1,5978.356,1
0,787,catch,"[(1076, 768)]",[],[1],[],horizontal,"(890.0, 262.0)",1.4666666666666666,nan,1,5983.464,1
0,788,catch,"[(1075, 773)]",[],[1],[],horizontal,"(890.0, 762.0)",1.55,nan,1,5988.35,2
0,789,target,"[(1101, 770)]",[],[1],[0.5666666666666667],horizontal,"(890.0, 762.0)",0.7,0.52,1,5993.567,2
0,790,target,"[(1088, 783)]",[],[1],[0.85],horizontal,"(890.0, 762.0)",0.7166666666666667,nan,0,5998.687,0
0,791,target,"[(1094, 764)]",[],[1],[0.5666666666666667],vertical,"(390.0, 762.0)",1.0833333333333333,0.528,1,6003.022,1
0,792,target,"[(1079, 790)]",[],[1],[0.85],horizontal,"(390.0, 762.0)",0.5166666666666666,nan,0,6008.113,0
0,793,target,"[(1071, 764)]",[],[1],[0.43333333333333335],horizontal,"(890.0, 762.0)",1.3333333333333333,0.393,1,6012.957,1
0,794,target,"[(1101, 768)]",[],[1],[0.85],vertical,"(390.0, 762.0)",0.5666666666666667,nan,0,6018.234,0
0,795,target,"[(1106, 755)]",[],[1],[0.3333333333333333],horizontal,"(390.0, 762.0)",1.4,0.294,1,6022.588,1
0,796,target,"[(1114, 799)]",[],[1],[0.21666666666666667],horizontal,"(890.0, 262.0)",1.5333333333333332,0.184,0,6027.81,0
0,797,target,"[(1107, 772)]",[],[1],[0.5333333333333333],horizontal,"(890.0, 262.0)",0.8666666666666667,0.491,1,6032.288,1
0,798,target,"[(1104, 776)]",[],[1],[0.3333333333333333],vertical,"(390.0, 762.0)",1.5166666666666666,0.294,1,6037.19,1
0,799,target,"[(1127, 772)]",[],[1],[0.5166666666666666],horizontal,"(390.0, 262.0)",1.0,0.476,1,6042.366,1
0,800,target,"[(1100, 772)]",[],[1],[0.85],vertical,"(390.0, 762.0)",0.8333333333333334,nan,0,6046.843,0
0,801,target,"[(1084, 768)]",[],[1],[0.5833333333333334],horizontal,"(390.0, 262.0)",0.7,0.542,1,6051.207,1
0,802,target,"[(1101, 759)]",[],[1],[],horizontal,"(890.0, 262.0)",,"('cti', 1.339)",0,6055.987,0
0,803,target,"[(1104, 770)]",[],[1],[0.5333333333333333],vertical,"(890.0, 762.0)",0.6333333333333333,0.493,1,6060.719,1
0,804,target,"[(1101, 774)]",[],[1],[0.6166666666666667],horizontal,"(890.0, 262.0)",0.65,0.571,1,6065.323,1
0,805,target,"[(1116, 775)]",[],[1],[0.6],horizontal,"(890.0, 262.0)",0.7666666666666666,0.558,1,6069.672,1
0,806,target,"[(1090, 781)]",[],[1],[0.5],vertical,"(390.0, 762.0)",1.3,0.459,1,6074.457,2
0,807,target,"[(1087, 762)]",[],[1],[0.4166666666666667],horizontal,"(890.0, 262.0)",1.1333333333333333,0.379,1,6079.873,2
0,808,catch,"[(1084, 779)]",[],[1],[],horizontal,"(890.0, 262.0)",1.5666666666666667,nan,1,6085.315,2
0,809,target,"[(1115, 784)]",[],[1],[0.2],vertical,"(890.0, 762.0)",1.4,0.165,0,6090.905,0
0,810,target,"[(1078, 765)]",[],[1],[0.6833333333333333],horizontal,"(390.0, 762.0)",0.5166666666666666,0.641,1,6095.733,1
0,811,target,"[(1104, 755)]",[],[1],[0.45],vertical,"(890.0, 262.0)",1.4,0.41,1,6100.422,1
0,812,target,"[(1101, 779)]",[],[1],[0.5333333333333333],vertical,"(890.0, 762.0)",0.6666666666666666,0.494,1,6105.339,1
0,813,target,"[(1076, 777)]",[],[1],[0.16666666666666666],vertical,"(390.0, 262.0)",1.65,0.132,0,6109.806,0
0,814,catch,"[(1101, 776)]",[],[1],[],horizontal,"(890.0, 762.0)",1.4333333333333333,nan,1,6114.316,1
0,815,target,"[(1102, 786)]",[],[1],[0.6166666666666667],vertical,"(890.0, 262.0)",0.7666666666666666,0.579,1,6118.724,1
0,816,target,"[(1103, 769)]",[],[1],[0.3333333333333333],horizontal,"(890.0, 762.0)",1.4666666666666666,0.29,1,6123.479,1
0,817,target,"[(1078, 793)]",[],[1],[0.13333333333333333],horizontal,"(890.0, 762.0)",1.5,0.1,0,6128.19,0
0,818,target,"[(1104, 769)]",[],[1],[0.65],vertical,"(890.0, 762.0)",1.0166666666666666,0.607,1,6133.095,1
0,819,target,"[(1084, 773)]",[],[1],[0.5166666666666666],horizontal,"(390.0, 262.0)",1.1166666666666667,0.473,1,6138.113,1
0,820,target,"[(1099, 776)]",[],[1],[0.1],vertical,"(890.0, 262.0)",1.6166666666666667,0.069,0,6142.789,0
0,821,target,"[(1088, 768)]",[],[1],[0.5666666666666667],vertical,"(890.0, 762.0)",1.2333333333333334,0.538,1,6147.424,1
0,822,target,"[(1099, 782)]",[],[1],[],vertical,"(890.0, 762.0)",,"('cti', 1.569)",0,6152.372,0
0,823,target,"[(1102, 756)]",[],[1],[0.21666666666666667],vertical,"(390.0, 262.0)",1.5666666666666667,0.177,0,6157.39,0
0,824,target,"[(1060, 804)]",[],[1],[0.6],vertical,"(390.0, 762.0)",1.15,0.55,1,6162.519,1
0,825,target,"[(1086, 784)]",[],[1],[0.8166666666666667],vertical,"(890.0, 262.0)",1.6,0.771,1,6190.938,1
0,826,target,"[(1104, 774)]",[],[1],[0.65],vertical,"(890.0, 762.0)",0.9833333333333333,0.614,1,6196.54,1
0,827,target,"[(1099, 778)]",[],[1],[0.6333333333333333],vertical,"(390.0, 262.0)",0.9833333333333333,0.594,1,6201.174,2
0,828,target,"[(1104, 788)]",[],[1],[0.05],horizontal,"(390.0, 262.0)",1.4833333333333334,0.02,0,6206.823,0
0,829,target,"[(1119, 785)]",[],[1],[0.5666666666666667],horizontal,"(890.0, 262.0)",1.1,0.528,1,6211.841,1
0,830,target,"[(1109, 776)]",[],[1],[0.6666666666666666],vertical,"(390.0, 262.0)",0.95,0.632,1,6217.223,1
0,831,target,"[(1080, 770)]",[],[1],[0.55],vertical,"(890.0, 262.0)",0.8166666666666667,0.515,1,6222.02,1
0,832,target,"[(1107, 767)]",[],[1],[0.55],vertical,"(390.0, 262.0)",0.55,0.517,1,6227.04,2
0,833,target,"[(1122, 759)]",[],[1],[0.85],horizontal,"(390.0, 762.0)",0.6166666666666667,nan,0,6231.961,0
0,834,target,"[(1073, 755)]",[],[1],[0.85],horizontal,"(390.0, 762.0)",0.5,nan,0,6236.455,0
0,835,target,"[(1082, 775)]",[],[1],[0.5666666666666667],vertical,"(390.0, 262.0)",1.0,0.532,1,6240.942,1
0,836,target,"[(1086, 778)]",[],[1],[0.4166666666666667],horizontal,"(390.0, 262.0)",1.45,0.378,1,6245.928,1
0,837,target,"[(1126, 760)]",[],[1],[0.7],horizontal,"(390.0, 762.0)",1.1333333333333333,0.663,1,6251.173,1
0,838,target,"[(1079, 775)]",[],[1],[0.6666666666666666],horizontal,"(890.0, 262.0)",0.95,0.623,1,6256.233,2
0,839,target,"[(1123, 765)]",[],[1],[0.65],horizontal,"(890.0, 262.0)",0.7166666666666667,0.608,1,6261.612,2
0,840,target,"[(1108, 773)]",[],[1],[0.5],horizontal,"(890.0, 262.0)",0.7333333333333333,0.471,1,6266.727,2
0,841,target,"[(1120, 772)]",[],[1],[0.5],vertical,"(390.0, 262.0)",1.3833333333333333,0.458,1,6271.992,2
0,842,target,"[(1103, 781)]",[],[1],[0.21666666666666667],vertical,"(890.0, 762.0)",1.5,0.182,0,6277.557,0
0,843,target,"[(1075, 765)]",[],[1],[0.4666666666666667],horizontal,"(390.0, 762.0)",1.2166666666666666,0.43,1,6282.34,1
0,844,target,"[(1104, 778)]",[],[1],[0.6],vertical,"(890.0, 762.0)",1.4666666666666666,0.557,1,6287.523,1
0,845,target,"[(1093, 800)]",[],[1],[0.43333333333333335],vertical,"(390.0, 262.0)",1.4833333333333334,0.391,1,6292.99,1
0,846,target,"[(1111, 790)]",[],[1],[0.5166666666666666],vertical,"(890.0, 762.0)",1.0833333333333333,0.474,1,6297.92,2
0,847,target,"[(1107, 775)]",[],[1],[0.55],horizontal,"(890.0, 262.0)",0.9333333333333333,0.513,1,6303.407,2
0,848,target,"[(1111, 791)]",[],[1],[0.26666666666666666],horizontal,"(890.0, 762.0)",1.3833333333333333,0.228,1,6308.425,2
0,849,target,"[(1107, 765)]",[],[1],[0.65],horizontal,"(390.0, 262.0)",0.8666666666666667,0.61,1,6313.722,2
0,850,target,"[(1100, 770)]",[],[1],[0.4166666666666667],horizontal,"(390.0, 762.0)",1.3,0.376,1,6318.572,2
0,851,target,"[(1092, 769)]",[],[1],[],vertical,"(890.0, 262.0)",,"('cti', 1.135)",0,6323.941,0
0,852,target,"[(1092, 777)]",[],[1],[0.6666666666666666],vertical,"(390.0, 762.0)",0.85,0.625,1,6328.024,1
0,853,target,"[(1062, 766)]",[],[1],[0.65],horizontal,"(390.0, 262.0)",0.5333333333333333,0.609,1,6332.874,1
0,854,target,"[(1080, 767)]",[],[1],[0.5333333333333333],horizontal,"(890.0, 262.0)",0.6,0.49,1,6337.547,1
0,855,target,"[(1124, 786)]",[],[1],[0.55],vertical,"(890.0, 762.0)",0.7833333333333333,0.505,1,6342.118,2
0,856,target,"[(1120, 776)]",[],[1],[0.5],vertical,"(890.0, 762.0)",0.8333333333333334,0.464,1,6347.075,2
0,857,target,"[(1122, 778)]",[],[1],[0.48333333333333334],horizontal,"(390.0, 262.0)",1.2333333333333334,0.447,1,6352.149,2
0,858,target,"[(1110, 775)]",[],[1],[0.5333333333333333],horizontal,"(390.0, 762.0)",1.2833333333333332,0.494,1,6357.324,2
0,859,target,"[(1103, 770)]",[],[1],[0.16666666666666666],horizontal,"(390.0, 762.0)",0.8333333333333334,0.137,0,6362.807,0
0,860,target,"[(1081, 774)]",[],[1],[0.5166666666666666],vertical,"(890.0, 762.0)",1.2333333333333334,0.478,1,6367.024,1
0,861,target,"[(1104, 770)]",[],[1],[0.3],vertical,"(890.0, 262.0)",1.45,0.268,1,6371.814,1
0,862,target,"[(1075, 785)]",[],[1],[0.65],horizontal,"(890.0, 762.0)",1.2,0.614,1,6376.934,1
0,863,target,"[(1108, 792)]",[],[1],[0.55],vertical,"(890.0, 762.0)",0.65,0.515,1,6381.906,2
0,864,target,"[(1098, 760)]",[],[1],[0.5833333333333334],horizontal,"(890.0, 762.0)",0.7666666666666666,0.547,1,6386.753,2
0,865,target,"[(1095, 784)]",[],[1],[0.55],vertical,"(890.0, 762.0)",1.1666666666666667,0.51,1,6391.702,2
0,866,target,"[(1124, 781)]",[],[1],[0.5666666666666667],vertical,"(390.0, 762.0)",0.95,0.529,1,6396.766,2
0,867,target,"[(1104, 775)]",[],[1],[0.4666666666666667],vertical,"(890.0, 262.0)",1.0,0.427,1,6401.721,2
0,868,target,"[(1124, 778)]",[],[1],[0.05],horizontal,"(890.0, 762.0)",1.55,0.019,0,6406.908,0
0,869,target,"[(1080, 769)]",[],[1],[0.5333333333333333],vertical,"(390.0, 762.0)",1.2,0.494,1,6411.393,1
0,870,target,"[(1099, 786)]",[],[1],[0.4],horizontal,"(890.0, 762.0)",1.2333333333333334,0.364,1,6416.725,1
0,871,target,"[(1109, 770)]",[],[1],[0.5333333333333333],vertical,"(890.0, 762.0)",0.95,0.492,1,6421.799,1
0,872,target,"[(1089, 774)]",[],[1],[0.5333333333333333],horizontal,"(390.0, 262.0)",0.55,0.494,1,6426.542,2
0,873,target,"[(1115, 778)]",[],[1],[0.31666666666666665],horizontal,"(890.0, 262.0)",1.3833333333333333,0.283,1,6431.141,2
0,874,catch,"[(1073, 775)]",[],[1],[],horizontal,"(390.0, 762.0)",1.45,nan,1,6436.839,2
0,875,target,"[(1109, 769)]",[],[1],[0.6166666666666667],horizontal,"(390.0, 762.0)",0.8666666666666667,0.573,1,6441.943,2
0,876,catch,"[(1127, 791)]",[],[1],[],horizontal,"(390.0, 762.0)",1.4166666666666667,nan,1,6447.304,2
0,877,catch,"[(1105, 791)]",[],[1],[],horizontal,"(890.0, 262.0)",,"('cti', 1.155),nan",0,6452.541,0
0,878,target,"[(1095, 761)]",[],[1],[0.23333333333333334],horizontal,"(390.0, 762.0)",1.6,0.2,1,6456.514,1
0,879,target,"[(1084, 775)]",[],[1],[0.2833333333333333],horizontal,"(390.0, 762.0)",1.6666666666666667,0.248,1,6461.741,1
0,880,target,"[(1112, 779)]",[],[1],[0.5666666666666667],vertical,"(890.0, 262.0)",1.4833333333333334,0.529,1,6466.558,1
0,881,target,"[(1108, 789)]",[],[1],[0.6166666666666667],horizontal,"(890.0, 762.0)",1.5166666666666666,0.577,1,6471.803,2
0,882,target,"[(1109, 765)]",[],[1],[0.85],vertical,"(390.0, 762.0)",1.15,nan,0,6477.391,0
0,883,target,"[(1103, 781)]",[],[1],[0.6666666666666666],vertical,"(890.0, 762.0)",0.5166666666666666,0.629,1,6482.149,1
0,884,target,"[(1083, 776)]",[],[1],[0.55],vertical,"(890.0, 762.0)",1.1,0.511,1,6486.743,1
0,885,target,"[(1093, 770)]",[],[1],[0.85],vertical,"(390.0, 762.0)",0.8833333333333333,nan,0,6491.891,0
0,886,target,"[(1066, 770)]",[],[1],[0.5333333333333333],vertical,"(390.0, 762.0)",1.15,0.493,1,6496.677,1
0,887,target,"[(1085, 782)]",[],[1],[0.55],horizontal,"(890.0, 262.0)",1.1333333333333333,0.514,1,6502.159,1
0,888,target,"[(1103, 768)]",[],[1],[0.55],vertical,"(890.0, 762.0)",0.7666666666666666,0.513,1,6506.874,1
0,889,target,"[(1109, 763)]",[],[1],[0.08333333333333333],horizontal,"(390.0, 762.0)",1.6833333333333333,0.051,0,6511.38,0
0,890,target,"[(1120, 748), (1078, 800)]",[],"[0, 1]",[0.6],vertical,"(390.0, 762.0)",1.5833333333333333,0.556,1,6515.859,1
0,891,target,"[(1091, 779)]",[],[1],[0.5333333333333333],horizontal,"(890.0, 262.0)",0.8666666666666667,0.498,1,6522.484,1
0,892,target,"[(1093, 787)]",[],[1],[0.35],vertical,"(890.0, 262.0)",1.25,0.313,1,6527.42,1
0,893,catch,"[(1096, 778)]",[],[1],[],horizontal,"(390.0, 262.0)",,"('cti', 1.211),nan",0,6532.179,0
0,894,target,"[(1072, 830)]",[],[1],[0.85],vertical,"(890.0, 762.0)",0.6166666666666667,nan,0,6536.59,0
0,895,target,"[(1070, 803)]",[],[1],[0.65],horizontal,"(390.0, 262.0)",1.3833333333333333,0.607,1,6558.553,1
0,896,target,"[(1060, 800)]",[],[1],[0.15],horizontal,"(890.0, 762.0)",1.45,0.117,0,6563.632,0
0,897,target,"[(1112, 779)]",[],[1],[0.21666666666666667],vertical,"(390.0, 762.0)",1.4333333333333333,0.178,0,6568.559,0
0,898,target,"[(1128, 757)]",[],[1],[0.16666666666666666],horizontal,"(890.0, 762.0)",1.0166666666666666,0.137,0,6573.368,0
0,899,target,"[(1128, 779)]",[],[1],[0.5166666666666666],vertical,"(390.0, 262.0)",1.5666666666666667,0.473,1,6577.639,1
0,900,target,"[(1090, 787)]",[],[1],[0.48333333333333334],vertical,"(890.0, 262.0)",1.1,0.442,1,6582.834,1
0,901,target,"[(1080, 780)]",[],[1],[0.23333333333333334],vertical,"(390.0, 262.0)",1.55,0.201,1,6587.776,1
0,902,catch,"[(1111, 783)]",[],[1],[],horizontal,"(890.0, 262.0)",1.65,nan,1,6592.976,2
0,903,target,"[(1078, 781)]",[],[1],[0.85],horizontal,"(890.0, 762.0)",0.6,nan,0,6598.136,0
0,904,target,"[(1068, 785)]",[],[1],[0.4666666666666667],vertical,"(390.0, 262.0)",1.3666666666666667,0.427,1,6603.092,1
0,905,target,"[(1127, 780)]",[],[1],[0.7166666666666667],horizontal,"(390.0, 762.0)",0.8666666666666667,0.674,1,6608.097,1
0,906,target,"[(1108, 787)]",[],[1],[0.3833333333333333],horizontal,"(890.0, 762.0)",1.25,0.344,1,6612.908,1
0,907,target,"[(1090, 786)]",[],[1],[0.85],horizontal,"(890.0, 762.0)",0.5666666666666667,nan,0,6618.275,0
0,908,target,"[(1085, 753), (1061, 775)]",[],"[0, 1]",[0.85],vertical,"(390.0, 262.0)",0.7833333333333333,nan,0,6622.792,0
