block,practice,trial,change_interval_s,change_interval_frames,taps_start_time_during_fix,taps_end_time_during_fix,taps_start_loc_during_fix,taps_end_loc_during_fix,taps_on_lever_during_fix,taps_on_lever_frame_during_fix,taps_on_lever_s_during_fix,fix_xy,bar_orientation,target_xy,cti,rt,acc,time
1,True,1,0.731,43,[],[],"[(1084, 863)]",[],[1],[51],[0.85],"[640.0, 512.0]",vertical,"(890.0, 762.0)",[1.5],[0.801],0,0.38
1,True,2,0.507,30,[],[],"[(1058, 924)]",[],[1],[51],[0.85],"[640.0, 512.0]",horizontal,"(890.0, 262.0)",[1.05],[0.801],0,55.576
1,True,3,1.058,63,[],[],"[(1063, 936)]",[],[1],[44],[0.7333333333333333],"[640.0, 512.0]",vertical,"(890.0, 262.0)",[1.3166666666666667],[0.685],1,72.962
1,True,4,1.135,68,[],[],"[(1053, 871)]",[],[1],[51],[0.85],"[640.0, 512.0]",horizontal,"(390.0, 762.0)",[1.0166666666666666],[0.804],0,162.111
1,False,1,0.945,56,[],[226101],"[(1027, 948), (936, 826), (1036, 845)]","[(1011, 851)]","[0, 0, 1]",[6],[0.1],"[640.0, 512.0]",vertical,"(390.0, 762.0)",[],[0],0,169.829
1,False,2,0.668,40,[],[],"[(1061, 907)]",[],[1],[51],[0.85],"[640.0, 512.0]",horizontal,"(390.0, 262.0)",[1.2333333333333334],[0.8],0,216.279
1,False,3,0.656,39,[],[],"[(1076, 862)]",[],[1],[25],[0.4166666666666667],"[640.0, 512.0]",vertical,"(890.0, 762.0)",[0.5],[0.384],1,930.501
1,False,4,0.69,41,[],[],"[(1097, 857)]",[],[1],[51],[0.85],"[640.0, 512.0]",vertical,"(890.0, 262.0)",[0.8666666666666667],[0.798],0,1123.547
1,False,5,0.661,39,[],[],"[(1076, 886)]",[],[1],[47],[0.7833333333333333],"[640.0, 512.0]",vertical,"(890.0, 262.0)",[1.3333333333333333],[0.737],1,1205.687
1,False,6,0.914,54,[],[1279849],"[(1072, 870)]","[(1060, 872)]",[1],[29],[0.48333333333333334],"[640.0, 512.0]",vertical,"(390.0, 762.0)",[],[0],0,1267.146
1,False,7,0.954,57,[],[],"[(374, 559), (467, 924), (773, 324), (1209, 899)]",[],"[0, 0, 0, 1]",[],[],"[640.0, 512.0]",horizontal,"(390.0, 762.0)",[],[0],0,1270.005
1,False,8,0.664,39,[],[12405830],"[(922, 459), (1153, 385), (152, 676), (112, 715), (970, 632), (242, 28), (247, 33), (242, 35), (247, 34), (266, 860), (268, 511), (277, 89), (281, 97), (281, 864), (283, 99), (256, 118), (309, 703), (309, 128), (306, 722), (300, 722), (917, 142), (850, 920), (311, 761), (888, 758), (314, 929), (321, 161), (310, 99), (242, 168), (295, 546), (1097, 874)]","[(1096, 887)]","[0, 0, 0, 0, 0, 0, 0, 0, 0, 0, 0, 0, 0, 0, 0, 0, 0, 0, 0, 0, 0, 0, 0, 0, 0, 0, 0, 0, 0, 1]",[29],[0.48333333333333334],"[640.0, 512.0]",horizontal,"(390.0, 262.0)",[],[0],0,4657.823
1,False,9,1.118,67,[],[],"[(1123, 889)]",[],[1],[51],[0.85],"[640.0, 512.0]",vertical,"(890.0, 762.0)",[0.95],[0.796],0,12396.001
1,False,10,0.762,45,[],[],"[(1077, 878)]",[],[1],[51],[0.85],"[640.0, 512.0]",horizontal,"(890.0, 762.0)",[1.1666666666666667],[0.809],0,12415.491
1,False,11,1.009,60,[],[],"[(1088, 868)]",[],[1],[51],[0.85],"[640.0, 512.0]",horizontal,"(390.0, 262.0)",[0.8666666666666667],[0.799],0,12432.426
1,False,12,0.548,32,[],[],"[(1070, 844)]",[],[1],[32],[0.5333333333333333],"[640.0, 512.0]",horizontal,"(390.0, 262.0)",[1.45],[0.49],1,12437.218
1,False,13,1.134,68,[],[],"[(1100, 915)]",[],[1],[28],[0.4666666666666667],"[640.0, 512.0]",horizontal,"(390.0, 262.0)",[1.0833333333333333],[0.427],1,12442.317
1,False,14,0.52,31,[],[],"[(1076, 895)]",[],[1],[47],[0.7833333333333333],"[640.0, 512.0]",vertical,"(390.0, 762.0)",[0.5333333333333333],[0.737],1,12447.381
1,False,15,0.652,39,[],[],"[(1087, 903)]",[],[1],[28],[0.4666666666666667],"[640.0, 512.0]",horizontal,"(890.0, 262.0)",[1.4833333333333334],[0.429],1,12451.533
1,False,16,1.186,71,[],[],"[(1089, 883)]",[],[1],[41],[0.6833333333333333],"[640.0, 512.0]",vertical,"(890.0, 262.0)",[0.55],[0.642],1,12456.326
1,False,17,0.552,33,[],[],"[(1075, 890)]",[],[1],[32],[0.5333333333333333],"[640.0, 512.0]",horizontal,"(390.0, 762.0)",[1.5],[0.491],1,12460.801
1,False,18,0.681,40,[],[],"[(1072, 889)]",[],[1],[30],[0.5],"[640.0, 512.0]",horizontal,"(390.0, 762.0)",[1.6166666666666667],[0.463],1,12465.585
1,False,19,0.731,43,[],[],"[(1086, 892)]",[],[1],[30],[0.5],"[640.0, 512.0]",horizontal,"(390.0, 262.0)",[1.0333333333333332],[0.461],1,12470.547
1,False,20,0.777,46,[],[],"[(1076, 891)]",[],[1],[31],[0.5166666666666666],"[640.0, 512.0]",vertical,"(890.0, 762.0)",[0.5333333333333333],[0.479],1,12474.958
1,False,21,0.514,30,[],[],"[(1076, 898)]",[],[1],[32],[0.5333333333333333],"[640.0, 512.0]",horizontal,"(390.0, 762.0)",[0.55],[0.492],1,12478.965
1,False,22,0.671,40,[],[],"[(1067, 884)]",[],[1],[30],[0.5],"[640.0, 512.0]",vertical,"(890.0, 262.0)",[1.2],[0.46],1,12482.75
1,False,23,1.192,71,[],[],"[(1084, 864)]",[],[1],[34],[0.5666666666666667],"[640.0, 512.0]",horizontal,"(390.0, 762.0)",[0.7166666666666667],[0.525],1,12487.267
1,False,24,1.175,70,[],[],"[(1071, 880)]",[],[1],[29],[0.48333333333333334],"[640.0, 512.0]",horizontal,"(390.0, 262.0)",[1.4166666666666667],[0.439],1,12491.958
1,False,25,0.717,43,[],[],"[(1077, 890)]",[],[1],[31],[0.5166666666666666],"[640.0, 512.0]",vertical,"(890.0, 262.0)",[0.65],[0.476],1,12497.148
1,False,26,0.577,34,[],[],"[(1092, 889)]",[],[1],[36],[0.6],"[640.0, 512.0]",vertical,"(890.0, 262.0)",[1.6],[0.561],1,12501.283
1,False,27,1.13,67,[],[],"[(1082, 866)]",[],[1],[30],[0.5],"[640.0, 512.0]",horizontal,"(390.0, 762.0)",[1.5],[0.459],1,12506.417
1,False,28,0.782,46,[],[],"[(1076, 880)]",[],[1],[30],[0.5],"[640.0, 512.0]",vertical,"(390.0, 262.0)",[1.6],[0.455],1,12511.709
1,False,29,0.91,54,[],[],"[(1081, 900)]",[],[1],[39],[0.65],"[640.0, 512.0]",horizontal,"(390.0, 762.0)",[0.9666666666666667],[0.606],1,12516.553
1,False,30,0.814,48,[],[],"[(1070, 882)]",[],[1],[31],[0.5166666666666666],"[640.0, 512.0]",horizontal,"(390.0, 762.0)",[0.7666666666666666],[0.477],1,12521.199
1,False,31,0.635,38,[],[],"[(1086, 883)]",[],[1],[32],[0.5333333333333333],"[640.0, 512.0]",vertical,"(390.0, 762.0)",[1.2166666666666666],[0.495],1,12525.398
1,False,32,1.133,67,[],[],"[(1086, 886)]",[],[1],[29],[0.48333333333333334],"[640.0, 512.0]",horizontal,"(390.0, 762.0)",[1.6],[0.441],1,12529.868
1,False,33,1.139,68,[],[],"[(1075, 884)]",[],[1],[32],[0.5333333333333333],"[640.0, 512.0]",vertical,"(390.0, 762.0)",[1.0333333333333332],[0.492],1,12535.179
1,False,34,1.17,70,[],[],"[(1082, 905)]",[],[1],[36],[0.6],"[640.0, 512.0]",vertical,"(390.0, 762.0)",[1.25],[0.566],1,12539.979
1,False,35,0.794,47,[],[],"[(1092, 903)]",[],[1],[32],[0.5333333333333333],"[640.0, 512.0]",horizontal,"(890.0, 762.0)",[1.25],[0.487],1,12545.013
1,False,36,1.015,60,[],[],"[(1077, 898)]",[],[1],[31],[0.5166666666666666],"[640.0, 512.0]",horizontal,"(390.0, 262.0)",[0.6],[0.485],1,12549.55
1,False,37,1.178,70,[],[],"[(1075, 891)]",[],[1],[31],[0.5166666666666666],"[640.0, 512.0]",horizontal,"(390.0, 762.0)",[1.2666666666666666],[0.475],1,12553.742
1,False,38,0.661,39,[],[],"[(1063, 884)]",[],[1],[31],[0.5166666666666666],"[640.0, 512.0]",horizontal,"(890.0, 262.0)",[1.3333333333333333],[0.474],1,12558.687
1,False,39,0.725,43,[],[],"[(1084, 891)]",[],[1],[34],[0.5666666666666667],"[640.0, 512.0]",vertical,"(390.0, 762.0)",[1.4],[0.526],1,12563.308
1,False,40,1.02,61,[],[],"[(1081, 896)]",[],[1],[36],[0.6],"[640.0, 512.0]",vertical,"(890.0, 262.0)",[1.2],[0.557],1,12567.997
1,False,41,0.601,36,[],[],"[(1081, 899)]",[],[1],[42],[0.7],"[640.0, 512.0]",vertical,"(390.0, 762.0)",[1.0166666666666666],[0.651],1,12573.013
1,False,42,0.932,55,[],[],"[(1075, 902)]",[],[1],[34],[0.5666666666666667],"[640.0, 512.0]",horizontal,"(390.0, 762.0)",[0.5],[0.525],1,12577.401
1,False,43,0.817,49,[],[],"[(1077, 898)]",[],[1],[30],[0.5],"[640.0, 512.0]",vertical,"(890.0, 262.0)",[0.95],[0.465],1,12581.529
1,False,44,0.872,52,[],[],"[(1081, 890)]",[],[1],[],[],"[640.0, 512.0]",vertical,"(390.0, 762.0)",[],[0],0,12585.973
1,False,45,0.689,41,[],[],"[(1077, 881)]",[],[1],[30],[0.5],"[640.0, 512.0]",vertical,"(390.0, 262.0)",[0.5833333333333334],[0.458],1,12590.176
1,False,46,1.108,66,[],[],"[(1062, 898)]",[],[1],[31],[0.5166666666666666],"[640.0, 512.0]",horizontal,"(390.0, 262.0)",[1.6166666666666667],[0.476],1,12594.346
1,False,47,0.64,38,[],[],"[(1082, 888)]",[],[1],[32],[0.5333333333333333],"[640.0, 512.0]",horizontal,"(890.0, 762.0)",[1.3166666666666667],[0.492],1,12599.82
1,False,48,0.676,40,[],[],"[(1076, 892)]",[],[1],[30],[0.5],"[640.0, 512.0]",horizontal,"(390.0, 762.0)",[1.3666666666666667],[0.456],1,12604.514
1,False,49,0.53,31,[],[],"[(1076, 883)]",[],[1],[33],[0.55],"[640.0, 512.0]",vertical,"(390.0, 762.0)",[1.2],[0.502],1,12609.068
1,False,50,0.824,49,[],[],"[(1086, 898)]",[],[1],[29],[0.48333333333333334],"[640.0, 512.0]",horizontal,"(890.0, 262.0)",[0.8666666666666667],[0.45],1,12613.262
1,False,51,0.761,45,[],[],"[(1073, 881)]",[],[1],[38],[0.6333333333333333],"[640.0, 512.0]",vertical,"(890.0, 262.0)",[1.4],[0.592],1,12617.467
1,False,52,0.955,57,[],[],"[(1052, 896)]",[],[1],[37],[0.6166666666666667],"[640.0, 512.0]",vertical,"(390.0, 262.0)",[1.4666666666666666],[0.57],1,12622.32
1,False,53,1.022,61,[],[],"[(1086, 884)]",[],[1],[31],[0.5166666666666666],"[640.0, 512.0]",horizontal,"(390.0, 262.0)",[1.05],[0.475],1,12627.451
1,False,54,0.649,38,[],[],"[(1082, 899)]",[],[1],[31],[0.5166666666666666],"[640.0, 512.0]",horizontal,"(890.0, 262.0)",[1.6],[0.474],1,12633.588
1,False,55,1.11,66,[],[],"[(1063, 892)]",[],[1],[32],[0.5333333333333333],"[640.0, 512.0]",horizontal,"(390.0, 262.0)",[1.1833333333333333],[0.492],1,12638.517
1,False,56,1.009,60,[],[],"[(1082, 887)]",[],[1],[30],[0.5],"[640.0, 512.0]",horizontal,"(390.0, 262.0)",[1.6666666666666667],[0.457],1,12643.303
1,False,57,1.078,64,[],[],"[(1075, 898)]",[],[1],[35],[0.5833333333333334],"[640.0, 512.0]",horizontal,"(890.0, 762.0)",[1.1166666666666667],[0.538],1,12648.347
1,False,58,1.107,66,[],[],"[(1076, 884)]",[],[1],[39],[0.65],"[640.0, 512.0]",vertical,"(390.0, 262.0)",[0.75],[0.609],1,12653.113
1,False,59,0.979,58,[],[],"[(1079, 888)]",[],[1],[38],[0.6333333333333333],"[640.0, 512.0]",horizontal,"(890.0, 762.0)",[0.5833333333333334],[0.591],1,12657.617
1,False,60,0.51,30,[],[],"[(1085, 891)]",[],[1],[32],[0.5333333333333333],"[640.0, 512.0]",vertical,"(890.0, 262.0)",[0.6833333333333333],[0.492],1,12661.865
2,False,61,1.045,62,[],[],"[(1076, 888)]",[],[1],[39],[0.65],"[640.0, 512.0]",horizontal,"(890.0, 762.0)",[1.6833333333333333],[0.603],1,12665.564
2,False,62,0.934,56,[],[],"[(1072, 887)]",[],[1],[46],[0.7666666666666666],"[640.0, 512.0]",horizontal,"(390.0, 262.0)",[0.85],[0.721],1,12670.995
2,False,63,0.97,58,[],[],"[(1066, 885)]",[],[1],[39],[0.65],"[640.0, 512.0]",vertical,"(390.0, 262.0)",[0.9333333333333333],[0.608],1,12675.579
2,False,64,0.731,43,[],[],"[(1076, 886)]",[],[1],[33],[0.55],"[640.0, 512.0]",vertical,"(890.0, 762.0)",[1.0666666666666667],[0.513],1,12680.236
2,False,65,0.618,37,[],[],"[(1082, 895)]",[],[1],[33],[0.55],"[640.0, 512.0]",horizontal,"(890.0, 762.0)",[1.5166666666666666],[0.506],1,12684.745
2,False,66,0.542,32,[],[],"[(1081, 873)]",[],[1],[31],[0.5166666666666666],"[640.0, 512.0]",horizontal,"(890.0, 262.0)",[0.8333333333333334],[0.474],1,12689.416
2,False,67,0.781,46,[],[],"[(1079, 900)]",[],[1],[31],[0.5166666666666666],"[640.0, 512.0]",vertical,"(390.0, 262.0)",[1.3166666666666667],[0.476],1,12693.362
2,False,68,1.062,63,[],[],"[(1082, 878)]",[],[1],[44],[0.7333333333333333],"[640.0, 512.0]",vertical,"(890.0, 262.0)",[0.65],[0.687],1,12698.088
2,False,69,0.887,53,[],[],"[(1081, 885)]",[],[1],[31],[0.5166666666666666],"[640.0, 512.0]",vertical,"(890.0, 262.0)",[1.1833333333333333],[0.473],1,12702.402
2,False,70,0.721,43,[],[],"[(1072, 887)]",[],[1],[31],[0.5166666666666666],"[640.0, 512.0]",vertical,"(890.0, 262.0)",[0.8],[0.471],1,12707.103
2,False,71,0.978,58,[],[],"[(1077, 897)]",[],[1],[39],[0.65],"[640.0, 512.0]",horizontal,"(390.0, 762.0)",[1.6833333333333333],[0.606],1,12711.067
2,False,72,0.779,46,[],[],"[(1047, 881)]",[],[1],[35],[0.5833333333333334],"[640.0, 512.0]",vertical,"(890.0, 262.0)",[1.2833333333333332],[0.548],1,12716.466
2,False,73,0.647,38,[],[],"[(1079, 882)]",[],[1],[32],[0.5333333333333333],"[640.0, 512.0]",vertical,"(890.0, 262.0)",[1.65],[0.49],1,12721.218
2,False,74,0.807,48,[],[],"[(1068, 890)]",[],[1],[36],[0.6],"[640.0, 512.0]",vertical,"(390.0, 762.0)",[1.6166666666666667],[0.563],1,12725.912
2,False,75,1.039,62,[],[],"[(1085, 899)]",[],[1],[31],[0.5166666666666666],"[640.0, 512.0]",vertical,"(890.0, 762.0)",[1.1833333333333333],[0.479],1,12731.101
2,False,76,0.963,57,[],[],"[(1066, 898)]",[],[1],[33],[0.55],"[640.0, 512.0]",horizontal,"(390.0, 262.0)",[0.7833333333333333],[0.508],1,12736.007
2,False,77,1.167,70,[],[],"[(1091, 905)]",[],[1],[30],[0.5],"[640.0, 512.0]",vertical,"(390.0, 262.0)",[0.9666666666666667],[0.465],1,12740.425
2,False,78,0.775,46,[],[],"[(1078, 880)]",[],[1],[51],[0.85],"[640.0, 512.0]",horizontal,"(890.0, 262.0)",[0.7666666666666666],[0.799],0,12745.336
2,False,79,0.898,53,[],[],"[(1075, 909)]",[],[1],[43],[0.7166666666666667],"[640.0, 512.0]",horizontal,"(890.0, 762.0)",[1.3833333333333333],[0.67],1,12749.725
2,False,80,0.647,38,[],[],"[(1070, 903)]",[],[1],[40],[0.6666666666666666],"[640.0, 512.0]",vertical,"(390.0, 762.0)",[1.0],[0.623],1,12762.349
2,False,81,0.538,32,[],[],"[(1076, 912)]",[],[1],[43],[0.7166666666666667],"[640.0, 512.0]",horizontal,"(390.0, 762.0)",[0.8333333333333334],[0.671],1,12766.849
2,False,82,1.023,61,[],[],"[(1064, 902)]",[],[1],[31],[0.5166666666666666],"[640.0, 512.0]",horizontal,"(390.0, 262.0)",[0.5],[0.478],1,12770.857
2,False,83,0.867,52,[],[],"[(1072, 885)]",[],[1],[32],[0.5333333333333333],"[640.0, 512.0]",horizontal,"(890.0, 762.0)",[1.5666666666666667],[0.491],1,12775.037
2,False,84,1.052,63,[],[],"[(1115, 896)]",[],[1],[32],[0.5333333333333333],"[640.0, 512.0]",vertical,"(890.0, 262.0)",[0.7166666666666667],[0.496],1,12780.031
2,False,85,0.758,45,[],[],"[(1067, 890)]",[],[1],[32],[0.5333333333333333],"[640.0, 512.0]",horizontal,"(890.0, 762.0)",[1.0166666666666666],[0.492],1,12784.233
2,False,86,0.771,46,[],[],"[(1070, 893)]",[],[1],[33],[0.55],"[640.0, 512.0]",horizontal,"(390.0, 762.0)",[1.45],[0.511],1,12788.67
2,False,87,0.763,45,[],[],"[(1081, 903)]",[],[1],[30],[0.5],"[640.0, 512.0]",horizontal,"(390.0, 262.0)",[1.65],[0.456],1,12793.338
2,False,88,1.19,71,[],[],"[(1062, 890)]",[],[1],[32],[0.5333333333333333],"[640.0, 512.0]",vertical,"(390.0, 262.0)",[0.7],[0.492],1,12798.317
2,False,89,0.842,50,[],[],"[(1070, 890)]",[],[1],[36],[0.6],"[640.0, 512.0]",vertical,"(890.0, 262.0)",[0.7333333333333333],[0.555],1,12802.817
2,False,90,0.682,40,[],[],"[(1072, 895)]",[],[1],[29],[0.48333333333333334],"[640.0, 512.0]",vertical,"(390.0, 262.0)",[1.5666666666666667],[0.448],1,12806.899
2,False,91,0.54,32,[],[],"[(1077, 902)]",[],[1],[40],[0.6666666666666666],"[640.0, 512.0]",horizontal,"(890.0, 762.0)",[1.6833333333333333],[0.626],1,12811.709
2,False,92,0.773,46,[],[],"[(1084, 897)]",[],[1],[33],[0.55],"[640.0, 512.0]",vertical,"(390.0, 762.0)",[1.05],[0.508],1,12816.695
2,False,93,1.179,70,[],[],"[(1079, 900)]",[],[1],[38],[0.6333333333333333],"[640.0, 512.0]",vertical,"(390.0, 762.0)",[0.75],[0.596],1,12821.017
2,False,94,0.509,30,[],[],"[(1068, 905)]",[],[1],[36],[0.6],"[640.0, 512.0]",horizontal,"(890.0, 762.0)",[1.15],[0.555],1,12825.729
2,False,95,0.595,35,[],[],"[(1085, 883)]",[],[1],[31],[0.5166666666666666],"[640.0, 512.0]",vertical,"(890.0, 262.0)",[1.25],[0.476],1,12830.035
2,False,96,0.588,35,[],[],"[(1062, 876)]",[],[1],[31],[0.5166666666666666],"[640.0, 512.0]",horizontal,"(890.0, 262.0)",[1.55],[0.478],1,12834.436
2,False,97,1.053,63,[],[],"[(1062, 874)]",[],[1],[31],[0.5166666666666666],"[640.0, 512.0]",vertical,"(890.0, 762.0)",[1.15],[0.473],1,12839.073
2,False,98,0.937,56,[],[],"[(1071, 877)]",[],[1],[35],[0.5833333333333334],"[640.0, 512.0]",vertical,"(390.0, 762.0)",[1.1666666666666667],[0.539],1,12843.898
2,False,99,0.889,53,[],[],"[(1079, 884)]",[],[1],[31],[0.5166666666666666],"[640.0, 512.0]",vertical,"(890.0, 262.0)",[0.8666666666666667],[0.476],1,12848.584
2,False,100,0.675,40,[],[],"[(1084, 892)]",[],[1],[31],[0.5166666666666666],"[640.0, 512.0]",vertical,"(390.0, 262.0)",[0.9333333333333333],[0.472],1,12852.735
2,False,101,0.648,38,[],[],"[(1076, 889)]",[],[1],[30],[0.5],"[640.0, 512.0]",horizontal,"(390.0, 262.0)",[0.7666666666666666],[0.463],1,12856.767
2,False,102,0.804,48,[],[],"[(1067, 906)]",[],[1],[33],[0.55],"[640.0, 512.0]",horizontal,"(390.0, 762.0)",[1.1833333333333333],[0.506],1,12860.603
2,False,103,0.995,59,[],[],"[(1077, 888)]",[],[1],[31],[0.5166666666666666],"[640.0, 512.0]",vertical,"(890.0, 262.0)",[1.5833333333333333],[0.481],1,12865.135
2,False,104,0.897,53,[],[],"[(1072, 882)]",[],[1],[31],[0.5166666666666666],"[640.0, 512.0]",horizontal,"(390.0, 762.0)",[1.3666666666666667],[0.476],1,12870.253
2,False,105,0.637,38,[],[],"[(1076, 877)]",[],[1],[33],[0.55],"[640.0, 512.0]",vertical,"(890.0, 762.0)",[0.7333333333333333],[0.503],1,12874.945
2,False,106,0.512,30,[],[],"[(1071, 881)]",[],[1],[33],[0.55],"[640.0, 512.0]",vertical,"(390.0, 762.0)",[1.0],[0.505],1,12878.991
2,False,107,1.032,61,[],[],"[(1074, 883)]",[],[1],[31],[0.5166666666666666],"[640.0, 512.0]",horizontal,"(390.0, 262.0)",[0.55],[0.474],1,12883.121
2,False,108,0.86,51,[],[],"[(1077, 884)]",[],[1],[33],[0.55],"[640.0, 512.0]",vertical,"(890.0, 762.0)",[0.7],[0.511],1,12887.179
2,False,109,0.92,55,[],[],"[(1067, 905)]",[],[1],[35],[0.5833333333333334],"[640.0, 512.0]",horizontal,"(390.0, 762.0)",[0.9333333333333333],[0.539],1,12891.4
2,False,110,0.772,46,[],[],"[(1072, 885)]",[],[1],[37],[0.6166666666666667],"[640.0, 512.0]",horizontal,"(890.0, 762.0)",[0.65],[0.577],1,12895.934
2,False,111,0.96,57,[],[],"[(1074, 893)]",[],[1],[32],[0.5333333333333333],"[640.0, 512.0]",vertical,"(390.0, 262.0)",[0.7833333333333333],[0.495],1,12900.095
2,False,112,1.003,60,[],[],"[(1081, 913)]",[],[1],[37],[0.6166666666666667],"[640.0, 512.0]",vertical,"(890.0, 262.0)",[0.9],[0.571],1,12904.334
2,False,113,0.518,31,[],[],"[(1067, 894)]",[],[1],[36],[0.6],"[640.0, 512.0]",horizontal,"(390.0, 762.0)",[1.05],[0.553],1,12908.952
2,False,114,0.698,41,[],[],"[(1084, 896)]",[],[1],[37],[0.6166666666666667],"[640.0, 512.0]",horizontal,"(390.0, 762.0)",[1.3333333333333333],[0.572],1,12913.149
2,False,115,0.922,55,[],[],"[(1069, 906)]",[],[1],[32],[0.5333333333333333],"[640.0, 512.0]",horizontal,"(390.0, 262.0)",[1.25],[0.492],1,12917.846
2,False,116,1.018,61,[],[],"[(1076, 873)]",[],[1],[31],[0.5166666666666666],"[640.0, 512.0]",horizontal,"(390.0, 262.0)",[1.0333333333333332],[0.478],1,12922.593
2,False,117,0.642,38,[],[],"[(1076, 890)]",[],[1],[35],[0.5833333333333334],"[640.0, 512.0]",horizontal,"(890.0, 262.0)",[0.5666666666666667],[0.541],1,12927.195
2,False,118,0.986,59,[],[],"[(1070, 880)]",[],[1],[33],[0.55],"[640.0, 512.0]",vertical,"(890.0, 262.0)",[0.8],[0.509],1,12931.147
2,False,119,0.804,48,[],[],"[(1068, 888)]",[],[1],[33],[0.55],"[640.0, 512.0]",vertical,"(890.0, 262.0)",[1.55],[0.508],1,12935.449
2,False,120,0.94,56,[],[],"[(1089, 885)]",[],[1],[41],[0.6833333333333333],"[640.0, 512.0]",vertical,"(390.0, 762.0)",[1.35],[0.637],1,12940.351
3,False,121,1.176,70,[],[],"[(1071, 883)]",[],[1],[34],[0.5666666666666667],"[640.0, 512.0]",vertical,"(890.0, 762.0)",[1.0666666666666667],[0.52],1,12945.378
3,False,122,0.985,59,[],[],"[(1079, 873)]",[],[1],[36],[0.6],"[640.0, 512.0]",horizontal,"(890.0, 262.0)",[1.0166666666666666],[0.558],1,12950.147
3,False,123,0.617,37,[],[],"[(1081, 871)]",[],[1],[33],[0.55],"[640.0, 512.0]",vertical,"(390.0, 262.0)",[0.7333333333333333],[0.509],1,12954.868
3,False,124,1.107,66,[],[],"[(1068, 893)]",[],[1],[33],[0.55],"[640.0, 512.0]",vertical,"(890.0, 762.0)",[1.65],[0.506],1,12958.729
3,False,125,0.717,43,[],[],"[(1077, 885)]",[],[1],[32],[0.5333333333333333],"[640.0, 512.0]",horizontal,"(890.0, 262.0)",[0.8333333333333334],[0.488],1,12963.944
3,False,126,1.072,64,[],[],"[(1077, 892)]",[],[1],[33],[0.55],"[640.0, 512.0]",horizontal,"(890.0, 762.0)",[0.8666666666666667],[0.509],1,12967.897
3,False,127,0.651,39,[],[],"[(1082, 879)]",[],[1],[35],[0.5833333333333334],"[640.0, 512.0]",horizontal,"(890.0, 262.0)",[1.05],[0.54],1,12972.376
3,False,128,0.83,49,[],[],"[(1081, 879)]",[],[1],[32],[0.5333333333333333],"[640.0, 512.0]",horizontal,"(890.0, 762.0)",[1.1833333333333333],[0.495],1,12976.719
3,False,129,1.054,63,[],[],"[(1067, 902)]",[],[1],[33],[0.55],"[640.0, 512.0]",horizontal,"(890.0, 762.0)",[1.1666666666666667],[0.52],1,12981.135
3,False,130,0.665,39,[],[],"[(1072, 877)]",[],[1],[33],[0.55],"[640.0, 512.0]",vertical,"(890.0, 762.0)",[0.6333333333333333],[0.517],1,12985.939
3,False,131,0.809,48,[],[],"[(1042, 873)]",[],[1],[32],[0.5333333333333333],"[640.0, 512.0]",horizontal,"(890.0, 262.0)",[0.55],[0.495],1,12989.831
3,False,132,0.745,44,[],[],"[(1071, 872)]",[],[1],[32],[0.5333333333333333],"[640.0, 512.0]",horizontal,"(390.0, 762.0)",[0.5],[0.498],1,12994.036
3,False,133,0.863,51,[],[],"[(1068, 890)]",[],[1],[37],[0.6166666666666667],"[640.0, 512.0]",horizontal,"(890.0, 762.0)",[0.9666666666666667],[0.57],1,12997.815
3,False,134,0.707,42,[],[],"[(1076, 885)]",[],[1],[40],[0.6666666666666666],"[640.0, 512.0]",vertical,"(390.0, 762.0)",[1.5666666666666667],[0.625],1,13002.211
3,False,135,0.557,33,[],[],"[(1084, 875)]",[],[1],[41],[0.6833333333333333],"[640.0, 512.0]",horizontal,"(890.0, 762.0)",[1.2],[0.642],1,13007.058
3,False,136,0.731,43,[],[],"[(1081, 893)]",[],[1],[36],[0.6],"[640.0, 512.0]",horizontal,"(890.0, 762.0)",[1.6666666666666667],[0.565],1,13011.468
3,False,137,0.609,36,[],[],"[(1082, 880)]",[],[1],[31],[0.5166666666666666],"[640.0, 512.0]",vertical,"(890.0, 262.0)",[1.4666666666666666],[0.481],1,13016.475
3,False,138,1.03,61,[],[],"[(1082, 893)]",[],[1],[43],[0.7166666666666667],"[640.0, 512.0]",vertical,"(390.0, 262.0)",[0.9666666666666667],[0.67],1,13021.111
3,False,139,0.859,51,[],[],"[(1054, 864)]",[],[1],[35],[0.5833333333333334],"[640.0, 512.0]",horizontal,"(890.0, 262.0)",[1.25],[0.548],1,13025.881
3,False,140,0.976,58,[],[],"[(1086, 885)]",[],[1],[33],[0.55],"[640.0, 512.0]",horizontal,"(390.0, 762.0)",[1.4666666666666666],[0.508],1,13030.461
3,False,141,0.641,38,[],[],"[(1062, 898)]",[],[1],[39],[0.65],"[640.0, 512.0]",horizontal,"(890.0, 262.0)",[1.0166666666666666],[0.607],1,13035.336
3,False,142,0.827,49,[],[],"[(1068, 871)]",[],[1],[41],[0.6833333333333333],"[640.0, 512.0]",vertical,"(390.0, 762.0)",[1.4166666666666667],[0.64],1,13039.779
3,False,143,0.722,43,[],[],"[(1079, 881)]",[],[1],[33],[0.55],"[640.0, 512.0]",vertical,"(390.0, 762.0)",[0.9],[0.516],1,13044.679
3,False,144,0.963,57,[],[],"[(1072, 862)]",[],[1],[33],[0.55],"[640.0, 512.0]",horizontal,"(390.0, 762.0)",[0.6166666666666667],[0.508],1,13048.724
3,False,145,0.768,46,[],[],"[(1067, 880)]",[],[1],[34],[0.5666666666666667],"[640.0, 512.0]",vertical,"(890.0, 262.0)",[1.0166666666666666],[0.53],1,13052.856
3,False,146,0.545,32,[],[],"[(1050, 880)]",[],[1],[33],[0.55],"[640.0, 512.0]",horizontal,"(390.0, 762.0)",[1.3],[0.51],1,13057.079
3,False,147,0.786,47,[],[],"[(1067, 878)]",[],[1],[32],[0.5333333333333333],"[640.0, 512.0]",vertical,"(890.0, 262.0)",[0.7333333333333333],[0.498],1,13061.434
3,False,148,0.877,52,[],[],"[(1062, 879)]",[],[1],[43],[0.7166666666666667],"[640.0, 512.0]",vertical,"(390.0, 262.0)",[1.2333333333333334],[0.68],1,13065.527
3,False,149,0.707,42,[],[],"[(1070, 884)]",[],[1],[38],[0.6333333333333333],"[640.0, 512.0]",horizontal,"(890.0, 262.0)",[1.6166666666666667],[0.586],1,13070.174
3,False,150,0.82,49,[],[],"[(1078, 871)]",[],[1],[31],[0.5166666666666666],"[640.0, 512.0]",horizontal,"(390.0, 262.0)",[0.9666666666666667],[0.477],1,13075.293
3,False,151,1.069,64,[],[],"[(1082, 879)]",[],[1],[30],[0.5],"[640.0, 512.0]",vertical,"(390.0, 262.0)",[1.3333333333333333],[0.459],1,13079.591
3,False,152,0.591,35,[],[],"[(1070, 877)]",[],[1],[34],[0.5666666666666667],"[640.0, 512.0]",horizontal,"(890.0, 762.0)",[1.1333333333333333],[0.524],1,13084.415
3,False,153,1.163,69,[],[],"[(1089, 880)]",[],[1],[35],[0.5833333333333334],"[640.0, 512.0]",horizontal,"(890.0, 262.0)",[0.7333333333333333],[0.547],1,13088.652
3,False,154,1.065,63,[],[],"[(1086, 888)]",[],[1],[29],[0.48333333333333334],"[640.0, 512.0]",horizontal,"(390.0, 262.0)",[1.4166666666666667],[0.453],1,13093.086
3,False,155,0.828,49,[],[],"[(1072, 877)]",[],[1],[31],[0.5166666666666666],"[640.0, 512.0]",horizontal,"(890.0, 262.0)",[0.85],[0.48],1,13098.018
3,False,156,1.111,66,[],[],"[(1072, 893)]",[],[1],[36],[0.6],"[640.0, 512.0]",vertical,"(890.0, 262.0)",[1.35],[0.563],1,13102.235
3,False,157,1.193,71,[],[],"[(1075, 871)]",[],[1],[31],[0.5166666666666666],"[640.0, 512.0]",horizontal,"(890.0, 762.0)",[0.6666666666666666],[0.48],1,13107.248
3,False,158,0.708,42,[],[],"[(1071, 900)]",[],[1],[31],[0.5166666666666666],"[640.0, 512.0]",vertical,"(390.0, 262.0)",[1.05],[0.474],1,13111.66
3,False,159,0.859,51,[],[],"[(1085, 892)]",[],[1],[30],[0.5],"[640.0, 512.0]",horizontal,"(890.0, 262.0)",[1.4666666666666666],[0.462],1,13115.863
3,False,160,1.103,66,[],[],"[(1072, 877)]",[],[1],[33],[0.55],"[640.0, 512.0]",vertical,"(890.0, 262.0)",[1.6166666666666667],[0.502],1,13120.752
3,False,161,0.523,31,[],[],"[(1077, 872)]",[],[1],[36],[0.6],"[640.0, 512.0]",vertical,"(390.0, 762.0)",[1.1166666666666667],[0.557],1,13126.163
3,False,162,0.661,39,[],[],"[(1069, 879)]",[],[1],[31],[0.5166666666666666],"[640.0, 512.0]",vertical,"(890.0, 762.0)",[1.6166666666666667],[0.473],1,13130.445
3,False,163,0.686,41,[],[],"[(1060, 881)]",[],[1],[31],[0.5166666666666666],"[640.0, 512.0]",horizontal,"(890.0, 262.0)",[1.4166666666666667],[0.475],1,13135.226
3,False,164,0.631,37,[],[],"[(1072, 880)]",[],[1],[37],[0.6166666666666667],"[640.0, 512.0]",horizontal,"(890.0, 762.0)",[1.1833333333333333],[0.573],1,13139.73
3,False,165,0.86,51,[],[],"[(1074, 897)]",[],[1],[35],[0.5833333333333334],"[640.0, 512.0]",vertical,"(890.0, 762.0)",[1.6166666666666667],[0.542],1,13143.991
3,False,166,0.519,31,[],[],"[(1074, 887)]",[],[1],[31],[0.5166666666666666],"[640.0, 512.0]",vertical,"(390.0, 762.0)",[1.5666666666666667],[0.476],1,13148.985
3,False,167,0.697,41,[],[],"[(1038, 881)]",[],[1],[28],[0.4666666666666667],"[640.0, 512.0]",horizontal,"(390.0, 262.0)",[1.3833333333333333],[0.43],1,13153.618
3,False,168,1.062,63,[],[],"[(1065, 897)]",[],[1],[32],[0.5333333333333333],"[640.0, 512.0]",horizontal,"(890.0, 762.0)",[0.7333333333333333],[0.492],1,13158.062
3,False,169,0.5,30,[],[],"[(1065, 890)]",[],[1],[37],[0.6166666666666667],"[640.0, 512.0]",horizontal,"(390.0, 762.0)",[0.55],[0.585],1,13162.342
3,False,170,1.114,66,[],[],"[(1076, 906)]",[],[1],[33],[0.55],"[640.0, 512.0]",horizontal,"(390.0, 762.0)",[1.3333333333333333],[0.506],1,13166.163
3,False,171,0.504,30,[],[],"[(1091, 885)]",[],[1],[34],[0.5666666666666667],"[640.0, 512.0]",horizontal,"(890.0, 762.0)",[1.1],[0.526],1,13171.091
3,False,172,1.037,62,[],[],"[(1069, 891)]",[],[1],[32],[0.5333333333333333],"[640.0, 512.0]",horizontal,"(890.0, 262.0)",[1.15],[0.499],1,13175.18
3,False,173,1.139,68,[],[],"[(1083, 887)]",[],[1],[34],[0.5666666666666667],"[640.0, 512.0]",vertical,"(890.0, 262.0)",[1.3666666666666667],[0.521],1,13180.015
3,False,174,0.929,55,[],[],"[(1042, 903)]",[],[1],[32],[0.5333333333333333],"[640.0, 512.0]",horizontal,"(890.0, 762.0)",[1.3166666666666667],[0.491],1,13185.133
3,False,175,0.753,45,[],[],"[(1076, 879)]",[],[1],[33],[0.55],"[640.0, 512.0]",vertical,"(890.0, 262.0)",[1.3833333333333333],[0.512],1,13189.953
3,False,176,1.165,69,[],[],"[(1047, 885)]",[],[1],[33],[0.55],"[640.0, 512.0]",horizontal,"(890.0, 762.0)",[1.0333333333333332],[0.51],1,13194.596
3,False,177,0.528,31,[],[],"[(1076, 888)]",[],[1],[37],[0.6166666666666667],"[640.0, 512.0]",horizontal,"(890.0, 762.0)",[0.8833333333333333],[0.578],1,13199.362
3,False,178,0.989,59,[],[],"[(1072, 888)]",[],[1],[32],[0.5333333333333333],"[640.0, 512.0]",vertical,"(390.0, 762.0)",[1.0833333333333333],[0.5],1,13203.342
3,False,179,1.132,67,[],[],"[(1067, 895)]",[],[1],[32],[0.5333333333333333],"[640.0, 512.0]",vertical,"(390.0, 762.0)",[0.8],[0.496],1,13207.953
3,False,180,1.089,65,[],[],"[(1060, 906)]",[],[1],[32],[0.5333333333333333],"[640.0, 512.0]",vertical,"(890.0, 262.0)",[1.3333333333333333],[0.487],1,13212.315
4,False,181,1.052,63,[],[],"[(1070, 885)]",[],[1],[32],[0.5333333333333333],"[640.0, 512.0]",vertical,"(890.0, 762.0)",[0.75],[0.493],1,13217.331
4,False,182,0.977,58,[],[],"[(1081, 881)]",[],[1],[32],[0.5333333333333333],"[640.0, 512.0]",vertical,"(890.0, 262.0)",[0.5],[0.503],1,13221.585
4,False,183,0.973,58,[],[],"[(1091, 872)]",[],[1],[32],[0.5333333333333333],"[640.0, 512.0]",horizontal,"(390.0, 762.0)",[1.2166666666666666],[0.502],1,13225.63
4,False,184,0.68,40,[],[],"[(1072, 903)]",[],[1],[36],[0.6],"[640.0, 512.0]",horizontal,"(390.0, 762.0)",[1.3333333333333333],[0.556],1,13230.367
4,False,185,0.611,36,[],[],"[(1054, 888)]",[],[1],[32],[0.5333333333333333],"[640.0, 512.0]",vertical,"(390.0, 762.0)",[1.5166666666666666],[0.488],1,13234.984
4,False,186,0.534,32,[],[],"[(1086, 909)]",[],[1],[33],[0.55],"[640.0, 512.0]",vertical,"(390.0, 762.0)",[0.7833333333333333],[0.511],1,13239.691
4,False,187,1.199,71,[],[],"[(1070, 891)]",[],[1],[31],[0.5166666666666666],"[640.0, 512.0]",horizontal,"(890.0, 262.0)",[1.5166666666666666],[0.474],1,13243.677
4,False,188,0.795,47,[],[],"[(1072, 884)]",[],[1],[31],[0.5166666666666666],"[640.0, 512.0]",vertical,"(890.0, 262.0)",[1.4333333333333333],[0.476],1,13248.934
4,False,189,0.716,42,[],[],"[(1091, 882)]",[],[1],[34],[0.5666666666666667],"[640.0, 512.0]",horizontal,"(390.0, 262.0)",[0.9166666666666666],[0.528],1,13253.865
4,False,190,1.095,65,[],[],"[(1069, 879)]",[],[1],[33],[0.55],"[640.0, 512.0]",vertical,"(390.0, 262.0)",[1.4166666666666667],[0.508],1,13258.152
4,False,191,1.135,68,[],[],"[(1076, 876)]",[],[1],[36],[0.6],"[640.0, 512.0]",vertical,"(390.0, 262.0)",[1.05],[0.555],1,13263.257
4,False,192,0.707,42,[],[],"[(1084, 895)]",[],[1],[38],[0.6333333333333333],"[640.0, 512.0]",horizontal,"(890.0, 262.0)",[1.2666666666666666],[0.593],1,13268.105
4,False,193,1.183,70,[],[],"[(1071, 885)]",[],[1],[35],[0.5833333333333334],"[640.0, 512.0]",horizontal,"(890.0, 762.0)",[1.3],[0.548],1,13272.626
4,False,194,0.607,36,[],[],"[(1075, 883)]",[],[1],[30],[0.5],"[640.0, 512.0]",vertical,"(390.0, 262.0)",[1.0833333333333333],[0.461],1,13277.576
4,False,195,1.191,71,[],[],"[(1081, 873)]",[],[1],[33],[0.55],"[640.0, 512.0]",horizontal,"(390.0, 262.0)",[0.5666666666666667],[0.508],1,13281.913
4,False,196,0.627,37,[],[],"[(1052, 877)]",[],[1],[33],[0.55],"[640.0, 512.0]",vertical,"(390.0, 762.0)",[0.6166666666666667],[0.506],1,13286.116
4,False,197,1.082,64,[],[],"[(1067, 881)]",[],[1],[29],[0.48333333333333334],"[640.0, 512.0]",horizontal,"(390.0, 262.0)",[1.6833333333333333],[0.448],1,13289.748
4,False,198,0.567,34,[],[],"[(1042, 871)]",[],[1],[34],[0.5666666666666667],"[640.0, 512.0]",vertical,"(390.0, 262.0)",[0.5666666666666667],[0.527],1,13295.053
4,False,199,0.691,41,[],[],"[(1044, 881)]",[],[1],[35],[0.5833333333333334],"[640.0, 512.0]",vertical,"(390.0, 762.0)",[0.8833333333333333],[0.538],1,13298.663
4,False,200,0.668,40,[],[],"[(1060, 876)]",[],[1],[39],[0.65],"[640.0, 512.0]",horizontal,"(390.0, 262.0)",[0.5],[0.614],1,13302.775
4,False,201,1.09,65,[],[],"[(1086, 885)]",[],[1],[34],[0.5666666666666667],"[640.0, 512.0]",horizontal,"(390.0, 762.0)",[0.9],[0.524],1,13306.465
4,False,202,0.63,37,[],[],"[(1026, 867), (1108, 881)]",[],"[0, 1]",[51],[0.85],"[640.0, 512.0]",horizontal,"(390.0, 262.0)",[0.6833333333333333],[0.802],0,13310.968
4,False,203,0.845,50,[],[],"[(1074, 870)]",[],[1],[30],[0.5],"[640.0, 512.0]",horizontal,"(890.0, 262.0)",[1.4],[0.46],1,13327.915
4,False,204,0.71,42,[],[],"[(1053, 891)]",[],[1],[33],[0.55],"[640.0, 512.0]",vertical,"(390.0, 762.0)",[1.6833333333333333],[0.509],1,13333.453
4,False,205,0.949,56,[],[],"[(1043, 878)]",[],[1],[32],[0.5333333333333333],"[640.0, 512.0]",vertical,"(390.0, 762.0)",[0.5833333333333334],[0.502],1,13339.019
4,False,206,0.978,58,[],[],"[(1067, 867)]",[],[1],[31],[0.5166666666666666],"[640.0, 512.0]",vertical,"(390.0, 262.0)",[1.2666666666666666],[0.477],1,13343.914
4,False,207,1.038,62,[],[],"[(1042, 872)]",[],[1],[31],[0.5166666666666666],"[640.0, 512.0]",vertical,"(390.0, 262.0)",[1.1666666666666667],[0.478],1,13349.502
4,False,208,1.182,70,[],[],"[(1082, 895)]",[],[1],[31],[0.5166666666666666],"[640.0, 512.0]",vertical,"(890.0, 262.0)",[0.5166666666666666],[0.473],1,13355.446
4,False,209,0.593,35,[],[],"[(1081, 881)]",[],[1],[31],[0.5166666666666666],"[640.0, 512.0]",vertical,"(390.0, 262.0)",[0.85],[0.476],1,13359.772
4,False,210,1.014,60,[],[],"[(1081, 879)]",[],[1],[39],[0.65],"[640.0, 512.0]",horizontal,"(390.0, 762.0)",[0.75],[0.607],1,13363.813
4,False,211,0.897,53,[],[],"[(1052, 890)]",[],[1],[34],[0.5666666666666667],"[640.0, 512.0]",horizontal,"(890.0, 762.0)",[0.5333333333333333],[0.529],1,13368.302
4,False,212,0.88,52,[],[],"[(1081, 895)]",[],[1],[37],[0.6166666666666667],"[640.0, 512.0]",vertical,"(890.0, 262.0)",[0.6833333333333333],[0.576],1,13372.343
4,False,213,0.977,58,[],[],"[(1081, 898)]",[],[1],[31],[0.5166666666666666],"[640.0, 512.0]",horizontal,"(390.0, 262.0)",[0.6333333333333333],[0.479],1,13376.547
4,False,214,0.982,58,[],[],"[(1081, 885)]",[],[1],[34],[0.5666666666666667],"[640.0, 512.0]",vertical,"(390.0, 762.0)",[1.0666666666666667],[0.53],1,13380.685
4,False,215,0.893,53,[],[],"[(1079, 887)]",[],[1],[38],[0.6333333333333333],"[640.0, 512.0]",vertical,"(390.0, 262.0)",[1.1666666666666667],[0.587],1,13385.351
4,False,216,0.903,54,[],[],"[(1081, 907)]",[],[1],[34],[0.5666666666666667],"[640.0, 512.0]",vertical,"(890.0, 262.0)",[1.0666666666666667],[0.527],1,13389.948
4,False,217,0.977,58,[],[],"[(1072, 867)]",[],[1],[32],[0.5333333333333333],"[640.0, 512.0]",vertical,"(390.0, 262.0)",[1.2166666666666666],[0.493],1,13394.397
4,False,218,0.895,53,[],[],"[(1072, 871)]",[],[1],[33],[0.55],"[640.0, 512.0]",vertical,"(390.0, 262.0)",[1.5333333333333332],[0.516],1,13399.099
4,False,219,0.614,36,[],[],"[(1076, 889)]",[],[1],[34],[0.5666666666666667],"[640.0, 512.0]",vertical,"(390.0, 762.0)",[1.35],[0.53],1,13404.05
4,False,220,0.534,32,[],[],"[(1081, 886)]",[],[1],[32],[0.5333333333333333],"[640.0, 512.0]",vertical,"(890.0, 262.0)",[0.95],[0.492],1,13408.52
4,False,221,1.046,62,[],[],"[(1067, 898)]",[],[1],[35],[0.5833333333333334],"[640.0, 512.0]",vertical,"(890.0, 762.0)",[0.9833333333333333],[0.544],1,13412.609
4,False,222,0.665,39,[],[],"[(1062, 883)]",[],[1],[34],[0.5666666666666667],"[640.0, 512.0]",vertical,"(890.0, 262.0)",[1.4166666666666667],[0.525],1,13417.167
4,False,223,0.942,56,[],[],"[(1081, 881)]",[],[1],[32],[0.5333333333333333],"[640.0, 512.0]",vertical,"(890.0, 262.0)",[1.6166666666666667],[0.494],1,13421.761
4,False,224,0.893,53,[],[],"[(1081, 880)]",[],[1],[33],[0.55],"[640.0, 512.0]",horizontal,"(390.0, 762.0)",[1.6166666666666667],[0.508],1,13426.849
4,False,225,0.984,59,[],[],"[(1078, 876)]",[],[1],[32],[0.5333333333333333],"[640.0, 512.0]",vertical,"(890.0, 262.0)",[1.35],[0.495],1,13432.019
4,False,226,0.892,53,[],[],"[(1079, 876)]",[],[1],[37],[0.6166666666666667],"[640.0, 512.0]",vertical,"(890.0, 762.0)",[1.0],[0.576],1,13436.824
4,False,227,0.987,59,[],[],"[(1042, 881)]",[],[1],[32],[0.5333333333333333],"[640.0, 512.0]",vertical,"(890.0, 762.0)",[1.15],[0.498],1,13441.452
4,False,228,1.15,69,[],[],"[(1052, 887)]",[],[1],[32],[0.5333333333333333],"[640.0, 512.0]",horizontal,"(390.0, 262.0)",[1.05],[0.488],1,13446.269
4,False,229,0.879,52,[],[],"[(1082, 881)]",[],[1],[33],[0.55],"[640.0, 512.0]",vertical,"(390.0, 262.0)",[0.85],[0.507],1,13450.93
4,False,230,0.817,49,[],[],"[(1081, 848)]",[],[1],[34],[0.5666666666666667],"[640.0, 512.0]",horizontal,"(390.0, 762.0)",[0.5],[0.527],1,13455.236
4,False,231,1.18,70,[],[],"[(1055, 887)]",[],[1],[32],[0.5333333333333333],"[640.0, 512.0]",vertical,"(890.0, 762.0)",[1.15],[0.495],1,13459.141
4,False,232,0.598,35,[],[],"[(1057, 871)]",[],[1],[36],[0.6],"[640.0, 512.0]",horizontal,"(890.0, 762.0)",[0.8166666666666667],[0.554],1,13463.915
4,False,233,0.95,57,[],[],"[(1076, 876)]",[],[1],[33],[0.55],"[640.0, 512.0]",horizontal,"(390.0, 262.0)",[1.2166666666666666],[0.512],1,13468.033
4,False,234,0.507,30,[],[],"[(1066, 900)]",[],[1],[34],[0.5666666666666667],"[640.0, 512.0]",horizontal,"(890.0, 762.0)",[0.6333333333333333],[0.532],1,13472.698
4,False,235,0.77,46,[],[],"[(1079, 873)]",[],[1],[35],[0.5833333333333334],"[640.0, 512.0]",horizontal,"(390.0, 762.0)",[1.6166666666666667],[0.541],1,13476.381
4,False,236,0.874,52,[],[],"[(1054, 885)]",[],[1],[40],[0.6666666666666666],"[640.0, 512.0]",vertical,"(390.0, 262.0)",[1.25],[0.621],1,13481.418
4,False,237,0.589,35,[],[],"[(1062, 880)]",[],[1],[31],[0.5166666666666666],"[640.0, 512.0]",vertical,"(890.0, 262.0)",[1.6],[0.476],1,13486.147
4,False,238,1.19,71,[],[],"[(1053, 881)]",[],[1],[34],[0.5666666666666667],"[640.0, 512.0]",horizontal,"(390.0, 762.0)",[1.0166666666666666],[0.529],1,13490.871
4,False,239,0.677,40,[],[],"[(1076, 880)]",[],[1],[32],[0.5333333333333333],"[640.0, 512.0]",horizontal,"(390.0, 262.0)",[1.3833333333333333],[0.493],1,13495.581
4,False,240,0.94,56,[],[],"[(1065, 885)]",[],[1],[39],[0.65],"[640.0, 512.0]",horizontal,"(890.0, 262.0)",[1.2666666666666666],[0.606],1,13500.141
5,False,241,0.769,46,[],[],"[(1047, 887)]",[],[1],[32],[0.5333333333333333],"[640.0, 512.0]",vertical,"(390.0, 762.0)",[0.9333333333333333],[0.491],1,13505.016
5,False,242,0.722,43,[],[],"[(1050, 885)]",[],[1],[33],[0.55],"[640.0, 512.0]",vertical,"(390.0, 262.0)",[1.15],[0.51],1,13509.314
5,False,243,0.512,30,[],[],"[(1033, 895)]",[],[1],[39],[0.65],"[640.0, 512.0]",vertical,"(890.0, 762.0)",[0.8333333333333334],[0.606],1,13513.681
5,False,244,1.191,71,[],[],"[(1059, 882)]",[],[1],[31],[0.5166666666666666],"[640.0, 512.0]",horizontal,"(890.0, 262.0)",[1.6166666666666667],[0.474],1,13517.62
5,False,245,0.877,52,[],[],"[(1028, 904), (1095, 855)]",[],"[0, 1]",[33],[0.55],"[640.0, 512.0]",vertical,"(390.0, 762.0)",[1.1833333333333333],[0.504],1,13522.998
5,False,246,0.741,44,[],[],"[(1081, 900)]",[],[1],[36],[0.6],"[640.0, 512.0]",vertical,"(390.0, 762.0)",[1.2166666666666666],[0.555],1,13528.999
5,False,247,1.108,66,[],[],"[(1067, 885)]",[],[1],[31],[0.5166666666666666],"[640.0, 512.0]",horizontal,"(890.0, 262.0)",[0.7166666666666667],[0.477],1,13533.628
5,False,248,0.823,49,[],[],"[(1081, 870)]",[],[1],[38],[0.6333333333333333],"[640.0, 512.0]",horizontal,"(890.0, 762.0)",[1.5166666666666666],[0.592],1,13537.833
5,False,249,1.118,67,[],[],"[(1071, 890)]",[],[1],[38],[0.6333333333333333],"[640.0, 512.0]",horizontal,"(890.0, 262.0)",[1.65],[0.589],1,13542.734
5,False,250,0.754,45,[],[],"[(1076, 871)]",[],[1],[31],[0.5166666666666666],"[640.0, 512.0]",horizontal,"(890.0, 262.0)",[1.0166666666666666],[0.473],1,13548.088
5,False,251,0.635,38,[],[],"[(1050, 888)]",[],[1],[33],[0.55],"[640.0, 512.0]",horizontal,"(390.0, 762.0)",[1.1333333333333333],[0.506],1,13552.211
5,False,252,1.069,64,[],[],"[(1065, 892)]",[],[1],[36],[0.6],"[640.0, 512.0]",horizontal,"(390.0, 262.0)",[0.5],[0.557],1,13556.563
5,False,253,0.716,42,[],[],"[(1047, 889)]",[],[1],[33],[0.55],"[640.0, 512.0]",vertical,"(890.0, 262.0)",[1.0],[0.509],1,13560.714
5,False,254,0.908,54,[],[],"[(1076, 871)]",[],[1],[35],[0.5833333333333334],"[640.0, 512.0]",vertical,"(890.0, 262.0)",[0.7333333333333333],[0.538],1,13564.867
5,False,255,0.805,48,[],[],"[(1081, 876)]",[],[1],[40],[0.6666666666666666],"[640.0, 512.0]",vertical,"(890.0, 762.0)",[1.4666666666666666],[0.625],1,13569.101
5,False,256,0.865,51,[],[],"[(1071, 891)]",[],[1],[33],[0.55],"[640.0, 512.0]",vertical,"(890.0, 262.0)",[1.3666666666666667],[0.509],1,13573.967
5,False,257,0.895,53,[],[],"[(1072, 862)]",[],[1],[31],[0.5166666666666666],"[640.0, 512.0]",vertical,"(890.0, 262.0)",[1.6666666666666667],[0.48],1,13578.765
5,False,258,0.699,41,[],[],"[(1072, 880)]",[],[1],[34],[0.5666666666666667],"[640.0, 512.0]",vertical,"(390.0, 262.0)",[0.9166666666666666],[0.523],1,13583.832
5,False,259,0.777,46,[],[],"[(1064, 890)]",[],[1],[34],[0.5666666666666667],"[640.0, 512.0]",horizontal,"(890.0, 762.0)",[0.7],[0.526],1,13587.922
5,False,260,0.815,48,[],[],"[(1071, 876)]",[],[1],[44],[0.7333333333333333],"[640.0, 512.0]",vertical,"(390.0, 262.0)",[0.9833333333333333],[0.688],1,13591.798
5,False,261,0.931,55,[],[],"[(1058, 895)]",[],[1],[37],[0.6166666666666667],"[640.0, 512.0]",vertical,"(390.0, 262.0)",[0.8666666666666667],[0.574],1,13596.368
5,False,262,1.067,64,[],[],"[(1072, 892)]",[],[1],[35],[0.5833333333333334],"[640.0, 512.0]",horizontal,"(890.0, 262.0)",[0.7333333333333333],[0.536],1,13600.84
5,False,263,1.072,64,[],[],"[(1045, 878)]",[],[1],[37],[0.6166666666666667],"[640.0, 512.0]",vertical,"(890.0, 262.0)",[1.4166666666666667],[0.572],1,13605.114
5,False,264,0.842,50,[],[],"[(1067, 871)]",[],[1],[40],[0.6666666666666666],"[640.0, 512.0]",vertical,"(890.0, 762.0)",[1.0166666666666666],[0.618],1,13610.127
5,False,265,0.852,51,[],[],"[(1064, 885)]",[],[1],[33],[0.55],"[640.0, 512.0]",horizontal,"(890.0, 262.0)",[0.6166666666666667],[0.516],1,13614.636
5,False,266,1.038,62,[],[],"[(1043, 890)]",[],[1],[32],[0.5333333333333333],"[640.0, 512.0]",horizontal,"(390.0, 262.0)",[0.6666666666666666],[0.489],1,13618.598
5,False,267,0.542,32,[],[],"[(1076, 890)]",[],[1],[32],[0.5333333333333333],"[640.0, 512.0]",vertical,"(390.0, 762.0)",[1.5833333333333333],[0.49],1,13622.757
5,False,268,1.09,65,[],[],"[(1060, 878)]",[],[1],[34],[0.5666666666666667],"[640.0, 512.0]",vertical,"(890.0, 262.0)",[1.1666666666666667],[0.524],1,13627.398
5,False,269,1.065,63,[],[],"[(1066, 890)]",[],[1],[34],[0.5666666666666667],"[640.0, 512.0]",horizontal,"(890.0, 762.0)",[1.5166666666666666],[0.525],1,13632.171
5,False,270,0.648,38,[],[],"[(1075, 885)]",[],[1],[32],[0.5333333333333333],"[640.0, 512.0]",horizontal,"(890.0, 262.0)",[1.1833333333333333],[0.489],1,13637.281
5,False,271,0.858,51,[],[],"[(1062, 880)]",[],[1],[32],[0.5333333333333333],"[640.0, 512.0]",vertical,"(390.0, 262.0)",[1.4666666666666666],[0.49],1,13641.442
5,False,272,1.003,60,[],[],"[(1081, 872)]",[],[1],[40],[0.6666666666666666],"[640.0, 512.0]",vertical,"(890.0, 262.0)",[1.3],[0.624],1,13646.301
5,False,273,1.036,62,[],[],"[(1072, 872)]",[],[1],[32],[0.5333333333333333],"[640.0, 512.0]",vertical,"(390.0, 262.0)",[1.4],[0.498],1,13651.302
5,False,274,0.994,59,[],[],"[(1081, 885)]",[],[1],[31],[0.5166666666666666],"[640.0, 512.0]",horizontal,"(390.0, 262.0)",[0.6166666666666667],[0.477],1,13656.133
5,False,275,0.586,35,[],[],"[(1076, 885)]",[],[1],[34],[0.5666666666666667],"[640.0, 512.0]",horizontal,"(390.0, 762.0)",[1.2333333333333334],[0.524],1,13660.416
5,False,276,1.105,66,[],[],"[(1078, 885)]",[],[1],[31],[0.5166666666666666],"[640.0, 512.0]",vertical,"(390.0, 262.0)",[0.9166666666666666],[0.474],1,13664.785
5,False,277,0.597,35,[],[],"[(1042, 882)]",[],[1],[40],[0.6666666666666666],"[640.0, 512.0]",horizontal,"(890.0, 262.0)",[1.6],[0.621],1,13669.153
5,False,278,0.848,50,[],[],"[(1079, 870)]",[],[1],[35],[0.5833333333333334],"[640.0, 512.0]",horizontal,"(390.0, 762.0)",[1.05],[0.546],1,13673.851
5,False,279,0.718,43,[],[],"[(1072, 889)]",[],[1],[33],[0.55],"[640.0, 512.0]",vertical,"(890.0, 762.0)",[1.25],[0.517],1,13678.316
5,False,280,0.846,50,[],[],"[(1077, 879)]",[],[1],[39],[0.65],"[640.0, 512.0]",horizontal,"(890.0, 262.0)",[1.1833333333333333],[0.61],1,13682.74
5,False,281,1.046,62,[],[],"[(1081, 881)]",[],[1],[],[],"[640.0, 512.0]",horizontal,"(890.0, 262.0)",[],[0],0,13687.299
5,False,282,0.815,48,[],[],"[(1072, 869)]",[],[1],[40],[0.6666666666666666],"[640.0, 512.0]",vertical,"(890.0, 762.0)",[0.75],[0.625],1,13691.49
5,False,283,1.129,67,[],[],"[(1067, 881)]",[],[1],[31],[0.5166666666666666],"[640.0, 512.0]",horizontal,"(390.0, 262.0)",[0.95],[0.478],1,13696.244
5,False,284,1.029,61,[],[],"[(1062, 905)]",[],[1],[37],[0.6166666666666667],"[640.0, 512.0]",horizontal,"(390.0, 762.0)",[0.8333333333333334],[0.578],1,13700.887
5,False,285,0.869,52,[],[],"[(1037, 884)]",[],[1],[32],[0.5333333333333333],"[640.0, 512.0]",vertical,"(390.0, 262.0)",[1.0666666666666667],[0.489],1,13705.31
5,False,286,1.071,64,[],[],"[(1044, 895)]",[],[1],[39],[0.65],"[640.0, 512.0]",vertical,"(390.0, 262.0)",[1.5],[0.603],1,13709.791
5,False,287,1.18,70,[],[],"[(1064, 895)]",[],[1],[40],[0.6666666666666666],"[640.0, 512.0]",vertical,"(890.0, 762.0)",[1.2666666666666666],[0.625],1,13714.954
5,False,288,0.753,45,[],[],"[(1072, 880)]",[],[1],[25],[0.4166666666666667],"[640.0, 512.0]",vertical,"(890.0, 762.0)",[1.3666666666666667],[0.377],1,13720.293
5,False,289,0.665,39,[],[],"[(1067, 885)]",[],[1],[33],[0.55],"[640.0, 512.0]",vertical,"(890.0, 762.0)",[0.7166666666666667],[0.507],1,13724.904
5,False,290,0.648,38,[],[],"[(1065, 876)]",[],[1],[33],[0.55],"[640.0, 512.0]",horizontal,"(390.0, 262.0)",[0.7],[0.508],1,13728.788
5,False,291,0.916,54,[],[],"[(1076, 869)]",[],[1],[40],[0.6666666666666666],"[640.0, 512.0]",vertical,"(390.0, 762.0)",[0.95],[0.625],1,13732.751
5,False,292,1.126,67,[],[],"[(1077, 871)]",[],[1],[30],[0.5],"[640.0, 512.0]",vertical,"(890.0, 262.0)",[1.55],[0.458],1,13737.344
5,False,293,1.024,61,[],[],"[(1042, 885)]",[],[1],[32],[0.5333333333333333],"[640.0, 512.0]",vertical,"(890.0, 262.0)",[0.5],[0.494],1,13742.518
5,False,294,0.788,47,[],[],"[(1069, 864)]",[],[1],[42],[0.7],"[640.0, 512.0]",vertical,"(390.0, 762.0)",[0.5],[0.653],1,13746.594
5,False,295,1.054,63,[],[],"[(1069, 885)]",[],[1],[33],[0.55],"[640.0, 512.0]",vertical,"(890.0, 262.0)",[0.7],[0.509],1,13750.579
5,False,296,0.942,56,[],[],"[(1080, 881)]",[],[1],[34],[0.5666666666666667],"[640.0, 512.0]",vertical,"(390.0, 262.0)",[1.05],[0.52],1,13754.853
5,False,297,1.115,66,[],[],"[(1081, 868)]",[],[1],[31],[0.5166666666666666],"[640.0, 512.0]",vertical,"(390.0, 262.0)",[1.1166666666666667],[0.476],1,13759.446
5,False,298,0.811,48,[],[],"[(1040, 905)]",[],[1],[34],[0.5666666666666667],"[640.0, 512.0]",vertical,"(390.0, 262.0)",[0.9833333333333333],[0.524],1,13764.016
5,False,299,0.982,58,[],[],"[(1033, 890)]",[],[1],[33],[0.55],"[640.0, 512.0]",vertical,"(390.0, 262.0)",[0.7666666666666666],[0.51],1,13768.353
5,False,300,1.095,65,[],[],"[(1042, 873)]",[],[1],[33],[0.55],"[640.0, 512.0]",vertical,"(390.0, 762.0)",[0.6666666666666666],[0.506],1,13772.653
6,False,301,0.909,54,[],[],"[(1042, 880)]",[],[1],[39],[0.65],"[640.0, 512.0]",vertical,"(890.0, 762.0)",[0.55],[0.604],1,13778.403
6,False,302,0.521,31,[],[],"[(1071, 885)]",[],[1],[31],[0.5166666666666666],"[640.0, 512.0]",vertical,"(390.0, 262.0)",[1.5],[0.474],1,13782.631
6,False,303,0.656,39,[],[],"[(1063, 876)]",[],[1],[34],[0.5666666666666667],"[640.0, 512.0]",vertical,"(890.0, 262.0)",[0.5166666666666666],[0.526],1,13787.201
6,False,304,1.182,70,[],[],"[(1067, 889)]",[],[1],[32],[0.5333333333333333],"[640.0, 512.0]",vertical,"(390.0, 762.0)",[0.5166666666666666],[0.494],1,13790.953
6,False,305,0.995,59,[],[],"[(1041, 876)]",[],[1],[36],[0.6],"[640.0, 512.0]",vertical,"(890.0, 262.0)",[0.5666666666666667],[0.559],1,13795.117
6,False,306,0.916,54,[],[],"[(1072, 880)]",[],[1],[33],[0.55],"[640.0, 512.0]",vertical,"(890.0, 762.0)",[1.6833333333333333],[0.506],1,13799.538
6,False,307,0.608,36,[],[],"[(1063, 878)]",[],[1],[32],[0.5333333333333333],"[640.0, 512.0]",horizontal,"(390.0, 262.0)",[1.55],[0.492],1,13804.704
6,False,308,0.561,33,[],[],"[(1060, 878)]",[],[1],[35],[0.5833333333333334],"[640.0, 512.0]",horizontal,"(390.0, 762.0)",[0.7],[0.542],1,13809.282
6,False,309,1.194,71,[],[],"[(1081, 876)]",[],[1],[38],[0.6333333333333333],"[640.0, 512.0]",horizontal,"(890.0, 262.0)",[1.5833333333333333],[0.59],1,13813.095
6,False,310,1.038,62,[],[],"[(1043, 885)]",[],[1],[9],[0.15],"[640.0, 512.0]",horizontal,"(390.0, 262.0)",[1.4],[0.116],1,13818.518
6,False,311,1.188,71,[],[],"[(1047, 883)]",[],[1],[33],[0.55],"[640.0, 512.0]",horizontal,"(390.0, 762.0)",[1.4333333333333333],[0.513],1,13823.402
6,False,312,0.743,44,[],[],"[(1071, 894)]",[],[1],[33],[0.55],"[640.0, 512.0]",horizontal,"(890.0, 262.0)",[0.7333333333333333],[0.511],1,13828.69
6,False,313,0.501,30,[],[],"[(1074, 894)]",[],[1],[35],[0.5833333333333334],"[640.0, 512.0]",vertical,"(390.0, 762.0)",[1.6833333333333333],[0.54],1,13832.603
6,False,314,0.662,39,[],[],"[(1038, 880)]",[],[1],[33],[0.55],"[640.0, 512.0]",horizontal,"(390.0, 762.0)",[1.55],[0.51],1,13858.122
6,False,315,0.576,34,[],[],"[(1035, 882)]",[],[1],[32],[0.5333333333333333],"[640.0, 512.0]",vertical,"(890.0, 762.0)",[1.1166666666666667],[0.492],1,13862.867
6,False,316,0.857,51,[],[],"[(1033, 904)]",[],[1],[31],[0.5166666666666666],"[640.0, 512.0]",horizontal,"(390.0, 262.0)",[1.2333333333333334],[0.48],1,13866.966
6,False,317,0.628,37,[],[],"[(1028, 889), (1080, 880)]",[],"[0, 1]",[31],[0.5166666666666666],"[640.0, 512.0]",horizontal,"(890.0, 262.0)",[0.7166666666666667],[0.475],1,13872.013
6,False,318,0.631,37,[],[],"[(1049, 892)]",[],[1],[34],[0.5666666666666667],"[640.0, 512.0]",horizontal,"(390.0, 762.0)",[1.0],[0.528],1,13877.62
6,False,319,0.586,35,[],[],"[(1033, 896)]",[],[1],[32],[0.5333333333333333],"[640.0, 512.0]",horizontal,"(890.0, 762.0)",[1.55],[0.488],1,13881.802
6,False,320,0.627,37,[],[],"[(1069, 871)]",[],[1],[32],[0.5333333333333333],"[640.0, 512.0]",horizontal,"(890.0, 262.0)",[0.6833333333333333],[0.493],1,13886.543
6,False,321,0.695,41,[],[],"[(1081, 891)]",[],[1],[39],[0.65],"[640.0, 512.0]",horizontal,"(890.0, 262.0)",[1.5666666666666667],[0.607],1,13890.471
6,False,322,0.533,31,[],[],"[(1067, 890)]",[],[1],[34],[0.5666666666666667],"[640.0, 512.0]",vertical,"(390.0, 762.0)",[1.6],[0.526],1,13895.319
6,False,323,0.604,36,[],[],"[(1033, 880)]",[],[1],[35],[0.5833333333333334],"[640.0, 512.0]",vertical,"(390.0, 262.0)",[1.4666666666666666],[0.541],1,13900.15
6,False,324,0.573,34,[],[],"[(1062, 885)]",[],[1],[33],[0.55],"[640.0, 512.0]",vertical,"(890.0, 262.0)",[1.5166666666666666],[0.504],1,13904.835
6,False,325,0.712,42,[],[],"[(1077, 895)]",[],[1],[38],[0.6333333333333333],"[640.0, 512.0]",horizontal,"(390.0, 762.0)",[0.75],[0.587],1,13909.616
6,False,326,0.632,37,[],[],"[(1068, 898)]",[],[1],[39],[0.65],"[640.0, 512.0]",horizontal,"(390.0, 762.0)",[0.8166666666666667],[0.608],1,13913.634
6,False,327,1.143,68,[],[],"[(1072, 889)]",[],[1],[39],[0.65],"[640.0, 512.0]",vertical,"(390.0, 762.0)",[0.85],[0.606],1,13917.732
6,False,328,1.003,60,[],[],"[(1074, 887)]",[],[1],[34],[0.5666666666666667],"[640.0, 512.0]",horizontal,"(390.0, 762.0)",[1.05],[0.521],1,13922.3
6,False,329,1.177,70,[],[],"[(1067, 900)]",[],[1],[33],[0.55],"[640.0, 512.0]",horizontal,"(390.0, 262.0)",[1.2],[0.507],1,13926.97
6,False,330,0.594,35,[],[],"[(1081, 893)]",[],[1],[34],[0.5666666666666667],"[640.0, 512.0]",vertical,"(890.0, 262.0)",[0.6666666666666666],[0.525],1,13931.959
6,False,331,0.569,34,[],[],"[(1044, 902)]",[],[1],[34],[0.5666666666666667],"[640.0, 512.0]",vertical,"(390.0, 762.0)",[0.6833333333333333],[0.527],1,13935.708
6,False,332,0.961,57,[],[],"[(1081, 893)]",[],[1],[33],[0.55],"[640.0, 512.0]",horizontal,"(390.0, 262.0)",[1.05],[0.507],1,13939.742
6,False,333,0.864,51,[],[],"[(1067, 876)]",[],[1],[34],[0.5666666666666667],"[640.0, 512.0]",vertical,"(890.0, 762.0)",[1.05],[0.525],1,13944.268
6,False,334,0.901,54,[],[],"[(1072, 895)]",[],[1],[31],[0.5166666666666666],"[640.0, 512.0]",horizontal,"(890.0, 762.0)",[0.8166666666666667],[0.474],1,13948.7
6,False,335,0.811,48,[],[],"[(1038, 871)]",[],[1],[35],[0.5833333333333334],"[640.0, 512.0]",horizontal,"(390.0, 262.0)",[1.6],[0.54],1,13953.087
6,False,336,1.12,67,[],[],"[(1043, 882)]",[],[1],[34],[0.5666666666666667],"[640.0, 512.0]",horizontal,"(390.0, 762.0)",[0.5666666666666667],[0.525],1,13957.97
6,False,337,0.545,32,[],[],"[(1038, 899)]",[],[1],[36],[0.6],"[640.0, 512.0]",vertical,"(890.0, 762.0)",[1.3333333333333333],[0.562],1,13962.304
6,False,338,1.019,61,[],[],"[(1067, 892)]",[],[1],[34],[0.5666666666666667],"[640.0, 512.0]",vertical,"(890.0, 762.0)",[1.6666666666666667],[0.529],1,13966.81
6,False,339,0.971,58,[],[],"[(1081, 881)]",[],[1],[36],[0.6],"[640.0, 512.0]",vertical,"(890.0, 762.0)",[1.1166666666666667],[0.556],1,13972.128
6,False,340,1.082,64,[],[],"[(1061, 894)]",[],[1],[32],[0.5333333333333333],"[640.0, 512.0]",horizontal,"(390.0, 262.0)",[1.1],[0.492],1,13976.953
6,False,341,0.751,45,[],[],"[(1080, 885)]",[],[1],[35],[0.5833333333333334],"[640.0, 512.0]",horizontal,"(390.0, 762.0)",[1.5],[0.549],1,13981.833
6,False,342,0.608,36,[],[],"[(1081, 875)]",[],[1],[30],[0.5],"[640.0, 512.0]",vertical,"(390.0, 262.0)",[0.75],[0.459],1,13986.687
6,False,343,0.792,47,[],[],"[(1081, 886)]",[],[1],[32],[0.5333333333333333],"[640.0, 512.0]",horizontal,"(390.0, 262.0)",[1.6166666666666667],[0.493],1,13990.645
6,False,344,0.721,43,[],[],"[(1081, 878)]",[],[1],[9],[0.15],"[640.0, 512.0]",horizontal,"(390.0, 262.0)",[1.6166666666666667],[0.117],1,13995.499
6,False,345,0.818,49,[],[],"[(1067, 882)]",[],[1],[30],[0.5],"[640.0, 512.0]",horizontal,"(890.0, 262.0)",[1.0333333333333332],[0.459],1,13999.901
6,False,346,0.656,39,[],[],"[(1079, 893)]",[],[1],[32],[0.5333333333333333],"[640.0, 512.0]",horizontal,"(890.0, 262.0)",[1.05],[0.495],1,14004.41
6,False,347,0.632,37,[],[],"[(1081, 900)]",[],[1],[37],[0.6166666666666667],"[640.0, 512.0]",horizontal,"(890.0, 762.0)",[1.65],[0.572],1,14008.626
6,False,348,0.945,56,[],[],"[(1081, 895)]",[],[1],[35],[0.5833333333333334],"[640.0, 512.0]",vertical,"(390.0, 762.0)",[0.5],[0.539],1,14013.534
6,False,349,1.128,67,[],[],"[(1072, 900)]",[],[1],[41],[0.6833333333333333],"[640.0, 512.0]",horizontal,"(890.0, 762.0)",[1.45],[0.641],1,14017.551
6,False,350,0.544,32,[],[],"[(1063, 885)]",[],[1],[36],[0.6],"[640.0, 512.0]",horizontal,"(890.0, 762.0)",[0.6166666666666667],[0.553],1,14022.699
6,False,351,1.051,63,[],[],"[(1072, 905)]",[],[1],[41],[0.6833333333333333],"[640.0, 512.0]",horizontal,"(390.0, 762.0)",[1.4166666666666667],[0.638],1,14026.589
6,False,352,0.59,35,[],[],"[(1081, 899)]",[],[1],[35],[0.5833333333333334],"[640.0, 512.0]",vertical,"(890.0, 762.0)",[1.5166666666666666],[0.539],1,14031.734
6,False,353,1.174,70,[],[],"[(1074, 889)]",[],[1],[46],[0.7666666666666666],"[640.0, 512.0]",horizontal,"(890.0, 762.0)",[1.0666666666666667],[0.718],1,14036.334
6,False,354,1.04,62,[],[],"[(1072, 902)]",[],[1],[37],[0.6166666666666667],"[640.0, 512.0]",horizontal,"(890.0, 262.0)",[1.65],[0.57],1,14041.22
6,False,355,0.931,55,[],[],"[(1081, 886)]",[],[1],[33],[0.55],"[640.0, 512.0]",horizontal,"(890.0, 762.0)",[0.7333333333333333],[0.507],1,14046.481
6,False,356,1.141,68,[],[],"[(1081, 897)]",[],[1],[30],[0.5],"[640.0, 512.0]",horizontal,"(390.0, 262.0)",[1.2666666666666666],[0.457],1,14050.678
6,False,357,0.826,49,[],[],"[(1072, 901)]",[],[1],[40],[0.6666666666666666],"[640.0, 512.0]",horizontal,"(390.0, 262.0)",[0.8166666666666667],[0.622],1,14055.556
6,False,358,1.061,63,[],[],"[(1067, 903)]",[],[1],[29],[0.48333333333333334],"[640.0, 512.0]",horizontal,"(390.0, 262.0)",[0.9666666666666667],[0.443],1,14059.754
6,False,359,1.181,70,[],[],"[(1076, 883)]",[],[1],[34],[0.5666666666666667],"[640.0, 512.0]",horizontal,"(390.0, 262.0)",[0.5833333333333334],[0.525],1,14064.616
6,False,360,0.73,43,[],[],"[(1081, 892)]",[],[1],[36],[0.6],"[640.0, 512.0]",vertical,"(390.0, 262.0)",[0.5166666666666666],[0.552],1,14068.77
7,False,361,0.823,49,[],[],"[(1081, 890)]",[],[1],[35],[0.5833333333333334],"[640.0, 512.0]",vertical,"(890.0, 762.0)",[0.9],[0.54],1,14072.55
7,False,362,0.649,38,[],[],"[(1081, 887)]",[],[1],[],[],"[640.0, 512.0]",vertical,"(390.0, 762.0)",[],[0],0,14076.936
7,False,363,0.791,47,[],[],"[(1078, 890)]",[],[1],[34],[0.5666666666666667],"[640.0, 512.0]",vertical,"(390.0, 262.0)",[0.8666666666666667],[0.527],1,14080.838
7,False,364,1.052,63,[],[],"[(1040, 900)]",[],[1],[33],[0.55],"[640.0, 512.0]",horizontal,"(890.0, 762.0)",[0.5666666666666667],[0.504],1,14084.984
7,False,365,0.541,32,[],[],"[(1038, 900)]",[],[1],[35],[0.5833333333333334],"[640.0, 512.0]",horizontal,"(890.0, 262.0)",[0.9333333333333333],[0.546],1,14089.233
7,False,366,1.035,62,[],[],"[(1081, 894)]",[],[1],[33],[0.55],"[640.0, 512.0]",horizontal,"(390.0, 762.0)",[0.5833333333333334],[0.513],1,14093.399
7,False,367,0.685,41,[],[],"[(1042, 898)]",[],[1],[28],[0.4666666666666667],"[640.0, 512.0]",horizontal,"(390.0, 262.0)",[1.1],[0.424],1,14097.42
7,False,368,1.005,60,[],[],"[(1038, 910)]",[],[1],[30],[0.5],"[640.0, 512.0]",vertical,"(390.0, 262.0)",[1.6333333333333333],[0.459],1,14101.672
7,False,369,0.625,37,[],[],"[(1047, 900)]",[],[1],[37],[0.6166666666666667],"[640.0, 512.0]",horizontal,"(390.0, 762.0)",[1.1333333333333333],[0.575],1,14106.775
7,False,370,0.967,58,[],[],"[(1079, 885)]",[],[1],[33],[0.55],"[640.0, 512.0]",horizontal,"(390.0, 762.0)",[1.6666666666666667],[0.512],1,14111.468
7,False,371,0.812,48,[],[],"[(1060, 886)]",[],[1],[34],[0.5666666666666667],"[640.0, 512.0]",horizontal,"(390.0, 762.0)",[0.7166666666666667],[0.525],1,14116.687
7,False,372,0.987,59,[],[],"[(1061, 886)]",[],[1],[38],[0.6333333333333333],"[640.0, 512.0]",vertical,"(890.0, 262.0)",[1.4],[0.604],1,14120.82
7,False,373,0.732,43,[],[],"[(1081, 880)]",[],[1],[35],[0.5833333333333334],"[640.0, 512.0]",horizontal,"(890.0, 262.0)",[1.5833333333333333],[0.54],1,14125.731
7,False,374,0.618,37,[],[],"[(1072, 885)]",[],[1],[34],[0.5666666666666667],"[640.0, 512.0]",vertical,"(390.0, 262.0)",[1.6166666666666667],[0.525],1,14130.633
7,False,375,0.874,52,[],[],"[(1042, 894)]",[],[1],[34],[0.5666666666666667],"[640.0, 512.0]",vertical,"(890.0, 762.0)",[0.8333333333333334],[0.524],1,14135.497
7,False,376,1.05,63,[],[],"[(1038, 871)]",[],[1],[32],[0.5333333333333333],"[640.0, 512.0]",vertical,"(890.0, 762.0)",[1.1833333333333333],[0.488],1,14141.2
7,False,377,0.545,32,[],[],"[(1038, 885)]",[],[1],[33],[0.55],"[640.0, 512.0]",horizontal,"(390.0, 262.0)",[0.6333333333333333],[0.51],1,14152.004
7,False,378,0.763,45,[],[],"[(1042, 895)]",[],[1],[34],[0.5666666666666667],"[640.0, 512.0]",horizontal,"(390.0, 762.0)",[1.5166666666666666],[0.528],1,14155.784
7,False,379,0.767,46,[],[],"[(1038, 895)]",[],[1],[36],[0.6],"[640.0, 512.0]",vertical,"(890.0, 762.0)",[0.6166666666666667],[0.558],1,14160.571
7,False,380,1.113,66,[],[],"[(1072, 880)]",[],[1],[32],[0.5333333333333333],"[640.0, 512.0]",horizontal,"(390.0, 762.0)",[0.5166666666666666],[0.493],1,14164.532
7,False,381,0.67,40,[],[],"[(1042, 900)]",[],[1],[33],[0.55],"[640.0, 512.0]",horizontal,"(890.0, 762.0)",[1.3166666666666667],[0.511],1,14168.716
7,False,382,1.016,60,[],[],"[(1059, 873)]",[],[1],[37],[0.6166666666666667],"[640.0, 512.0]",vertical,"(890.0, 262.0)",[0.9666666666666667],[0.574],1,14173.108
7,False,383,0.893,53,[],[],"[(1079, 897)]",[],[1],[32],[0.5333333333333333],"[640.0, 512.0]",horizontal,"(390.0, 262.0)",[0.5833333333333334],[0.502],1,14177.757
7,False,384,0.983,58,[],[],"[(1051, 895)]",[],[1],[33],[0.55],"[640.0, 512.0]",vertical,"(890.0, 762.0)",[0.8333333333333334],[0.521],1,14181.875
7,False,385,0.861,51,[],[],"[(1042, 902)]",[],[1],[35],[0.5833333333333334],"[640.0, 512.0]",vertical,"(390.0, 762.0)",[0.9833333333333333],[0.54],1,14186.229
7,False,386,1.127,67,[],[],"[(1072, 895)]",[],[1],[35],[0.5833333333333334],"[640.0, 512.0]",horizontal,"(890.0, 762.0)",[0.85],[0.546],1,14190.601
7,False,387,0.612,36,[],[],"[(1071, 881)]",[],[1],[32],[0.5333333333333333],"[640.0, 512.0]",vertical,"(390.0, 262.0)",[0.8166666666666667],[0.492],1,14195.202
7,False,388,1.086,65,[],[],"[(1072, 901)]",[],[1],[35],[0.5833333333333334],"[640.0, 512.0]",vertical,"(890.0, 262.0)",[0.55],[0.54],1,14199.216
7,False,389,0.734,44,[],[],"[(1080, 899)]",[],[1],[34],[0.5666666666666667],"[640.0, 512.0]",horizontal,"(890.0, 762.0)",[1.4333333333333333],[0.529],1,14203.411
7,False,390,0.67,40,[],[],"[(1072, 879)]",[],[1],[33],[0.55],"[640.0, 512.0]",horizontal,"(390.0, 262.0)",[0.7],[0.514],1,14208.202
7,False,391,0.923,55,[],[],"[(1081, 895)]",[],[1],[38],[0.6333333333333333],"[640.0, 512.0]",vertical,"(390.0, 762.0)",[0.65],[0.593],1,14212.136
7,False,392,0.737,44,[],[],"[(1081, 899)]",[],[1],[34],[0.5666666666666667],"[640.0, 512.0]",horizontal,"(390.0, 762.0)",[1.1],[0.532],1,14216.315
7,False,393,1.129,67,[],[],"[(1067, 881)]",[],[1],[42],[0.7],"[640.0, 512.0]",horizontal,"(390.0, 762.0)",[1.0166666666666666],[0.656],1,14220.633
7,False,394,0.51,30,[],[],"[(1072, 872)]",[],[1],[33],[0.55],"[640.0, 512.0]",horizontal,"(390.0, 262.0)",[0.9166666666666666],[0.508],1,14225.405
7,False,395,0.872,52,[],[],"[(1081, 893)]",[],[1],[35],[0.5833333333333334],"[640.0, 512.0]",horizontal,"(890.0, 762.0)",[1.3833333333333333],[0.537],1,14229.323
7,False,396,0.535,32,[],[],"[(1081, 875)]",[],[1],[33],[0.55],"[640.0, 512.0]",vertical,"(890.0, 262.0)",[0.7166666666666667],[0.515],1,14234.303
7,False,397,0.764,45,[],[],"[(1081, 873)]",[],[1],[29],[0.48333333333333334],"[640.0, 512.0]",horizontal,"(390.0, 262.0)",[1.1666666666666667],[0.441],1,14238.112
7,False,398,0.997,59,[],[],"[(1081, 902)]",[],[1],[33],[0.55],"[640.0, 512.0]",horizontal,"(390.0, 762.0)",[1.6],[0.519],1,14242.528
7,False,399,0.914,54,[],[],"[(1081, 894)]",[],[1],[41],[0.6833333333333333],"[640.0, 512.0]",vertical,"(890.0, 762.0)",[1.15],[0.649],1,14247.605
7,False,400,0.944,56,[],[],"[(1081, 871)]",[],[1],[35],[0.5833333333333334],"[640.0, 512.0]",horizontal,"(890.0, 262.0)",[1.2333333333333334],[0.539],1,14252.369
7,False,401,0.683,40,[],[],"[(1078, 871)]",[],[1],[32],[0.5333333333333333],"[640.0, 512.0]",vertical,"(890.0, 262.0)",[1.5333333333333332],[0.496],1,14257.205
7,False,402,1.038,62,[],[],"[(1079, 888)]",[],[1],[24],[0.4],"[640.0, 512.0]",horizontal,"(390.0, 262.0)",[1.5333333333333332],[0.36],1,14261.89
7,False,403,0.68,40,[],[],"[(1082, 877)]",[],[1],[34],[0.5666666666666667],"[640.0, 512.0]",vertical,"(390.0, 262.0)",[0.5],[0.523],1,14267.104
7,False,404,1.064,63,[],[],"[(1079, 876)]",[],[1],[19],[0.31666666666666665],"[640.0, 512.0]",vertical,"(890.0, 762.0)",[1.6166666666666667],[0.282],1,14270.942
7,False,405,0.591,35,[],[],"[(1082, 880)]",[],[1],[31],[0.5166666666666666],"[640.0, 512.0]",horizontal,"(390.0, 262.0)",[0.7],[0.478],1,14276.038
7,False,406,1.115,66,[],[],"[(1076, 895)]",[],[1],[36],[0.6],"[640.0, 512.0]",horizontal,"(890.0, 762.0)",[1.2166666666666666],[0.559],1,14279.895
7,False,407,1.058,63,[],[],"[(1079, 867)]",[],[1],[38],[0.6333333333333333],"[640.0, 512.0]",vertical,"(390.0, 762.0)",[0.8833333333333333],[0.589],1,14284.822
7,False,408,1.006,60,[],[],"[(1036, 890)]",[],[1],[40],[0.6666666666666666],"[640.0, 512.0]",horizontal,"(390.0, 762.0)",[1.4666666666666666],[0.623],1,14289.395
7,False,409,0.93,55,[],[],"[(1065, 895)]",[],[1],[33],[0.55],"[640.0, 512.0]",horizontal,"(890.0, 262.0)",[0.85],[0.51],1,14294.404
7,False,410,1.028,61,[],[],"[(1081, 895)]",[],[1],[33],[0.55],"[640.0, 512.0]",horizontal,"(390.0, 262.0)",[0.9833333333333333],[0.508],1,14298.671
7,False,411,0.886,53,[],[],"[(1079, 910)]",[],[1],[36],[0.6],"[640.0, 512.0]",vertical,"(390.0, 762.0)",[1.25],[0.556],1,14303.209
7,False,412,0.74,44,[],[],"[(1081, 889)]",[],[1],[35],[0.5833333333333334],"[640.0, 512.0]",vertical,"(390.0, 262.0)",[0.75],[0.549],1,14308.021
7,False,413,1.17,70,[],[],"[(1079, 895)]",[],[1],[],[],"[640.0, 512.0]",vertical,"(390.0, 762.0)",[],[0],0,14312.106
7,False,414,1.029,61,[],[],"[(1072, 892)]",[],[1],[36],[0.6],"[640.0, 512.0]",horizontal,"(390.0, 262.0)",[0.7166666666666667],[0.559],1,14316.274
7,False,415,0.883,52,[],[],"[(1083, 895)]",[],[1],[34],[0.5666666666666667],"[640.0, 512.0]",horizontal,"(390.0, 762.0)",[1.3166666666666667],[0.528],1,14322.485
7,False,416,0.549,32,[],[],"[(1080, 871)]",[],[1],[31],[0.5166666666666666],"[640.0, 512.0]",vertical,"(390.0, 262.0)",[1.4166666666666667],[0.479],1,14327.35
7,False,417,1.097,65,[],[],"[(1081, 868)]",[],[1],[35],[0.5833333333333334],"[640.0, 512.0]",horizontal,"(390.0, 762.0)",[0.9166666666666666],[0.539],1,14331.821
7,False,418,0.723,43,[],[],"[(1067, 888)]",[],[1],[35],[0.5833333333333334],"[640.0, 512.0]",vertical,"(890.0, 762.0)",[1.65],[0.542],1,14336.406
7,False,419,1.17,70,[],[],"[(1079, 881)]",[],[1],[32],[0.5333333333333333],"[640.0, 512.0]",vertical,"(890.0, 762.0)",[0.8333333333333334],[0.493],1,14341.491
7,False,420,0.615,36,[],[],"[(1062, 897)]",[],[1],[37],[0.6166666666666667],"[640.0, 512.0]",horizontal,"(390.0, 262.0)",[0.5833333333333334],[0.573],1,14346.185
8,False,421,0.975,58,[],[],"[(1074, 895)]",[],[1],[42],[0.7],"[640.0, 512.0]",horizontal,"(890.0, 762.0)",[1.0],[0.66],1,14349.973
8,False,422,0.909,54,[],[],"[(1072, 888)]",[],[1],[32],[0.5333333333333333],"[640.0, 512.0]",vertical,"(390.0, 262.0)",[1.3833333333333333],[0.494],1,14354.665
8,False,423,0.893,53,[],[],"[(1048, 890)]",[],[1],[41],[0.6833333333333333],"[640.0, 512.0]",vertical,"(890.0, 762.0)",[1.25],[0.641],1,14426.456
8,False,424,1.083,64,[],[],"[(1041, 898)]",[],[1],[37],[0.6166666666666667],"[640.0, 512.0]",horizontal,"(390.0, 262.0)",[1.0833333333333333],[0.579],1,14431.285
8,False,425,0.805,48,[],[],"[(1081, 880)]",[],[1],[32],[0.5333333333333333],"[640.0, 512.0]",vertical,"(390.0, 762.0)",[1.0666666666666667],[0.493],1,14436.214
8,False,426,0.905,54,[],[],"[(1071, 896)]",[],[1],[10],[0.16666666666666666],"[640.0, 512.0]",horizontal,"(390.0, 262.0)",[1.55],[0.135],1,14440.472
8,False,427,0.71,42,[],[],"[(1042, 902)]",[],[1],[36],[0.6],"[640.0, 512.0]",horizontal,"(890.0, 262.0)",[1.6666666666666667],[0.56],1,14445.04
8,False,428,0.826,49,[],[],"[(1042, 885)]",[],[1],[33],[0.55],"[640.0, 512.0]",vertical,"(390.0, 262.0)",[0.7166666666666667],[0.514],1,14449.91
8,False,429,0.806,48,[],[],"[(1076, 881)]",[],[1],[32],[0.5333333333333333],"[640.0, 512.0]",horizontal,"(390.0, 262.0)",[0.85],[0.494],1,14454.018
8,False,430,0.874,52,[],[],"[(1043, 895)]",[],[1],[33],[0.55],"[640.0, 512.0]",horizontal,"(390.0, 262.0)",[1.6],[0.51],1,14458.239
8,False,431,1.114,66,[],[],"[(1067, 898)]",[],[1],[26],[0.43333333333333335],"[640.0, 512.0]",horizontal,"(390.0, 262.0)",[1.5],[0.396],1,14463.323
8,False,432,0.556,33,[],[],"[(1063, 877)]",[],[1],[38],[0.6333333333333333],"[640.0, 512.0]",vertical,"(890.0, 262.0)",[0.5],[0.586],1,14468.29
8,False,433,0.763,45,[],[],"[(1063, 894)]",[],[1],[38],[0.6333333333333333],"[640.0, 512.0]",vertical,"(390.0, 262.0)",[0.5333333333333333],[0.592],1,14472.0
8,False,434,0.77,46,[],[],"[(1079, 883)]",[],[1],[33],[0.55],"[640.0, 512.0]",horizontal,"(890.0, 262.0)",[1.2666666666666666],[0.509],1,14476.007
8,False,435,1.145,68,[],[],"[(1082, 872)]",[],[1],[32],[0.5333333333333333],"[640.0, 512.0]",horizontal,"(390.0, 762.0)",[1.25],[0.503],1,14480.562
8,False,436,0.988,59,[],[],"[(1076, 901)]",[],[1],[51],[0.85],"[640.0, 512.0]",vertical,"(890.0, 262.0)",[1.65],[0.796],0,14485.596
8,False,437,1.004,60,[],[],"[(1053, 885)]",[],[1],[34],[0.5666666666666667],"[640.0, 512.0]",horizontal,"(390.0, 762.0)",[1.3666666666666667],[0.523],1,14490.982
8,False,438,0.514,30,[],[],"[(1076, 902)]",[],[1],[34],[0.5666666666666667],"[640.0, 512.0]",vertical,"(890.0, 262.0)",[1.2833333333333332],[0.531],1,14496.052
8,False,439,0.92,55,[],[],"[(1082, 893)]",[],[1],[31],[0.5166666666666666],"[640.0, 512.0]",vertical,"(890.0, 762.0)",[0.7833333333333333],[0.482],1,14500.395
8,False,440,0.981,58,[],[],"[(1077, 890)]",[],[1],[32],[0.5333333333333333],"[640.0, 512.0]",vertical,"(390.0, 262.0)",[0.7333333333333333],[0.493],1,14504.553
8,False,441,1.037,62,[],[],"[(1079, 893)]",[],[1],[37],[0.6166666666666667],"[640.0, 512.0]",vertical,"(890.0, 262.0)",[0.7666666666666666],[0.583],1,14508.884
8,False,442,1.169,70,[],[],"[(1067, 895)]",[],[1],[31],[0.5166666666666666],"[640.0, 512.0]",vertical,"(890.0, 762.0)",[1.1833333333333333],[0.475],1,14513.235
8,False,443,0.887,53,[],[],"[(1071, 883)]",[],[1],[39],[0.65],"[640.0, 512.0]",horizontal,"(890.0, 762.0)",[0.5333333333333333],[0.606],1,14518.02
8,False,444,1.106,66,[],[],"[(1081, 875)]",[],[1],[31],[0.5166666666666666],"[640.0, 512.0]",horizontal,"(390.0, 262.0)",[0.7333333333333333],[0.471],1,14521.994
8,False,445,0.53,31,[],[],"[(1081, 881)]",[],[1],[33],[0.55],"[640.0, 512.0]",vertical,"(890.0, 762.0)",[1.2666666666666666],[0.514],1,14526.351
8,False,446,0.819,49,[],[],"[(1077, 895)]",[],[1],[],[],"[640.0, 512.0]",vertical,"(390.0, 762.0)",[],[0],0,14530.704
8,False,447,1.059,63,[],[],"[(1081, 876)]",[],[1],[34],[0.5666666666666667],"[640.0, 512.0]",horizontal,"(890.0, 762.0)",[1.5666666666666667],[0.525],1,14535.586
8,False,448,1.113,66,[],[],"[(1079, 885)]",[],[1],[22],[0.36666666666666664],"[640.0, 512.0]",horizontal,"(390.0, 262.0)",[1.5333333333333332],[0.329],1,14540.852
8,False,449,0.83,49,[],[],"[(1076, 885)]",[],[1],[33],[0.55],"[640.0, 512.0]",horizontal,"(890.0, 762.0)",[0.5166666666666666],[0.512],1,14545.752
8,False,450,0.719,43,[],[],"[(1076, 904)]",[],[1],[32],[0.5333333333333333],"[640.0, 512.0]",horizontal,"(390.0, 262.0)",[1.4666666666666666],[0.495],1,14549.685
8,False,451,0.642,38,[],[],"[(1072, 903)]",[],[1],[32],[0.5333333333333333],"[640.0, 512.0]",vertical,"(890.0, 262.0)",[0.8666666666666667],[0.486],1,14554.312
8,False,452,0.658,39,[],[],"[(1039, 933)]",[],[1],[35],[0.5833333333333334],"[640.0, 512.0]",horizontal,"(890.0, 762.0)",[1.2333333333333334],[0.537],1,14558.221
8,False,453,0.597,35,[],[],"[(1071, 894)]",[],[1],[32],[0.5333333333333333],"[640.0, 512.0]",horizontal,"(890.0, 762.0)",[1.05],[0.491],1,14562.775
8,False,454,0.586,35,[],[],"[(1052, 885)]",[],[1],[33],[0.55],"[640.0, 512.0]",horizontal,"(890.0, 262.0)",[1.55],[0.514],1,14567.042
8,False,455,1.004,60,[],[],"[(1078, 891)]",[],[1],[33],[0.55],"[640.0, 512.0]",vertical,"(890.0, 762.0)",[1.1666666666666667],[0.504],1,14571.668
8,False,456,0.589,35,[],[],"[(1047, 918)]",[],[1],[35],[0.5833333333333334],"[640.0, 512.0]",vertical,"(390.0, 262.0)",[0.7833333333333333],[0.54],1,14576.269
8,False,457,1.061,63,[],[],"[(1067, 896)]",[],[1],[33],[0.55],"[640.0, 512.0]",vertical,"(890.0, 262.0)",[0.8166666666666667],[0.509],1,14580.24
8,False,458,0.749,44,[],[],"[(1023, 905), (1091, 869)]",[],"[0, 1]",[42],[0.7],"[640.0, 512.0]",horizontal,"(390.0, 262.0)",[1.1833333333333333],[0.653],1,14584.685
8,False,459,0.914,54,[],[],"[(1058, 908)]",[],[1],[31],[0.5166666666666666],"[640.0, 512.0]",vertical,"(890.0, 262.0)",[0.6833333333333333],[0.476],1,14590.649
8,False,460,1.12,67,[],[],"[(1052, 876)]",[],[1],[30],[0.5],"[640.0, 512.0]",vertical,"(390.0, 262.0)",[0.75],[0.458],1,14594.774
8,False,461,1.085,65,[],[],"[(1062, 903)]",[],[1],[33],[0.55],"[640.0, 512.0]",horizontal,"(390.0, 262.0)",[1.1833333333333333],[0.508],1,14599.003
8,False,462,0.909,54,[],[],"[(1081, 894)]",[],[1],[37],[0.6166666666666667],"[640.0, 512.0]",vertical,"(390.0, 262.0)",[1.6333333333333333],[0.578],1,14603.85
8,False,463,1.178,70,[],[],"[(1058, 907)]",[],[1],[34],[0.5666666666666667],"[640.0, 512.0]",vertical,"(890.0, 762.0)",[1.0],[0.526],1,14608.988
8,False,464,0.756,45,[],[],"[(1081, 874)]",[],[1],[34],[0.5666666666666667],"[640.0, 512.0]",vertical,"(390.0, 262.0)",[1.15],[0.534],1,14613.614
8,False,465,0.91,54,[],[],"[(1081, 890)]",[],[1],[34],[0.5666666666666667],"[640.0, 512.0]",horizontal,"(390.0, 262.0)",[0.75],[0.528],1,14618.172
8,False,466,1.101,66,[],[],"[(1079, 893)]",[],[1],[40],[0.6666666666666666],"[640.0, 512.0]",vertical,"(390.0, 762.0)",[1.6833333333333333],[0.621],1,14622.532
8,False,467,0.719,43,[],[],"[(1058, 890)]",[],[1],[33],[0.55],"[640.0, 512.0]",vertical,"(890.0, 262.0)",[0.7666666666666666],[0.507],1,14627.781
8,False,468,0.503,30,[],[],"[(1052, 910)]",[],[1],[35],[0.5833333333333334],"[640.0, 512.0]",horizontal,"(390.0, 762.0)",[1.0666666666666667],[0.541],1,14631.887
8,False,469,0.936,56,[],[],"[(1033, 923)]",[],[1],[33],[0.55],"[640.0, 512.0]",horizontal,"(890.0, 262.0)",[0.8833333333333333],[0.507],1,14636.04
8,False,470,0.72,43,[],[],"[(1079, 879)]",[],[1],[33],[0.55],"[640.0, 512.0]",horizontal,"(390.0, 262.0)",[0.9833333333333333],[0.507],1,14640.346
8,False,471,0.948,56,[],[],"[(1053, 886)]",[],[1],[32],[0.5333333333333333],"[640.0, 512.0]",vertical,"(390.0, 262.0)",[1.2],[0.491],1,14644.613
8,False,472,0.96,57,[],[],"[(1050, 877)]",[],[1],[31],[0.5166666666666666],"[640.0, 512.0]",vertical,"(890.0, 762.0)",[1.1666666666666667],[0.478],1,14649.084
8,False,473,0.961,57,[],[],"[(1071, 890)]",[],[1],[34],[0.5666666666666667],"[640.0, 512.0]",horizontal,"(890.0, 762.0)",[1.0333333333333332],[0.524],1,14653.591
8,False,474,0.709,42,[],[],"[(1072, 876)]",[],[1],[31],[0.5166666666666666],"[640.0, 512.0]",horizontal,"(890.0, 262.0)",[1.0833333333333333],[0.475],1,14658.007
8,False,475,0.961,57,[],[],"[(1076, 888)]",[],[1],[43],[0.7166666666666667],"[640.0, 512.0]",horizontal,"(390.0, 262.0)",[0.9666666666666667],[0.672],1,14662.352
8,False,476,1.078,64,[],[],"[(1081, 868)]",[],[1],[35],[0.5833333333333334],"[640.0, 512.0]",vertical,"(890.0, 762.0)",[1.2333333333333334],[0.54],1,14666.937
8,False,477,0.955,57,[],[],"[(1081, 874)]",[],[1],[33],[0.55],"[640.0, 512.0]",horizontal,"(390.0, 762.0)",[0.5333333333333333],[0.508],1,14671.765
8,False,478,0.69,41,[],[],"[(1076, 879)]",[],[1],[35],[0.5833333333333334],"[640.0, 512.0]",vertical,"(390.0, 762.0)",[0.9166666666666666],[0.54],1,14675.89
8,False,479,1.091,65,[],[],"[(1050, 880)]",[],[1],[35],[0.5833333333333334],"[640.0, 512.0]",vertical,"(390.0, 762.0)",[0.5833333333333334],[0.54],1,14679.934
8,False,480,0.783,46,[],[],"[(1076, 879)]",[],[1],[39],[0.65],"[640.0, 512.0]",vertical,"(390.0, 762.0)",[0.7666666666666666],[0.605],1,14684.206
9,False,481,1.156,69,[],[],"[(1028, 884), (1081, 860)]",[],"[0, 1]",[36],[0.6],"[640.0, 512.0]",horizontal,"(390.0, 762.0)",[1.4666666666666666],[0.554],1,14688.392
9,False,482,0.775,46,[],[],"[(1049, 879)]",[],[1],[36],[0.6],"[640.0, 512.0]",vertical,"(890.0, 762.0)",[0.6166666666666667],[0.561],1,14694.784
9,False,483,0.93,55,[],[],"[(1059, 892)]",[],[1],[32],[0.5333333333333333],"[640.0, 512.0]",horizontal,"(890.0, 262.0)",[1.3],[0.489],1,14698.742
9,False,484,1.091,65,[],[],"[(1042, 877)]",[],[1],[33],[0.55],"[640.0, 512.0]",vertical,"(890.0, 762.0)",[1.3666666666666667],[0.51],1,14704.685
9,False,485,1.195,71,[],[],"[(1047, 886)]",[],[1],[29],[0.48333333333333334],"[640.0, 512.0]",vertical,"(890.0, 262.0)",[0.95],[0.443],1,14709.566
9,False,486,0.923,55,[],[],"[(1063, 885)]",[],[1],[34],[0.5666666666666667],"[640.0, 512.0]",horizontal,"(890.0, 762.0)",[0.6666666666666666],[0.524],1,14714.153
9,False,487,0.723,43,[],[],"[(1072, 881)]",[],[1],[34],[0.5666666666666667],"[640.0, 512.0]",vertical,"(890.0, 762.0)",[1.2],[0.528],1,14718.563
9,False,488,0.548,32,[],[],"[(1047, 888)]",[],[1],[34],[0.5666666666666667],"[640.0, 512.0]",vertical,"(890.0, 762.0)",[1.05],[0.524],1,14722.942
9,False,489,1.18,70,[],[],"[(1039, 875)]",[],[1],[34],[0.5666666666666667],"[640.0, 512.0]",horizontal,"(890.0, 762.0)",[0.8333333333333334],[0.524],1,14727.139
9,False,490,0.848,50,[],[],"[(1071, 892)]",[],[1],[32],[0.5333333333333333],"[640.0, 512.0]",horizontal,"(390.0, 762.0)",[0.5666666666666667],[0.497],1,14731.822
9,False,491,0.831,49,[],[],"[(1040, 881)]",[],[1],[22],[0.36666666666666664],"[640.0, 512.0]",vertical,"(390.0, 262.0)",[1.5833333333333333],[0.327],1,14735.814
9,False,492,0.898,53,[],[],"[(1042, 903)]",[],[1],[33],[0.55],"[640.0, 512.0]",vertical,"(890.0, 762.0)",[1.1],[0.507],1,14740.519
9,False,493,0.629,37,[],[],"[(1040, 895)]",[],[1],[32],[0.5333333333333333],"[640.0, 512.0]",vertical,"(390.0, 762.0)",[0.5166666666666666],[0.495],1,14745.137
9,False,494,1.198,71,[],[],"[(1045, 900)]",[],[1],[34],[0.5666666666666667],"[640.0, 512.0]",vertical,"(390.0, 262.0)",[1.0666666666666667],[0.525],1,14748.99
9,False,495,0.653,39,[],[],"[(1053, 871)]",[],[1],[32],[0.5333333333333333],"[640.0, 512.0]",vertical,"(890.0, 262.0)",[0.9166666666666666],[0.49],1,14753.737
9,False,496,0.879,52,[],[],"[(1046, 884)]",[],[1],[33],[0.55],"[640.0, 512.0]",horizontal,"(390.0, 762.0)",[1.3666666666666667],[0.508],1,14757.688
9,False,497,0.826,49,[],[],"[(1081, 900)]",[],[1],[32],[0.5333333333333333],"[640.0, 512.0]",horizontal,"(890.0, 262.0)",[1.45],[0.496],1,14762.338
9,False,498,0.511,30,[],[],"[(1038, 890)]",[],[1],[33],[0.55],"[640.0, 512.0]",horizontal,"(390.0, 262.0)",[0.9666666666666667],[0.508],1,14767.022
9,False,499,0.9,54,[],[],"[(1046, 898)]",[],[1],[32],[0.5333333333333333],"[640.0, 512.0]",vertical,"(390.0, 762.0)",[1.6333333333333333],[0.494],1,14770.957
9,False,500,0.714,42,[],[],"[(1058, 876)]",[],[1],[34],[0.5666666666666667],"[640.0, 512.0]",horizontal,"(890.0, 762.0)",[1.3833333333333333],[0.529],1,14776.014
9,False,501,0.523,31,[],[],"[(1039, 883)]",[],[1],[35],[0.5833333333333334],"[640.0, 512.0]",horizontal,"(390.0, 762.0)",[1.45],[0.538],1,14780.801
9,False,502,0.539,32,[],[],"[(1034, 916)]",[],[1],[46],[0.7666666666666666],"[640.0, 512.0]",vertical,"(890.0, 262.0)",[1.1833333333333333],[0.719],1,14785.332
9,False,503,0.729,43,[],[],"[(1053, 876)]",[],[1],[38],[0.6333333333333333],"[640.0, 512.0]",vertical,"(390.0, 762.0)",[1.5333333333333332],[0.592],1,14789.828
9,False,504,1.038,62,[],[],"[(1042, 905)]",[],[1],[33],[0.55],"[640.0, 512.0]",vertical,"(890.0, 762.0)",[0.85],[0.511],1,14794.614
9,False,505,1.136,68,[],[],"[(1082, 892)]",[],[1],[33],[0.55],"[640.0, 512.0]",vertical,"(390.0, 262.0)",[1.1166666666666667],[0.517],1,14799.236
9,False,506,1.016,60,[],[],"[(1033, 902)]",[],[1],[35],[0.5833333333333334],"[640.0, 512.0]",horizontal,"(890.0, 262.0)",[1.0833333333333333],[0.541],1,14803.988
9,False,507,1.141,68,[],[],"[(1040, 889)]",[],[1],[10],[0.16666666666666666],"[640.0, 512.0]",horizontal,"(890.0, 262.0)",[1.6666666666666667],[0.134],1,14808.493
9,False,508,0.848,50,[],[],"[(1053, 873)]",[],[1],[31],[0.5166666666666666],"[640.0, 512.0]",vertical,"(890.0, 762.0)",[1.4],[0.475],1,14813.535
9,False,509,0.571,34,[],[],"[(1067, 869)]",[],[1],[36],[0.6],"[640.0, 512.0]",horizontal,"(390.0, 762.0)",[0.5666666666666667],[0.552],1,14818.349
9,False,510,0.976,58,[],[],"[(1016, 903), (1091, 868)]",[],"[0, 1]",[31],[0.5166666666666666],"[640.0, 512.0]",horizontal,"(890.0, 262.0)",[1.1333333333333333],[0.476],1,14822.042
9,False,511,0.824,49,[],[],"[(1075, 890)]",[],[1],[31],[0.5166666666666666],"[640.0, 512.0]",horizontal,"(890.0, 262.0)",[0.6166666666666667],[0.482],1,14827.989
9,False,512,0.798,47,[],[],"[(1091, 853)]",[],[1],[32],[0.5333333333333333],"[640.0, 512.0]",vertical,"(390.0, 262.0)",[0.55],[0.494],1,14832.079
9,False,513,0.857,51,[],[],"[(1076, 867)]",[],[1],[51],[0.85],"[640.0, 512.0]",vertical,"(390.0, 262.0)",[0.6666666666666666],[0.804],0,14837.168
9,False,514,0.972,58,[],[],"[(1081, 887)]",[],[1],[32],[0.5333333333333333],"[640.0, 512.0]",vertical,"(390.0, 262.0)",[1.6666666666666667],[0.488],1,14841.535
9,False,515,0.52,31,[],[],"[(1047, 878)]",[],[1],[39],[0.65],"[640.0, 512.0]",horizontal,"(890.0, 762.0)",[1.55],[0.602],1,14847.501
9,False,516,1.041,62,[],[],"[(1034, 876)]",[],[1],[31],[0.5166666666666666],"[640.0, 512.0]",horizontal,"(390.0, 762.0)",[1.2],[0.48],1,14852.207
9,False,517,1.153,69,[],[],"[(1048, 893)]",[],[1],[35],[0.5833333333333334],"[640.0, 512.0]",vertical,"(890.0, 762.0)",[0.9],[0.548],1,14857.644
9,False,518,1.17,70,[],[],"[(1077, 868)]",[],[1],[34],[0.5666666666666667],"[640.0, 512.0]",vertical,"(390.0, 262.0)",[0.8333333333333334],[0.526],1,14862.366
9,False,519,1.145,68,[],[],"[(1059, 889)]",[],[1],[31],[0.5166666666666666],"[640.0, 512.0]",horizontal,"(890.0, 262.0)",[1.3],[0.472],1,14866.807
9,False,520,0.559,33,[],[],"[(1081, 871)]",[],[1],[41],[0.6833333333333333],"[640.0, 512.0]",horizontal,"(390.0, 762.0)",[1.4166666666666667],[0.64],1,14871.598
9,False,521,0.817,49,[],[],"[(1067, 896)]",[],[1],[26],[0.43333333333333335],"[640.0, 512.0]",vertical,"(390.0, 762.0)",[0.9166666666666666],[0.394],1,14876.311
9,False,522,0.777,46,[],[],"[(1029, 889), (1106, 852)]",[],"[0, 1]",[36],[0.6],"[640.0, 512.0]",vertical,"(890.0, 262.0)",[0.8166666666666667],[0.554],1,14880.523
9,False,523,0.503,30,[],[],"[(1047, 901)]",[],[1],[34],[0.5666666666666667],"[640.0, 512.0]",horizontal,"(390.0, 262.0)",[1.6333333333333333],[0.519],1,14886.155
9,False,524,1.122,67,[],[],"[(1051, 876)]",[],[1],[33],[0.55],"[640.0, 512.0]",horizontal,"(390.0, 762.0)",[1.6166666666666667],[0.513],1,14890.706
9,False,525,1.18,70,[],[],"[(1053, 871)]",[],[1],[38],[0.6333333333333333],"[640.0, 512.0]",vertical,"(390.0, 762.0)",[1.3833333333333333],[0.589],1,14895.823
9,False,526,0.91,54,[],[],"[(1042, 890)]",[],[1],[30],[0.5],"[640.0, 512.0]",horizontal,"(390.0, 262.0)",[1.5166666666666666],[0.466],1,14900.985
9,False,527,0.777,46,[],[],"[(1057, 863)]",[],[1],[33],[0.55],"[640.0, 512.0]",vertical,"(890.0, 762.0)",[0.7],[0.508],1,14905.75
9,False,528,0.711,42,[],[],"[(1081, 877)]",[],[1],[],[],"[640.0, 512.0]",vertical,"(390.0, 762.0)",[],[0],0,14909.792
9,False,529,1.15,69,[],[],"[(1060, 875)]",[],[1],[48],[0.8],"[640.0, 512.0]",vertical,"(390.0, 262.0)",[1.25],[0.75],1,14913.692
9,False,530,1.035,62,[],[],"[(1081, 868)]",[],[1],[37],[0.6166666666666667],"[640.0, 512.0]",vertical,"(390.0, 262.0)",[1.1666666666666667],[0.573],1,14918.946
9,False,531,0.706,42,[],[],"[(1051, 871)]",[],[1],[36],[0.6],"[640.0, 512.0]",horizontal,"(390.0, 762.0)",[1.6],[0.554],1,14923.735
9,False,532,0.872,52,[],[],"[(1038, 881)]",[],[1],[31],[0.5166666666666666],"[640.0, 512.0]",horizontal,"(390.0, 262.0)",[1.5166666666666666],[0.474],1,14928.651
9,False,533,0.601,36,[],[],"[(1057, 873)]",[],[1],[33],[0.55],"[640.0, 512.0]",vertical,"(890.0, 762.0)",[1.25],[0.51],1,14933.49
9,False,534,0.6,36,[],[],"[(1079, 872)]",[],[1],[33],[0.55],"[640.0, 512.0]",horizontal,"(390.0, 762.0)",[0.8666666666666667],[0.507],1,14937.835
9,False,535,0.805,48,[],[],"[(1047, 868)]",[],[1],[34],[0.5666666666666667],"[640.0, 512.0]",horizontal,"(390.0, 262.0)",[1.4166666666666667],[0.52],1,14941.871
9,False,536,0.777,46,[],[],"[(1062, 881)]",[],[1],[35],[0.5833333333333334],"[640.0, 512.0]",vertical,"(390.0, 262.0)",[1.0],[0.542],1,14946.568
9,False,537,0.518,31,[],[],"[(1058, 896)]",[],[1],[32],[0.5333333333333333],"[640.0, 512.0]",horizontal,"(890.0, 262.0)",[1.6666666666666667],[0.488],1,14950.855
9,False,538,0.507,30,[],[],"[(1023, 869), (1093, 847)]",[],"[0, 1]",[33],[0.55],"[640.0, 512.0]",vertical,"(390.0, 262.0)",[1.35],[0.506],1,14955.432
9,False,539,0.86,51,[],[],"[(1029, 881), (1076, 884)]",[],"[0, 1]",[34],[0.5666666666666667],"[640.0, 512.0]",horizontal,"(890.0, 762.0)",[0.6],[0.532],1,14960.844
9,False,540,1.143,68,[],[],"[(1038, 911)]",[],[1],[36],[0.6],"[640.0, 512.0]",vertical,"(890.0, 262.0)",[1.0833333333333333],[0.561],1,14966.101
10,False,541,0.519,31,[],[],"[(1081, 880)]",[],[1],[33],[0.55],"[640.0, 512.0]",vertical,"(890.0, 762.0)",[0.8166666666666667],[0.506],1,14970.94
10,False,542,1.158,69,[],[],"[(1046, 881)]",[],[1],[35],[0.5833333333333334],"[640.0, 512.0]",vertical,"(890.0, 762.0)",[1.3166666666666667],[0.545],1,14974.722
10,False,543,1.085,65,[],[],"[(1077, 886)]",[],[1],[31],[0.5166666666666666],"[640.0, 512.0]",horizontal,"(390.0, 262.0)",[0.65],[0.481],1,14979.618
10,False,544,1.052,63,[],[],"[(1058, 881)]",[],[1],[31],[0.5166666666666666],"[640.0, 512.0]",horizontal,"(890.0, 262.0)",[1.6666666666666667],[0.476],1,14983.764
10,False,545,0.517,31,[],[],"[(1076, 872)]",[],[1],[30],[0.5],"[640.0, 512.0]",horizontal,"(390.0, 262.0)",[1.6666666666666667],[0.46],1,14988.891
10,False,546,0.745,44,[],[],"[(1048, 874)]",[],[1],[37],[0.6166666666666667],"[640.0, 512.0]",vertical,"(390.0, 262.0)",[0.5833333333333334],[0.574],1,14993.551
10,False,547,1.118,67,[],[],"[(1027, 885), (1086, 851)]",[],"[0, 1]",[39],[0.65],"[640.0, 512.0]",horizontal,"(390.0, 762.0)",[0.75],[0.607],1,14997.456
10,False,548,0.989,59,[],[],"[(1079, 872)]",[],[1],[36],[0.6],"[640.0, 512.0]",horizontal,"(890.0, 762.0)",[1.0],[0.558],1,15003.109
10,False,549,1.199,71,[],[],"[(1047, 901)]",[],[1],[32],[0.5333333333333333],"[640.0, 512.0]",horizontal,"(890.0, 762.0)",[1.3333333333333333],[0.491],1,15007.751
10,False,550,1.102,66,[],[],"[(1067, 881)]",[],[1],[34],[0.5666666666666667],"[640.0, 512.0]",horizontal,"(390.0, 762.0)",[0.75],[0.524],1,15012.886
10,False,551,0.855,51,[],[],"[(1074, 903)]",[],[1],[34],[0.5666666666666667],"[640.0, 512.0]",horizontal,"(390.0, 762.0)",[1.3333333333333333],[0.524],1,15017.252
10,False,552,0.591,35,[],[],"[(1042, 881)]",[],[1],[33],[0.55],"[640.0, 512.0]",horizontal,"(390.0, 762.0)",[0.75],[0.522],1,15021.974
10,False,553,0.933,55,[],[],"[(1058, 879)]",[],[1],[33],[0.55],"[640.0, 512.0]",horizontal,"(390.0, 262.0)",[1.6],[0.508],1,15025.972
10,False,554,0.823,49,[],[],"[(1057, 881)]",[],[1],[30],[0.5],"[640.0, 512.0]",horizontal,"(890.0, 262.0)",[1.4833333333333334],[0.457],1,15030.902
10,False,555,1.17,70,[],[],"[(1053, 880)]",[],[1],[32],[0.5333333333333333],"[640.0, 512.0]",vertical,"(390.0, 762.0)",[0.9333333333333333],[0.491],1,15035.692
10,False,556,0.62,37,[],[],"[(1077, 878)]",[],[1],[33],[0.55],"[640.0, 512.0]",horizontal,"(390.0, 262.0)",[0.5833333333333334],[0.51],1,15040.219
10,False,557,1.158,69,[],[],"[(1076, 895)]",[],[1],[34],[0.5666666666666667],"[640.0, 512.0]",horizontal,"(890.0, 762.0)",[0.6666666666666666],[0.528],1,15043.978
10,False,558,0.761,45,[],[],"[(1081, 885)]",[],[1],[34],[0.5666666666666667],"[640.0, 512.0]",horizontal,"(390.0, 262.0)",[0.5333333333333333],[0.527],1,15048.424
10,False,559,0.894,53,[],[],"[(1067, 886)]",[],[1],[34],[0.5666666666666667],"[640.0, 512.0]",vertical,"(390.0, 762.0)",[0.7166666666666667],[0.519],1,15052.172
10,False,560,0.916,54,[],[],"[(1058, 871)]",[],[1],[40],[0.6666666666666666],"[640.0, 512.0]",horizontal,"(890.0, 262.0)",[1.1666666666666667],[0.627],1,15056.255
10,False,561,0.994,59,[],[],"[(1076, 890)]",[],[1],[36],[0.6],"[640.0, 512.0]",vertical,"(390.0, 762.0)",[0.6],[0.563],1,15061.014
10,False,562,0.708,42,[],[],"[(1076, 892)]",[],[1],[37],[0.6166666666666667],"[640.0, 512.0]",vertical,"(390.0, 262.0)",[1.5666666666666667],[0.579],1,15065.267
10,False,563,0.914,54,[],[],"[(1055, 881)]",[],[1],[33],[0.55],"[640.0, 512.0]",horizontal,"(390.0, 762.0)",[0.5333333333333333],[0.509],1,15070.161
10,False,564,0.737,44,[],[],"[(1047, 896)]",[],[1],[42],[0.7],"[640.0, 512.0]",horizontal,"(890.0, 762.0)",[0.95],[0.66],1,15074.169
10,False,565,0.765,45,[],[],"[(1038, 879)]",[],[1],[33],[0.55],"[640.0, 512.0]",vertical,"(890.0, 262.0)",[0.95],[0.503],1,15078.438
10,False,566,0.968,58,[],[],"[(1026, 881), (1082, 856)]",[],"[0, 1]",[34],[0.5666666666666667],"[640.0, 512.0]",vertical,"(390.0, 762.0)",[0.6833333333333333],[0.523],1,15082.688
10,False,567,1.055,63,[],[],"[(1047, 899)]",[],[1],[33],[0.55],"[640.0, 512.0]",vertical,"(390.0, 762.0)",[0.95],[0.517],1,15087.822
10,False,568,0.649,38,[],[],"[(1071, 881)]",[],[1],[32],[0.5333333333333333],"[640.0, 512.0]",horizontal,"(890.0, 262.0)",[1.3],[0.499],1,15092.433
10,False,569,0.574,34,[],[],"[(1074, 890)]",[],[1],[34],[0.5666666666666667],"[640.0, 512.0]",horizontal,"(890.0, 262.0)",[1.5833333333333333],[0.525],1,15096.89
10,False,570,0.641,38,[],[],"[(1049, 897)]",[],[1],[31],[0.5166666666666666],"[640.0, 512.0]",horizontal,"(390.0, 262.0)",[0.9666666666666667],[0.484],1,15101.502
10,False,571,1.137,68,[],[],"[(1063, 881)]",[],[1],[35],[0.5833333333333334],"[640.0, 512.0]",vertical,"(890.0, 262.0)",[0.9166666666666666],[0.542],1,15105.547
10,False,572,0.862,51,[],[],"[(1076, 884)]",[],[1],[51],[0.85],"[640.0, 512.0]",horizontal,"(390.0, 262.0)",[0.6333333333333333],[0.809],0,15110.147
10,False,573,0.652,39,[],[],"[(1079, 876)]",[],[1],[29],[0.48333333333333334],"[640.0, 512.0]",horizontal,"(390.0, 262.0)",[1.3],[0.446],1,15114.473
10,False,574,0.687,41,[],[],"[(1079, 881)]",[],[1],[34],[0.5666666666666667],"[640.0, 512.0]",horizontal,"(890.0, 762.0)",[0.7833333333333333],[0.526],1,15119.042
10,False,575,0.57,34,[],[],"[(1081, 875)]",[],[1],[33],[0.55],"[640.0, 512.0]",vertical,"(890.0, 762.0)",[1.05],[0.51],1,15122.975
10,False,576,0.566,33,[],[],"[(1077, 876)]",[],[1],[9],[0.15],"[640.0, 512.0]",horizontal,"(390.0, 262.0)",[1.6833333333333333],[0.117],1,15127.002
10,False,577,1.146,68,[],[],"[(1082, 900)]",[],[1],[33],[0.55],"[640.0, 512.0]",vertical,"(890.0, 762.0)",[1.3333333333333333],[0.51],1,15131.327
10,False,578,0.941,56,[],[],"[(1040, 881)]",[],[1],[39],[0.65],"[640.0, 512.0]",vertical,"(390.0, 262.0)",[0.8333333333333334],[0.61],1,15136.259
10,False,579,0.574,34,[],[],"[(1064, 890)]",[],[1],[40],[0.6666666666666666],"[640.0, 512.0]",horizontal,"(890.0, 262.0)",[0.95],[0.62],1,15140.721
10,False,580,0.723,43,[],[],"[(1045, 885)]",[],[1],[39],[0.65],"[640.0, 512.0]",horizontal,"(890.0, 262.0)",[0.9],[0.611],1,15144.919
10,False,581,0.973,58,[],[],"[(1077, 874)]",[],[1],[27],[0.45],"[640.0, 512.0]",vertical,"(890.0, 262.0)",[0.9833333333333333],[0.411],1,15149.057
10,False,582,0.832,49,[],[],"[(1061, 875)]",[],[1],[],[],"[640.0, 512.0]",vertical,"(390.0, 762.0)",[],[0],0,15153.381
10,False,583,0.532,31,[],[],"[(1034, 871)]",[],[1],[32],[0.5333333333333333],"[640.0, 512.0]",vertical,"(890.0, 262.0)",[1.6833333333333333],[0.492],1,15157.515
10,False,584,0.795,47,[],[],"[(1081, 880)]",[],[1],[30],[0.5],"[640.0, 512.0]",horizontal,"(890.0, 262.0)",[0.6333333333333333],[0.466],1,15162.29
10,False,585,1.105,66,[],[],"[(1079, 883)]",[],[1],[29],[0.48333333333333334],"[640.0, 512.0]",horizontal,"(890.0, 262.0)",[0.9166666666666666],[0.445],1,15166.322
10,False,586,1.176,70,[],[],"[(1076, 882)]",[],[1],[37],[0.6166666666666667],"[640.0, 512.0]",horizontal,"(390.0, 762.0)",[0.7333333333333333],[0.574],1,15170.769
10,False,587,0.694,41,[],[],"[(1052, 905)]",[],[1],[],[],"[640.0, 512.0]",horizontal,"(890.0, 762.0)",[],[0],0,15175.177
10,False,588,0.517,31,[],[],"[(1046, 868)]",[],[1],[22],[0.36666666666666664],"[640.0, 512.0]",horizontal,"(390.0, 262.0)",[1.35],[0.328],1,15180.224
10,False,589,0.899,53,[],[],"[(1043, 898)]",[],[1],[30],[0.5],"[640.0, 512.0]",vertical,"(390.0, 262.0)",[1.0833333333333333],[0.457],1,15184.69
10,False,590,1.151,69,[],[],"[(1067, 879)]",[],[1],[32],[0.5333333333333333],"[640.0, 512.0]",horizontal,"(390.0, 762.0)",[0.9166666666666666],[0.492],1,15189.228
10,False,591,1.093,65,[],[],"[(1075, 876)]",[],[1],[22],[0.36666666666666664],"[640.0, 512.0]",horizontal,"(390.0, 262.0)",[1.15],[0.326],1,15193.77
10,False,592,1.032,61,[],[],"[(1028, 902), (1083, 852)]",[],"[0, 1]",[32],[0.5333333333333333],"[640.0, 512.0]",horizontal,"(890.0, 762.0)",[1.55],[0.502],1,15198.377
10,False,593,1.147,68,[],[],"[(1048, 888)]",[],[1],[30],[0.5],"[640.0, 512.0]",vertical,"(890.0, 262.0)",[1.0166666666666666],[0.458],1,15205.225
10,False,594,0.864,51,[],[],"[(1052, 878)]",[],[1],[34],[0.5666666666666667],"[640.0, 512.0]",vertical,"(890.0, 762.0)",[0.55],[0.524],1,15209.863
10,False,595,1.174,70,[],[],"[(1050, 887)]",[],[1],[38],[0.6333333333333333],"[640.0, 512.0]",vertical,"(890.0, 262.0)",[1.55],[0.592],1,15213.898
10,False,596,0.653,39,[],[],"[(1045, 891)]",[],[1],[39],[0.65],"[640.0, 512.0]",vertical,"(890.0, 762.0)",[0.6],[0.611],1,15219.131
10,False,597,0.611,36,[],[],"[(1042, 890)]",[],[1],[32],[0.5333333333333333],"[640.0, 512.0]",horizontal,"(390.0, 262.0)",[1.3],[0.492],1,15223.15
10,False,598,0.907,54,[],[],"[(1077, 888)]",[],[1],[32],[0.5333333333333333],"[640.0, 512.0]",vertical,"(390.0, 262.0)",[0.7166666666666667],[0.492],1,15227.569
10,False,599,0.597,35,[],[],"[(1038, 890)]",[],[1],[45],[0.75],"[640.0, 512.0]",horizontal,"(890.0, 262.0)",[1.4],[0.705],1,15231.647
10,False,600,0.939,56,[],[],"[(1047, 894)]",[],[1],[34],[0.5666666666666667],"[640.0, 512.0]",horizontal,"(890.0, 762.0)",[1.0],[0.526],1,15236.333
11,False,601,1.098,65,[],[],"[(1054, 871)]",[],[1],[30],[0.5],"[640.0, 512.0]",horizontal,"(390.0, 262.0)",[1.5166666666666666],[0.459],1,15240.708
11,False,602,0.527,31,[],[],"[(1061, 880)]",[],[1],[36],[0.6],"[640.0, 512.0]",vertical,"(890.0, 762.0)",[1.0833333333333333],[0.563],1,15245.742
11,False,603,0.664,39,[],[],"[(1052, 867)]",[],[1],[30],[0.5],"[640.0, 512.0]",horizontal,"(390.0, 262.0)",[1.15],[0.458],1,15249.97
11,False,604,0.518,31,[],[],"[(1029, 880), (1086, 858)]",[],"[0, 1]",[33],[0.55],"[640.0, 512.0]",vertical,"(390.0, 762.0)",[0.6],[0.506],1,15254.275
11,False,605,0.833,49,[],[],"[(1071, 885)]",[],[1],[32],[0.5333333333333333],"[640.0, 512.0]",horizontal,"(390.0, 762.0)",[0.85],[0.499],1,15259.196
11,False,606,0.609,36,[],[],"[(1033, 884)]",[],[1],[31],[0.5166666666666666],"[640.0, 512.0]",horizontal,"(890.0, 762.0)",[1.6166666666666667],[0.479],1,15263.408
11,False,607,0.696,41,[],[],"[(1038, 880)]",[],[1],[37],[0.6166666666666667],"[640.0, 512.0]",vertical,"(890.0, 762.0)",[1.2166666666666666],[0.577],1,15268.175
11,False,608,1.099,65,[],[],"[(1023, 896), (1052, 877)]",[],"[0, 1]",[30],[0.5],"[640.0, 512.0]",vertical,"(390.0, 762.0)",[1.6166666666666667],[0.465],1,15272.756
11,False,609,0.751,45,[],[],"[(1021, 890), (1077, 859)]",[],"[0, 1]",[33],[0.55],"[640.0, 512.0]",horizontal,"(890.0, 262.0)",[0.9],[0.51],1,15279.098
11,False,610,0.927,55,[],[],"[(1044, 888)]",[],[1],[32],[0.5333333333333333],"[640.0, 512.0]",horizontal,"(390.0, 262.0)",[1.1833333333333333],[0.492],1,15284.638
11,False,611,1.076,64,[],[],"[(1074, 885)]",[],[1],[31],[0.5166666666666666],"[640.0, 512.0]",horizontal,"(390.0, 762.0)",[1.5333333333333332],[0.477],1,15289.187
11,False,612,0.81,48,[],[],"[(1044, 900)]",[],[1],[34],[0.5666666666666667],"[640.0, 512.0]",vertical,"(390.0, 762.0)",[1.1666666666666667],[0.522],1,15294.186
11,False,613,0.548,32,[],[],"[(1039, 892)]",[],[1],[32],[0.5333333333333333],"[640.0, 512.0]",vertical,"(890.0, 262.0)",[1.5333333333333332],[0.489],1,15298.707
11,False,614,0.78,46,[],[],"[(1058, 862)]",[],[1],[34],[0.5666666666666667],"[640.0, 512.0]",vertical,"(890.0, 762.0)",[0.6],[0.524],1,15303.448
11,False,615,0.55,33,[],[],"[(1047, 900)]",[],[1],[35],[0.5833333333333334],"[640.0, 512.0]",vertical,"(390.0, 262.0)",[0.6833333333333333],[0.546],1,15307.549
11,False,616,0.535,32,[],[],"[(1041, 902)]",[],[1],[31],[0.5166666666666666],"[640.0, 512.0]",horizontal,"(390.0, 762.0)",[1.0166666666666666],[0.478],1,15311.299
11,False,617,0.518,31,[],[],"[(1071, 875)]",[],[1],[36],[0.6],"[640.0, 512.0]",horizontal,"(890.0, 262.0)",[1.3833333333333333],[0.555],1,15315.548
11,False,618,0.869,52,[],[],"[(1043, 890)]",[],[1],[35],[0.5833333333333334],"[640.0, 512.0]",vertical,"(390.0, 762.0)",[0.8333333333333334],[0.548],1,15320.142
11,False,619,0.522,31,[],[],"[(1081, 895)]",[],[1],[40],[0.6666666666666666],"[640.0, 512.0]",vertical,"(890.0, 762.0)",[1.3166666666666667],[0.628],1,15324.375
11,False,620,0.757,45,[],[],"[(1046, 908)]",[],[1],[34],[0.5666666666666667],"[640.0, 512.0]",horizontal,"(890.0, 262.0)",[1.4666666666666666],[0.529],1,15328.888
11,False,621,0.836,50,[],[],"[(1047, 899)]",[],[1],[31],[0.5166666666666666],"[640.0, 512.0]",vertical,"(390.0, 762.0)",[1.0333333333333332],[0.483],1,15333.775
11,False,622,0.565,33,[],[],"[(1039, 902)]",[],[1],[34],[0.5666666666666667],"[640.0, 512.0]",vertical,"(890.0, 762.0)",[1.4],[0.527],1,15338.061
11,False,623,0.996,59,[],[],"[(1036, 885)]",[],[1],[31],[0.5166666666666666],"[640.0, 512.0]",vertical,"(890.0, 762.0)",[1.5333333333333332],[0.478],1,15342.572
11,False,624,0.998,59,[],[],"[(1023, 874), (1081, 875)]",[],"[0, 1]",[],[],"[640.0, 512.0]",horizontal,"(890.0, 262.0)",[],[0],0,15347.668
11,False,625,0.728,43,[],[],"[(1057, 885)]",[],[1],[11],[0.18333333333333332],"[640.0, 512.0]",horizontal,"(390.0, 262.0)",[1.5833333333333333],[0.15],1,15351.16
11,False,626,0.943,56,[],[],"[(1012, 871), (1081, 844)]",[],"[0, 1]",[31],[0.5166666666666666],"[640.0, 512.0]",horizontal,"(890.0, 762.0)",[1.3333333333333333],[0.478],1,15356.659
11,False,627,1.192,71,[],[],"[(1049, 873)]",[],[1],[31],[0.5166666666666666],"[640.0, 512.0]",vertical,"(890.0, 262.0)",[1.1333333333333333],[0.474],1,15363.201
11,False,628,1.155,69,[],[],"[(1072, 871)]",[],[1],[10],[0.16666666666666666],"[640.0, 512.0]",horizontal,"(390.0, 262.0)",[1.5166666666666666],[0.136],1,15368.132
11,False,629,0.624,37,[],[],"[(1047, 885)]",[],[1],[39],[0.65],"[640.0, 512.0]",vertical,"(390.0, 262.0)",[1.25],[0.614],1,15373.394
11,False,630,1.024,61,[],[],"[(1042, 873)]",[],[1],[35],[0.5833333333333334],"[640.0, 512.0]",vertical,"(390.0, 762.0)",[0.7666666666666666],[0.544],1,15377.988
11,False,631,1.127,67,[],[],"[(1028, 866), (1078, 857)]",[],"[0, 1]",[32],[0.5333333333333333],"[640.0, 512.0]",vertical,"(390.0, 262.0)",[1.1166666666666667],[0.495],1,15382.333
11,False,632,0.733,43,[],[],"[(1039, 885)]",[],[1],[33],[0.55],"[640.0, 512.0]",horizontal,"(890.0, 762.0)",[0.8],[0.509],1,15388.086
11,False,633,1.098,65,[],[],"[(1063, 863)]",[],[1],[],[],"[640.0, 512.0]",horizontal,"(890.0, 762.0)",[],[0],0,15392.097
11,False,634,0.723,43,[],[],"[(1065, 877)]",[],[1],[28],[0.4666666666666667],"[640.0, 512.0]",vertical,"(890.0, 262.0)",[1.5166666666666666],[0.425],1,15395.697
11,False,635,0.627,37,[],[],"[(1058, 880)]",[],[1],[32],[0.5333333333333333],"[640.0, 512.0]",horizontal,"(390.0, 262.0)",[0.5833333333333334],[0.486],1,15400.403
11,False,636,0.753,45,[],[],"[(1042, 865)]",[],[1],[32],[0.5333333333333333],"[640.0, 512.0]",horizontal,"(390.0, 762.0)",[0.8666666666666667],[0.489],1,15404.276
11,False,637,1.148,68,[],[],"[(1080, 885)]",[],[1],[],[],"[640.0, 512.0]",vertical,"(390.0, 762.0)",[],[0],0,15408.305
11,False,638,0.843,50,[],[],"[(1062, 875)]",[],[1],[34],[0.5666666666666667],"[640.0, 512.0]",horizontal,"(890.0, 762.0)",[1.3666666666666667],[0.526],1,15412.524
11,False,639,0.784,47,[],[],"[(1081, 864)]",[],[1],[30],[0.5],"[640.0, 512.0]",horizontal,"(390.0, 262.0)",[0.85],[0.461],1,15417.208
11,False,640,0.8,48,[],[],"[(1072, 885)]",[],[1],[33],[0.55],"[640.0, 512.0]",vertical,"(890.0, 762.0)",[1.4666666666666666],[0.509],1,15421.479
11,False,641,0.666,39,[],[],"[(1038, 876)]",[],[1],[31],[0.5166666666666666],"[640.0, 512.0]",vertical,"(390.0, 762.0)",[1.2666666666666666],[0.476],1,15426.21
11,False,642,0.606,36,[],[],"[(1024, 880), (1077, 852)]",[],"[0, 1]",[30],[0.5],"[640.0, 512.0]",vertical,"(390.0, 762.0)",[0.9166666666666666],[0.464],1,15430.661
11,False,643,0.588,35,[],[],"[(1038, 901)]",[],[1],[33],[0.55],"[640.0, 512.0]",vertical,"(890.0, 762.0)",[0.9166666666666666],[0.511],1,15435.709
11,False,644,1.189,71,[],[],"[(1062, 865)]",[],[1],[30],[0.5],"[640.0, 512.0]",vertical,"(890.0, 262.0)",[0.6],[0.462],1,15439.871
11,False,645,1.132,67,[],[],"[(1028, 874), (1017, 882), (1081, 850)]",[],"[0, 0, 1]",[],[],"[640.0, 512.0]",vertical,"(390.0, 262.0)",[],[0],0,15444.02
11,False,646,1.19,71,[],[],"[(1081, 848)]",[],[1],[30],[0.5],"[640.0, 512.0]",horizontal,"(390.0, 262.0)",[0.8666666666666667],[0.464],1,15450.637
11,False,647,0.756,45,[],[],"[(1057, 859)]",[],[1],[31],[0.5166666666666666],"[640.0, 512.0]",vertical,"(890.0, 262.0)",[1.1333333333333333],[0.474],1,15456.565
11,False,648,0.88,52,[],[],"[(1042, 849)]",[],[1],[30],[0.5],"[640.0, 512.0]",horizontal,"(890.0, 262.0)",[0.5666666666666667],[0.464],1,15460.926
11,False,649,0.871,52,[],[],"[(1052, 865)]",[],[1],[31],[0.5166666666666666],"[640.0, 512.0]",horizontal,"(390.0, 762.0)",[0.5666666666666667],[0.478],1,15465.09
11,False,650,1.041,62,[],[],"[(1030, 871)]",[],[1],[32],[0.5333333333333333],"[640.0, 512.0]",vertical,"(390.0, 762.0)",[1.4166666666666667],[0.493],1,15468.988
11,False,651,0.68,40,[],[],"[(1047, 858)]",[],[1],[34],[0.5666666666666667],"[640.0, 512.0]",horizontal,"(390.0, 762.0)",[0.5],[0.523],1,15474.079
11,False,652,1.169,70,[],[],"[(1043, 865)]",[],[1],[32],[0.5333333333333333],"[640.0, 512.0]",vertical,"(890.0, 262.0)",[1.0333333333333332],[0.49],1,15477.728
11,False,653,1.161,69,[],[],"[(1056, 874)]",[],[1],[36],[0.6],"[640.0, 512.0]",vertical,"(890.0, 762.0)",[0.7666666666666666],[0.551],1,15482.361
11,False,654,0.812,48,[],[],"[(1053, 872)]",[],[1],[33],[0.55],"[640.0, 512.0]",vertical,"(390.0, 262.0)",[1.3666666666666667],[0.514],1,15486.782
