block,trial,trial_type,taps_start_loc_during_fix,taps_end_loc_during_fix,taps_on_lever_during_fix,taps_on_lever_s_during_fix,bar_orientation,target_xy,cti,rt,acc,time,pulses,fa_rate_recent100,actual_invalid_type
0,1,valid,"[(1098, 811)]",[],[1],[],horizontal,"(390.0, 262.0)",,"('cti', 1.183)",0,0.711,0,0.0,same
0,2,valid,"[(1070, 829)]",[],[1],[0.4],vertical,"(390.0, 762.0)",0.6666666666666666,0.374,1,10.562,1,0.0,same
0,3,valid,"[(1081, 854)]",[],[1],[0.5166666666666666],vertical,"(890.0, 762.0)",1.5,0.48,1,16.579,1,0.0,same
0,4,catch,"[(1159, 820)]",[],[1],[],vertical,"(890.0, 262.0)",1.7,nan,1,73.159,1,0.0,same
0,5,catch,"[(1133, 804)]",[],[1],[],horizontal,"(890.0, 262.0)",1.7,nan,1,78.457,2,0.0,same
0,6,catch,"[(1150, 806)]",[],[1],[],vertical,"(390.0, 762.0)",1.7,nan,1,84.063,2,0.0,same
0,7,valid,"[(1157, 764)]",[],[1],[0.5],vertical,"(890.0, 762.0)",0.5,0.472,1,89.87,2,0.0,same
0,8,catch,"[(1161, 798)]",[],[1],[],horizontal,"(890.0, 762.0)",1.7,nan,1,94.938,2,0.0,same
0,9,valid,"[(1162, 799)]",[],[1],[],horizontal,"(390.0, 262.0)",,"('cti', 0.22)",0,100.825,0,0.0,same
0,10,valid,"[(1089, 846)]",[],[1],[0.5666666666666667],horizontal,"(390.0, 262.0)",0.7333333333333333,0.522,1,104.624,1,0.0,same
0,11,catch,"[(1163, 808)]",[],[1],[],horizontal,"(890.0, 262.0)",1.7,nan,1,116.595,1,0.0,same
0,12,valid,"[(1156, 798)]",[],[1],[0.85],horizontal,"(890.0, 262.0)",0.5,nan,0,122.398,0,0.0,same
0,13,catch,"[(1091, 811)]",[],[1],[],horizontal,"(890.0, 262.0)",1.7,nan,1,126.882,1,0.0,same
0,14,valid,"[(1142, 793)]",[],[1],[0.5166666666666666],horizontal,"(890.0, 762.0)",0.9,0.483,1,132.941,1,0.0,same
0,15,valid,"[(1093, 815)]",[],[1],[0.85],horizontal,"(390.0, 262.0)",0.55,nan,0,137.976,0,0.0,same
0,16,valid,"[(1150, 822)]",[],[1],[0.6166666666666667],vertical,"(390.0, 762.0)",1.25,0.57,1,178.016,1,0.0,same
0,17,valid,"[(1180, 791)]",[],[1],[],vertical,"(390.0, 762.0)",,"('cti', 1.057)",0,183.325,0,0.0,same
0,18,valid,"[(1102, 829)]",[],[1],[0.85],horizontal,"(890.0, 762.0)",0.35,nan,0,187.507,0,0.0,same
0,19,catch,"[(1130, 815)]",[],[1],[],vertical,"(390.0, 762.0)",,"('cti', 1.598),nan",0,820.422,0,0.05263157894736842,same
0,20,valid,"[(1137, 802)]",[],[1],[0.5666666666666667],horizontal,"(890.0, 262.0)",1.0,0.524,1,834.576,1,0.05,same
0,21,valid,"[(1161, 789)]",[],[1],[0.85],vertical,"(390.0, 762.0)",0.6666666666666666,nan,0,839.522,0,0.047619047619047616,same
0,22,catch,"[(1133, 797)]",[],[1],[],vertical,"(390.0, 262.0)",1.7,nan,1,844.292,1,0.045454545454545456,same
0,23,valid,"[(1139, 781)]",[],[1],[0.5833333333333334],horizontal,"(390.0, 262.0)",0.7833333333333333,0.54,1,849.501,1,0.043478260869565216,same
0,24,valid,"[(1160, 804)]",[],[1],[0.5],horizontal,"(890.0, 762.0)",0.7666666666666666,0.462,1,854.494,1,0.041666666666666664,same
0,25,valid,"[(1161, 779)]",[],[1],[0.6333333333333333],vertical,"(390.0, 762.0)",1.2666666666666666,0.592,1,859.227,2,0.04,same
0,26,valid,"[(1180, 807)]",[],[1],[0.5166666666666666],vertical,"(890.0, 262.0)",0.75,0.473,1,865.161,2,0.038461538461538464,same
0,27,catch,"[(1114, 830)]",[],[1],[],horizontal,"(390.0, 262.0)",1.7,nan,1,870.144,2,0.037037037037037035,same
0,28,valid,"[(1165, 801)]",[],[1],[0.43333333333333335],horizontal,"(890.0, 262.0)",0.7333333333333333,0.393,1,878.311,2,0.03571428571428571,same
0,29,valid,"[(1152, 777)]",[],[1],[0.48333333333333334],vertical,"(890.0, 262.0)",1.3166666666666667,0.44,1,883.211,3,0.034482758620689655,same
0,30,valid,"[(1137, 792)]",[],[1],[0.48333333333333334],horizontal,"(890.0, 262.0)",0.5333333333333333,0.445,1,889.341,3,0.03333333333333333,same
0,31,valid,"[(1120, 806)]",[],[1],[0.6],horizontal,"(890.0, 762.0)",1.0833333333333333,0.557,1,894.511,3,0.03225806451612903,same
0,32,valid,"[(1164, 776)]",[],[1],[0.8333333333333334],vertical,"(890.0, 262.0)",1.2,0.786,1,900.71,3,0.03125,same
0,33,valid,"[(1144, 773)]",[],[1],[0.5166666666666666],horizontal,"(390.0, 762.0)",1.4333333333333333,0.475,1,906.817,3,0.030303030303030304,same
0,34,invalid_adjacent_other_bar,"[(1160, 785)]",[],[1],[0.6],vertical,"(390.0, 262.0)",0.4666666666666667,0.559,1,912.82,3,0.029411764705882353,other
0,35,valid,"[(1167, 789)]",[],[1],[0.55],vertical,"(390.0, 762.0)",0.8333333333333334,0.512,1,917.881,3,0.02857142857142857,same
0,36,valid,"[(1127, 776)]",[],[1],[0.85],vertical,"(890.0, 262.0)",1.5,nan,0,923.228,0,0.027777777777777776,same
0,37,invalid_same_bar,"[(1143, 778)]",[],[1],[0.6666666666666666],horizontal,"(390.0, 762.0)",0.5,0.626,1,928.078,1,0.02702702702702703,same
0,38,valid,"[(1160, 795)]",[],[1],[0.55],horizontal,"(890.0, 262.0)",0.6833333333333333,0.509,1,933.01,1,0.02631578947368421,same
0,39,valid,"[(1162, 770)]",[],[1],[0.4666666666666667],vertical,"(390.0, 262.0)",1.35,0.423,1,937.101,1,0.02564102564102564,same
0,40,catch,"[(1178, 774)]",[],[1],[],vertical,"(390.0, 762.0)",1.7,nan,1,942.132,2,0.025,same
0,41,catch,"[(1163, 781)]",[],[1],[],horizontal,"(890.0, 262.0)",1.7,nan,1,947.883,2,0.024390243902439025,same
0,42,invalid_adjacent_other_bar,"[(1164, 795)]",[],[1],[0.5833333333333334],vertical,"(890.0, 262.0)",0.8333333333333334,0.54,1,953.36,2,0.023809523809523808,other
0,43,valid,"[(1175, 784)]",[],[1],[0.6666666666666666],horizontal,"(390.0, 762.0)",0.7166666666666667,0.624,1,958.742,2,0.023255813953488372,same
0,44,valid,"[(1161, 792)]",[],[1],[0.65],horizontal,"(390.0, 262.0)",0.5,0.607,1,964.427,3,0.022727272727272728,same
0,45,valid,"[(1138, 797)]",[],[1],[0.5333333333333333],horizontal,"(390.0, 262.0)",1.4333333333333333,0.489,1,970.549,3,0.022222222222222223,same
0,46,catch,"[(1143, 780)]",[],[1],[],vertical,"(390.0, 762.0)",1.7,nan,1,976.894,3,0.021739130434782608,same
0,47,catch,"[(1161, 785)]",[],[1],[],vertical,"(390.0, 762.0)",1.7,nan,1,983.1,3,0.02127659574468085,same
0,48,catch,"[(1139, 772)]",[],[1],[],vertical,"(890.0, 262.0)",1.7,nan,1,989.181,3,0.020833333333333332,same
0,49,invalid_adjacent_other_bar,"[(1164, 776)]",[],[1],[0.85],vertical,"(390.0, 262.0)",1.1,nan,0,994.996,0,0.02040816326530612,other
0,50,valid,"[(1131, 777)]",[],[1],[0.5833333333333334],vertical,"(390.0, 762.0)",0.5,0.537,1,999.475,1,0.02,same
0,51,valid,"[(1164, 791)]",[],[1],[0.5833333333333334],horizontal,"(890.0, 262.0)",1.5333333333333332,0.539,1,1004.053,1,0.02,same
0,52,catch,"[(1135, 776)]",[],[1],[],horizontal,"(390.0, 262.0)",1.7,nan,1,1009.96,1,0.02,same
0,53,catch,"[(1135, 781)]",[],[1],[],horizontal,"(890.0, 762.0)",1.7,nan,1,1015.233,2,0.02,same
0,54,valid,"[(1165, 788)]",[],[1],[0.6666666666666666],horizontal,"(890.0, 762.0)",0.7333333333333333,0.637,1,1020.893,2,0.02,same
0,55,valid,"[(1165, 780)]",[],[1],[0.5333333333333333],horizontal,"(890.0, 762.0)",0.75,0.496,1,1026.242,2,0.02,same
0,56,valid,"[(1143, 772)]",[],[1],[0.6],vertical,"(890.0, 762.0)",0.8333333333333334,0.558,1,1031.588,2,0.02,same
0,57,catch,"[(1140, 774)]",[],[1],[],vertical,"(390.0, 762.0)",1.7,nan,1,1037.173,3,0.02,same
0,58,valid,"[(1102, 848)]",[],[1],[0.5166666666666666],vertical,"(890.0, 762.0)",1.2166666666666666,0.478,1,1043.164,3,0.02,same
0,59,invalid_same_bar,"[(1164, 801)]",[],[1],[0.7166666666666667],vertical,"(390.0, 762.0)",1.0666666666666667,0.675,1,1049.529,3,0.02,same
0,60,invalid_adjacent_other_bar,"[(1161, 786)]",[],[1],[0.55],vertical,"(390.0, 762.0)",1.3833333333333333,0.519,1,1055.679,3,0.02,other
0,61,invalid_same_bar,"[(1146, 797)]",[],[1],[0.85],vertical,"(390.0, 262.0)",1.1833333333333333,nan,0,1062.254,0,0.02,same
0,62,invalid_same_bar,"[(1135, 786)]",[],[1],[0.5833333333333334],vertical,"(890.0, 762.0)",1.0666666666666667,0.537,1,1067.362,1,0.02,same
0,63,invalid_same_bar,"[(1169, 787)]","[(1137, 820)]",[1],[0.2833333333333333],horizontal,"(890.0, 762.0)",,"('bar', 0.295)",0,1072.228,0,0.02,same
0,64,valid,"[(1137, 805)]",[],[1],[0.35],horizontal,"(890.0, 262.0)",1.4333333333333333,0.311,1,1074.678,1,0.02,same
0,65,valid,"[(1135, 794)]",[],[1],[0.13333333333333333],vertical,"(390.0, 762.0)",1.0,0.102,0,1228.939,0,0.02,same
0,66,catch,"[(1131, 799)]",[],[1],[],horizontal,"(390.0, 262.0)",1.7,nan,1,1233.394,1,0.02,same
0,67,valid,"[(1167, 777)]",[],[1],[0.85],horizontal,"(890.0, 262.0)",0.7666666666666666,nan,0,1238.547,0,0.02,same
0,68,valid,"[(1134, 761)]",[],[1],[0.85],horizontal,"(390.0, 762.0)",0.5166666666666666,nan,0,1243.446,0,0.02,same
0,69,catch,"[(1137, 797)]",[],[1],[],horizontal,"(390.0, 762.0)",1.7,nan,1,1247.295,1,0.0,same
0,70,valid,"[(1135, 788)]",[],[1],[0.55],horizontal,"(390.0, 262.0)",0.55,0.508,1,1252.445,1,0.0,same
0,71,valid,"[(1147, 802)]",[],[1],[0.85],horizontal,"(390.0, 762.0)",0.5666666666666667,nan,0,1257.212,0,0.0,same
0,72,valid,"[(1135, 761)]",[],[1],[0.5333333333333333],horizontal,"(890.0, 762.0)",0.8166666666666667,0.49,1,1262.097,1,0.0,same
0,73,valid,"[(1139, 775)]",[],[1],[0.55],horizontal,"(890.0, 762.0)",1.05,0.503,1,1267.029,1,0.0,same
0,74,invalid_same_bar,"[(1150, 770)]",[],[1],[0.43333333333333335],horizontal,"(390.0, 262.0)",1.0166666666666666,0.397,1,1271.659,1,0.0,same
0,75,valid,"[(1159, 809)]",[],[1],[],vertical,"(390.0, 762.0)",,"('cti', 1.113)",0,1276.696,0,0.0,same
0,76,valid,"[(1156, 809)]",[],[1],[0.6166666666666667],horizontal,"(390.0, 762.0)",1.2,0.582,1,1281.462,1,0.0,same
0,77,catch,"[(1158, 794)]",[],[1],[],horizontal,"(390.0, 262.0)",1.7,nan,1,1286.647,1,0.0,same
0,78,catch,"[(1131, 773)]",[],[1],[],vertical,"(890.0, 762.0)",1.7,nan,1,1291.346,1,0.0,same
0,79,valid,"[(1158, 788)]",[],[1],[0.85],vertical,"(890.0, 262.0)",0.6166666666666667,nan,0,1296.514,0,0.0,same
0,80,invalid_adjacent_other_bar,"[(1112, 756)]",[],[1],[0.6666666666666666],vertical,"(390.0, 262.0)",1.3166666666666667,0.622,1,1301.012,1,0.0,other
0,81,valid,"[(1141, 791)]",[],[1],[0.5833333333333334],horizontal,"(890.0, 762.0)",1.35,0.539,1,1306.819,1,0.0,same
0,82,catch,"[(1137, 774)]",[],[1],[],vertical,"(390.0, 262.0)",1.7,nan,1,1311.975,1,0.0,same
0,83,catch,"[(1137, 768)]",[],[1],[],horizontal,"(390.0, 762.0)",1.7,nan,1,1317.407,2,0.0,same
0,84,valid,"[(1150, 767)]",[],[1],[0.5],vertical,"(890.0, 262.0)",1.1333333333333333,0.458,1,1323.196,2,0.0,same
0,85,valid,"[(1160, 776)]",[],[1],[0.7166666666666667],vertical,"(390.0, 262.0)",1.2,0.674,1,1328.574,2,0.0,same
0,86,catch,"[(1145, 789)]",[],[1],[],horizontal,"(890.0, 262.0)",1.7,nan,1,1334.359,2,0.0,same
0,87,valid,"[(1150, 793)]",[],[1],[0.75],horizontal,"(390.0, 262.0)",0.4,0.702,1,1339.713,3,0.0,same
0,88,invalid_adjacent_other_bar,"[(1126, 767)]",[],[1],[0.7],horizontal,"(890.0, 762.0)",0.6166666666666667,0.658,1,1345.262,3,0.0,other
0,89,invalid_adjacent_other_bar,"[(1160, 784)]",[],[1],[0.5166666666666666],horizontal,"(390.0, 262.0)",1.1666666666666667,0.478,1,1350.87,3,0.0,other
0,90,catch,"[(1130, 765)]",[],[1],[],horizontal,"(890.0, 262.0)",1.7,nan,1,1357.037,3,0.0,same
0,91,valid,"[(1150, 782)]",[],[1],[0.7],vertical,"(390.0, 262.0)",1.3,0.658,1,1362.596,3,0.0,same
0,92,valid,"[(1135, 777)]",[],[1],[0.48333333333333334],vertical,"(890.0, 262.0)",0.9666666666666667,0.439,1,1368.987,3,0.0,same
0,93,catch,"[(1155, 769)]",[],[1],[],horizontal,"(890.0, 262.0)",1.7,nan,1,1374.313,3,0.0,same
0,94,catch,"[(1138, 773)]",[],[1],[],horizontal,"(390.0, 262.0)",1.7,nan,1,1379.787,3,0.0,same
0,95,valid,"[(1162, 785)]",[],[1],[0.5],horizontal,"(390.0, 262.0)",0.8333333333333334,0.46,1,1385.495,3,0.0,same
0,96,valid,"[(1132, 791)]",[],[1],[0.6833333333333333],vertical,"(890.0, 762.0)",0.7,0.639,1,1390.879,3,0.0,same
0,97,valid,"[(1154, 772)]",[],[1],[0.85],vertical,"(390.0, 262.0)",0.6833333333333333,nan,0,1396.196,0,0.0,same
0,98,catch,"[(1128, 773)]",[],[1],[],vertical,"(390.0, 762.0)",,"('cti', 1.572),nan",0,1400.53,0,0.02,same
0,99,invalid_same_bar,"[(1120, 791)]",[],[1],[0.35],vertical,"(390.0, 762.0)",1.45,0.315,1,1405.388,1,0.02,same
0,100,valid,"[(1125, 792)]",[],[1],[0.5333333333333333],vertical,"(390.0, 262.0)",1.4333333333333333,0.493,1,1410.972,1,0.02,same
0,101,valid,"[(1140, 772)]",[],[1],[0.15],horizontal,"(390.0, 762.0)",1.1666666666666667,0.12,0,1416.229,0,0.02,same
0,102,valid,"[(1136, 796)]",[],[1],[0.5333333333333333],horizontal,"(890.0, 762.0)",0.4,0.49,1,1420.684,1,0.02,same
0,103,valid,"[(1148, 798)]",[],[1],[0.5166666666666666],vertical,"(890.0, 762.0)",0.65,0.48,1,1425.415,1,0.02,same
0,104,invalid_same_bar,"[(1160, 783)]",[],[1],[0.85],horizontal,"(390.0, 262.0)",0.6833333333333333,nan,0,1430.379,0,0.02,same
0,105,valid,"[(1138, 798)]",[],[1],[0.5333333333333333],horizontal,"(390.0, 762.0)",1.3833333333333333,0.49,1,1434.907,1,0.02,same
0,106,invalid_adjacent_other_bar,"[(1134, 777)]",[],[1],[0.6333333333333333],vertical,"(890.0, 762.0)",0.6,0.594,1,1440.123,1,0.02,other
0,107,valid,"[(1142, 780)]",[],[1],[0.6666666666666666],horizontal,"(390.0, 762.0)",0.85,0.621,1,1445.012,1,0.02,same
0,108,valid,"[(1162, 792)]",[],[1],[0.85],vertical,"(890.0, 262.0)",1.1,nan,0,1449.979,0,0.02,same
0,109,catch,"[(1146, 779)]",[],[1],[],vertical,"(890.0, 262.0)",1.7,nan,1,1455.12,1,0.02,same
0,110,valid,"[(1146, 779)]",[],[1],[0.5333333333333333],horizontal,"(390.0, 762.0)",1.45,0.49,1,1460.526,1,0.02,same
0,111,catch,"[(1134, 774)]",[],[1],[],vertical,"(890.0, 762.0)",1.7,nan,1,1465.567,1,0.02,same
0,112,valid,"[(1157, 790)]",[],[1],[0.6],vertical,"(390.0, 262.0)",1.0,0.556,1,1470.323,2,0.02,same
0,113,valid,"[(1160, 788)]",[],[1],[0.55],horizontal,"(890.0, 762.0)",0.8333333333333334,0.507,1,1475.497,2,0.02,same
0,114,catch,"[(1137, 789)]",[],[1],[],vertical,"(390.0, 762.0)",1.7,nan,1,1480.803,2,0.02,same
0,115,invalid_adjacent_other_bar,"[(1135, 779)]",[],[1],[0.5833333333333334],horizontal,"(890.0, 262.0)",1.1666666666666667,0.546,1,1486.755,2,0.02,other
0,116,valid,"[(1091, 817)]",[],[1],[0.43333333333333335],horizontal,"(890.0, 762.0)",1.3166666666666667,0.392,1,1492.305,3,0.02,same
0,117,valid,"[(1160, 786)]",[],[1],[0.5],horizontal,"(890.0, 762.0)",0.45,0.459,1,1502.053,3,0.02,same
0,118,valid,"[(1143, 798)]",[],[1],[0.5166666666666666],vertical,"(390.0, 762.0)",0.4166666666666667,0.475,1,1507.326,3,0.02,same
0,119,valid,"[(1147, 775)]",[],[1],[0.5166666666666666],horizontal,"(390.0, 262.0)",0.7,0.48,1,1512.564,3,0.02,same
0,120,catch,"[(1136, 769)]",[],[1],[],horizontal,"(890.0, 262.0)",1.7,nan,1,1517.797,3,0.02,same
0,121,catch,"[(1138, 778)]",[],[1],[],vertical,"(390.0, 262.0)",1.7,nan,1,1523.493,3,0.02,same
0,122,valid,"[(1162, 764)]",[],[1],[0.55],horizontal,"(390.0, 762.0)",0.8,0.503,1,1529.359,3,0.02,same
0,123,catch,"[(1140, 792)]",[],[1],[],horizontal,"(390.0, 262.0)",1.7,nan,1,1534.629,3,0.02,same
0,124,valid,"[(1149, 781)]",[],[1],[0.6166666666666667],vertical,"(390.0, 762.0)",1.3333333333333333,0.574,1,1540.506,3,0.02,same
0,125,valid,"[(1146, 795)]",[],[1],[0.5],horizontal,"(390.0, 762.0)",1.05,0.466,1,1546.493,3,0.02,same
0,126,catch,"[(1158, 785)]",[],[1],[],vertical,"(390.0, 262.0)",1.7,nan,1,1552.926,3,0.02,same
0,127,valid,"[(1135, 789)]",[],[1],[0.6166666666666667],horizontal,"(390.0, 262.0)",1.25,0.572,1,1558.711,3,0.02,same
0,128,catch,"[(1157, 786)]",[],[1],[],horizontal,"(890.0, 762.0)",1.7,nan,1,1564.864,3,0.02,same
0,129,valid,"[(1165, 769)]",[],[1],[0.7],vertical,"(890.0, 762.0)",1.1,0.655,1,1570.914,3,0.02,same
0,130,valid,"[(1140, 798)]",[],[1],[0.5166666666666666],horizontal,"(890.0, 762.0)",1.5166666666666666,0.476,1,1577.197,3,0.02,same
0,131,valid,"[(1160, 776)]",[],[1],[0.8166666666666667],vertical,"(890.0, 762.0)",1.4833333333333334,0.794,1,1583.241,3,0.02,same
0,132,catch,"[(1140, 813)]",[],[1],[],horizontal,"(390.0, 262.0)",1.7,nan,1,1589.74,3,0.02,same
0,133,valid,"[(1131, 794)]",[],[1],[0.5333333333333333],horizontal,"(890.0, 262.0)",1.3166666666666667,0.502,1,1595.925,3,0.02,same
0,134,valid,"[(1164, 783)]",[],[1],[0.5333333333333333],vertical,"(890.0, 262.0)",1.5333333333333332,0.504,1,1601.695,3,0.02,same
0,135,valid,"[(1167, 801)]",[],[1],[0.5166666666666666],vertical,"(890.0, 762.0)",1.0666666666666667,0.487,1,1608.179,3,0.02,same
0,136,valid,"[(1175, 803)]",[],[1],[0.5666666666666667],vertical,"(390.0, 762.0)",1.3666666666666667,0.535,1,1614.363,3,0.02,same
0,137,valid,"[(1164, 769)]",[],[1],[0.85],vertical,"(890.0, 262.0)",1.15,nan,0,1620.651,0,0.02,same
0,138,valid,"[(1087, 798)]",[],[1],[0.6666666666666666],vertical,"(390.0, 762.0)",1.1833333333333333,0.618,1,1625.127,1,0.02,same
0,139,valid,"[(1135, 777)]",[],[1],[0.5166666666666666],vertical,"(390.0, 762.0)",1.3333333333333333,0.473,1,1630.743,1,0.02,same
0,140,catch,"[(1137, 761)]",[],[1],[],vertical,"(390.0, 262.0)",1.7,nan,1,1636.318,1,0.02,same
0,141,valid,"[(1133, 782)]",[],[1],[0.55],vertical,"(890.0, 762.0)",0.6666666666666666,0.505,1,1641.58,2,0.02,same
0,142,invalid_same_bar,"[(1153, 778)]",[],[1],[0.7166666666666667],horizontal,"(390.0, 262.0)",0.8166666666666667,0.681,1,1647.035,2,0.02,same
0,143,catch,"[(1128, 781)]",[],[1],[],horizontal,"(890.0, 762.0)",1.7,nan,1,1652.31,2,0.02,same
0,144,catch,"[(1167, 786)]",[],[1],[],horizontal,"(890.0, 762.0)",1.7,nan,1,1658.33,2,0.02,same
0,145,invalid_adjacent_other_bar,"[(1153, 789)]",[],[1],[0.5],horizontal,"(390.0, 762.0)",0.6333333333333333,0.468,1,1663.989,3,0.02,other
0,146,invalid_same_bar,"[(1164, 794)]",[],[1],[0.5166666666666666],horizontal,"(890.0, 262.0)",0.8833333333333333,0.48,1,1669.806,3,0.02,same
0,147,valid,"[(1135, 784)]",[],[1],[0.6833333333333333],horizontal,"(890.0, 762.0)",1.4166666666666667,0.648,1,1675.744,3,0.02,same
0,148,catch,"[(1163, 793)]",[],[1],[],vertical,"(390.0, 762.0)",1.7,nan,1,1682.355,3,0.0,same
0,149,catch,"[(1136, 772)]",[],[1],[],horizontal,"(390.0, 262.0)",1.7,nan,1,1688.269,3,0.0,same
0,150,valid,"[(1131, 795)]",[],[1],[0.5166666666666666],horizontal,"(390.0, 762.0)",1.1,0.479,1,1694.448,3,0.0,same
0,151,catch,"[(1131, 776)]",[],[1],[],vertical,"(390.0, 262.0)",1.7,nan,1,1700.497,3,0.0,same
0,152,valid,"[(1140, 776)]",[],[1],[0.5666666666666667],horizontal,"(390.0, 262.0)",0.55,0.527,1,1706.248,3,0.0,same
0,153,valid,"[(1160, 770)]",[],[1],[0.7166666666666667],vertical,"(390.0, 262.0)",1.05,0.666,1,1711.665,3,0.0,same
0,154,valid,"[(1136, 787)]",[],[1],[0.5166666666666666],vertical,"(390.0, 262.0)",0.6833333333333333,0.479,1,1717.704,3,0.0,same
0,155,valid,"[(1140, 798)]",[],[1],[0.85],vertical,"(890.0, 262.0)",1.4333333333333333,nan,0,1723.412,0,0.0,same
0,156,invalid_adjacent_other_bar,"[(1148, 765)]",[],[1],[0.7333333333333333],vertical,"(390.0, 262.0)",1.45,0.687,1,1728.514,1,0.0,other
0,157,valid,"[(1142, 775)]",[],[1],[0.65],horizontal,"(390.0, 262.0)",1.2666666666666666,0.603,1,1734.281,1,0.0,same
0,158,valid,"[(1146, 773)]",[],[1],[0.5333333333333333],horizontal,"(390.0, 762.0)",1.35,0.49,1,1739.531,1,0.0,same
0,159,valid,"[(1157, 782)]",[],[1],[0.5],horizontal,"(390.0, 762.0)",0.3833333333333333,0.461,1,1744.398,2,0.0,same
0,160,valid,"[(1131, 777)]",[],[1],[0.5166666666666666],horizontal,"(890.0, 262.0)",0.9666666666666667,0.479,1,1748.832,2,0.0,same
0,161,valid,"[(1162, 772)]",[],[1],[0.5],horizontal,"(390.0, 262.0)",1.45,0.457,1,1754.165,2,0.0,same
0,162,valid,"[(1179, 778)]",[],[1],[0.5166666666666666],vertical,"(890.0, 262.0)",0.5166666666666666,0.48,1,1760.414,2,0.0,same
0,163,valid,"[(1165, 783)]",[],[1],[0.5333333333333333],vertical,"(390.0, 262.0)",0.5333333333333333,0.49,1,1765.43,3,0.0,same
0,164,valid,"[(1165, 780)]",[],[1],[0.5166666666666666],vertical,"(890.0, 262.0)",0.4666666666666667,0.476,1,1771.073,3,0.0,same
0,165,catch,"[(1160, 773)]",[],[1],[],horizontal,"(390.0, 762.0)",1.7,nan,1,1776.548,3,0.0,same
0,166,valid,"[(1124, 800)]",[],[1],[0.5333333333333333],horizontal,"(890.0, 262.0)",1.3666666666666667,0.495,1,1782.214,3,0.0,same
0,167,valid,"[(1132, 793)]",[],[1],[0.5333333333333333],vertical,"(390.0, 762.0)",0.8333333333333334,0.499,1,1789.082,3,0.0,same
0,168,valid,"[(1135, 792)]",[],[1],[0.5833333333333334],horizontal,"(890.0, 762.0)",0.4166666666666667,0.543,1,1794.923,3,0.0,same
0,169,valid,"[(1135, 781)]",[],[1],[0.85],horizontal,"(390.0, 762.0)",1.1166666666666667,nan,0,1800.248,0,0.0,same
0,170,catch,"[(1133, 778)]",[],[1],[],horizontal,"(390.0, 262.0)",1.7,nan,1,1804.982,1,0.0,same
0,171,catch,"[(1127, 791)]",[],[1],[],vertical,"(390.0, 262.0)",1.7,nan,1,1810.564,1,0.0,same
0,172,catch,"[(1138, 773)]",[],[1],[],vertical,"(890.0, 762.0)",1.7,nan,1,1815.88,1,0.0,same
0,173,catch,"[(1139, 800)]",[],[1],[],horizontal,"(390.0, 262.0)",1.7,nan,1,1821.215,2,0.0,same
0,174,valid,"[(1134, 786)]",[],[1],[0.65],horizontal,"(890.0, 262.0)",1.4333333333333333,0.604,1,1826.647,2,0.0,same
0,175,valid,"[(1161, 786)]",[],[1],[0.6166666666666667],horizontal,"(890.0, 262.0)",0.95,0.566,1,1832.298,2,0.0,same
0,176,invalid_adjacent_other_bar,"[(1128, 826)]",[],[1],[0.5],horizontal,"(890.0, 262.0)",1.3166666666666667,0.458,1,1837.915,2,0.0,other
0,177,catch,"[(1159, 804)]",[],[1],[],vertical,"(390.0, 262.0)",1.7,nan,1,1843.723,3,0.0,same
0,178,valid,"[(1131, 797)]",[],[1],[0.5333333333333333],horizontal,"(890.0, 262.0)",1.3833333333333333,0.487,1,1849.348,3,0.0,same
0,179,valid,"[(1160, 781)]",[],[1],[0.48333333333333334],horizontal,"(390.0, 762.0)",0.6666666666666666,0.441,1,1855.396,3,0.0,same
0,180,valid,"[(1162, 793)]",[],[1],[0.5166666666666666],horizontal,"(890.0, 262.0)",0.43333333333333335,0.472,1,1860.732,3,0.0,same
0,181,valid,"[(1165, 774)]",[],[1],[0.5666666666666667],horizontal,"(390.0, 262.0)",1.5,0.523,1,1866.215,3,0.0,same
0,182,invalid_same_bar,"[(1132, 795)]",[],[1],[0.55],horizontal,"(390.0, 262.0)",1.1333333333333333,0.503,1,1872.381,3,0.0,same
0,183,valid,"[(1165, 796)]",[],[1],[0.5333333333333333],horizontal,"(390.0, 762.0)",0.8666666666666667,0.488,1,1878.725,3,0.0,same
0,184,valid,"[(1145, 773)]",[],[1],[0.5166666666666666],horizontal,"(890.0, 262.0)",0.6166666666666667,0.474,1,1884.283,3,0.0,same
0,185,catch,"[(1175, 774)]",[],[1],[],vertical,"(890.0, 762.0)",1.7,nan,1,1889.498,3,0.0,same
0,186,catch,"[(1140, 779)]",[],[1],[],vertical,"(390.0, 262.0)",1.7,nan,1,1895.325,3,0.0,same
0,187,catch,"[(1135, 775)]",[],[1],[],vertical,"(890.0, 262.0)",1.7,nan,1,1901.315,3,0.0,same
0,188,valid,"[(1143, 774)]",[],[1],[0.55],vertical,"(890.0, 762.0)",0.85,0.508,1,1906.932,3,0.0,same
0,189,catch,"[(1143, 774)]",[],[1],[],horizontal,"(390.0, 762.0)",1.7,nan,1,1912.367,3,0.0,same
0,190,catch,"[(1165, 790)]",[],[1],[],horizontal,"(390.0, 762.0)",1.7,nan,1,1917.999,3,0.0,same
0,191,catch,"[(1164, 783)]",[],[1],[],horizontal,"(890.0, 262.0)",1.7,nan,1,1924.132,3,0.0,same
0,192,valid,"[(1165, 796)]",[],[1],[0.5666666666666667],vertical,"(390.0, 762.0)",1.1,0.521,1,1929.932,3,0.0,same
0,193,valid,"[(1160, 778)]",[],[1],[0.55],vertical,"(890.0, 262.0)",1.3166666666666667,0.508,1,1935.928,3,0.0,same
0,194,catch,"[(1156, 789)]",[],[1],[],horizontal,"(890.0, 762.0)",1.7,nan,1,1941.915,3,0.0,same
0,195,valid,"[(1159, 787)]",[],[1],[0.55],horizontal,"(390.0, 262.0)",1.3333333333333333,0.508,1,1948.249,3,0.0,same
0,196,invalid_same_bar,"[(1177, 796)]",[],[1],[0.8333333333333334],vertical,"(390.0, 762.0)",0.7666666666666666,0.783,1,1954.253,3,0.0,same
0,197,valid,"[(1142, 795)]",[],[1],[0.4666666666666667],horizontal,"(890.0, 262.0)",1.35,0.427,1,1960.05,3,0.0,same
0,198,valid,"[(1163, 776)]",[],[1],[0.6666666666666666],vertical,"(890.0, 262.0)",0.8,0.618,1,1966.203,3,0.0,same
0,199,catch,"[(1165, 772)]",[],[1],[],vertical,"(390.0, 262.0)",1.7,nan,1,1971.583,3,0.0,same
0,200,valid,"[(1155, 791)]",[],[1],[0.7166666666666667],vertical,"(890.0, 762.0)",0.4666666666666667,0.667,1,1977.149,3,0.0,same
0,201,valid,"[(1152, 765)]",[],[1],[0.6333333333333333],vertical,"(890.0, 762.0)",0.6666666666666666,0.588,1,1982.561,3,0.0,same
0,202,valid,"[(1138, 782)]",[],[1],[0.6166666666666667],vertical,"(390.0, 762.0)",0.7333333333333333,0.579,1,1987.799,3,0.0,same
0,203,valid,"[(1152, 791)]",[],[1],[0.6666666666666666],horizontal,"(390.0, 262.0)",0.5666666666666667,0.624,1,1993.277,3,0.0,same
0,204,invalid_adjacent_other_bar,"[(1145, 791)]",[],[1],[0.5666666666666667],horizontal,"(390.0, 262.0)",0.9333333333333333,0.522,1,1999.171,3,0.0,other
0,205,valid,"[(1135, 791)]",[],[1],[0.48333333333333334],vertical,"(890.0, 262.0)",1.3333333333333333,0.442,1,2005.104,3,0.0,same
0,206,valid,"[(1160, 779)]",[],[1],[0.5],horizontal,"(890.0, 262.0)",1.4,0.458,1,2010.813,3,0.0,same
0,207,valid,"[(1140, 765)]",[],[1],[0.5],vertical,"(390.0, 262.0)",0.35,0.473,1,2016.926,3,0.0,same
0,208,valid,"[(1155, 792)]",[],[1],[0.5],horizontal,"(890.0, 262.0)",0.7666666666666666,0.456,1,2022.239,3,0.0,same
0,209,valid,"[(1135, 791)]",[],[1],[0.85],horizontal,"(890.0, 762.0)",0.55,nan,0,2027.565,0,0.0,same
0,210,valid,"[(1143, 794)]",[],[1],[0.55],horizontal,"(890.0, 262.0)",1.0166666666666666,0.507,1,2031.851,1,0.0,same
0,211,valid,"[(1165, 779)]",[],[1],[0.4166666666666667],horizontal,"(390.0, 762.0)",1.45,0.38,1,2036.739,1,0.0,same
0,212,valid,"[(1150, 789)]",[],[1],[0.85],horizontal,"(890.0, 762.0)",0.4166666666666667,nan,0,2042.341,0,0.0,same
0,213,valid,"[(1145, 781)]",[],[1],[0.5166666666666666],horizontal,"(390.0, 762.0)",0.55,0.473,1,2046.916,1,0.0,same
0,214,valid,"[(1160, 795)]",[],[1],[0.85],horizontal,"(890.0, 262.0)",0.8,nan,0,2051.647,0,0.0,same
0,215,catch,"[(1135, 787)]",[],[1],[],vertical,"(890.0, 762.0)",1.7,nan,1,2055.965,1,0.0,same
0,216,invalid_same_bar,"[(1158, 802)]",[],[1],[0.6],vertical,"(890.0, 762.0)",1.4,0.55,1,2061.494,1,0.0,same
0,217,valid,"[(1135, 790)]",[],[1],[0.55],horizontal,"(890.0, 762.0)",1.25,0.504,1,2067.364,1,0.0,same
0,218,catch,"[(1160, 766)]",[],[1],[],vertical,"(890.0, 762.0)",1.7,nan,1,2072.397,2,0.0,same
0,219,valid,"[(1140, 781)]",[],[1],[0.55],horizontal,"(390.0, 762.0)",1.0666666666666667,0.511,1,2077.716,2,0.0,same
0,220,valid,"[(1140, 786)]",[],[1],[0.6166666666666667],vertical,"(890.0, 262.0)",1.0333333333333332,0.575,1,2083.344,2,0.0,same
0,221,catch,"[(1125, 807)]",[],[1],[],horizontal,"(390.0, 762.0)",1.7,nan,1,2088.465,2,0.0,same
0,222,valid,"[(1115, 780)]",[],[1],[0.5],vertical,"(890.0, 262.0)",1.1,0.462,1,2094.061,3,0.0,same
0,223,valid,"[(1165, 789)]",[],[1],[0.5],vertical,"(890.0, 262.0)",1.5166666666666666,0.469,1,2100.562,3,0.0,same
0,224,catch,"[(1170, 792)]",[],[1],[],vertical,"(390.0, 262.0)",1.7,nan,1,2106.589,3,0.0,same
0,225,catch,"[(1152, 781)]",[],[1],[],vertical,"(390.0, 762.0)",1.7,nan,1,2112.312,3,0.0,same
0,226,catch,"[(1140, 779)]",[],[1],[],horizontal,"(390.0, 262.0)",1.7,nan,1,2118.549,3,0.0,same
0,227,catch,"[(1158, 769)]",[],[1],[],horizontal,"(390.0, 762.0)",,"('cti', 1.654),nan",0,2125.25,0,0.02,same
0,228,valid,"[(1120, 786)]",[],[1],[0.4],vertical,"(890.0, 262.0)",1.1333333333333333,0.364,1,2130.284,1,0.02,same
0,229,catch,"[(1140, 776)]",[],[1],[],vertical,"(890.0, 762.0)",1.7,nan,1,2135.315,1,0.02,same
0,230,valid,"[(1148, 771)]",[],[1],[0.5],horizontal,"(390.0, 262.0)",1.3833333333333333,0.469,1,2140.719,1,0.02,same
0,231,valid,"[(1135, 792)]",[],[1],[],horizontal,"(390.0, 762.0)",,"('cti', 1.241)",0,2145.863,0,0.02,same
0,232,valid,"[(1130, 826)]",[],[1],[0.6166666666666667],horizontal,"(390.0, 762.0)",0.5,0.577,1,2150.483,1,0.02,same
0,233,valid,"[(1144, 777)]",[],[1],[0.85],horizontal,"(390.0, 262.0)",0.85,nan,0,2154.801,0,0.02,same
0,234,catch,"[(1137, 780)]",[],[1],[],vertical,"(390.0, 262.0)",1.7,nan,1,2159.332,1,0.02,same
0,235,valid,"[(1165, 765)]",[],[1],[0.5833333333333334],vertical,"(390.0, 262.0)",1.3,0.542,1,2164.483,1,0.02,same
0,236,valid,"[(1145, 789)]",[],[1],[0.85],vertical,"(390.0, 762.0)",1.3,nan,0,2169.716,0,0.02,same
0,237,valid,"[(1125, 792)]",[],[1],[0.1],horizontal,"(390.0, 762.0)",1.5333333333333332,0.07,0,2174.533,0,0.02,same
0,238,valid,"[(1125, 796)]",[],[1],[0.6333333333333333],vertical,"(390.0, 262.0)",0.35,0.586,1,2179.381,1,0.02,same
0,239,valid,"[(1165, 786)]",[],[1],[0.5666666666666667],horizontal,"(390.0, 762.0)",1.4333333333333333,0.523,1,2183.899,1,0.02,same
0,240,catch,"[(1146, 786)]",[],[1],[],vertical,"(890.0, 262.0)",1.7,nan,1,2189.55,1,0.02,same
0,241,valid,"[(1121, 772)]",[],[1],[0.48333333333333334],vertical,"(890.0, 762.0)",1.4166666666666667,0.447,1,2195.166,2,0.02,same
0,242,catch,"[(1164, 791)]",[],[1],[],vertical,"(390.0, 262.0)",1.7,nan,1,2200.766,2,0.02,same
0,243,valid,"[(1137, 791)]",[],[1],[0.6],horizontal,"(390.0, 262.0)",0.45,0.56,1,2206.074,2,0.02,same
0,244,catch,"[(1130, 836)]",[],[1],[],vertical,"(890.0, 262.0)",1.7,nan,1,2210.982,2,0.02,same
0,245,catch,"[(1154, 816)]",[],[1],[],horizontal,"(890.0, 762.0)",1.7,nan,1,2292.277,3,0.02,same
0,246,valid,"[(1146, 804)]",[],[1],[0.6],horizontal,"(890.0, 762.0)",0.8666666666666667,0.556,1,2298.716,3,0.02,same
0,247,catch,"[(1148, 797)]",[],[1],[],vertical,"(390.0, 262.0)",1.7,nan,1,2304.65,3,0.02,same
0,248,invalid_adjacent_other_bar,"[(1165, 778)]",[],[1],[0.85],vertical,"(890.0, 762.0)",0.9,nan,0,2310.421,0,0.02,other
0,249,valid,"[(1146, 798)]",[],[1],[0.6],vertical,"(890.0, 762.0)",1.0166666666666666,0.559,1,2314.865,1,0.02,same
0,250,valid,"[(1144, 783)]",[],[1],[0.6333333333333333],horizontal,"(390.0, 762.0)",1.1666666666666667,0.593,1,2320.116,1,0.02,same
0,251,valid,"[(1155, 797)]",[],[1],[0.45],horizontal,"(890.0, 262.0)",1.4666666666666666,0.413,1,2325.349,1,0.02,same
0,252,catch,"[(1163, 795)]",[],[1],[],vertical,"(890.0, 762.0)",1.7,nan,1,2330.666,2,0.02,same
0,253,valid,"[(1157, 805)]",[],[1],[0.6666666666666666],horizontal,"(890.0, 262.0)",1.1833333333333333,0.624,1,2336.948,2,0.02,same
0,254,valid,"[(1163, 796)]",[],[1],[0.6166666666666667],vertical,"(390.0, 262.0)",0.8666666666666667,0.574,1,2342.949,2,0.02,same
0,255,invalid_same_bar,"[(1154, 790)]",[],[1],[0.5333333333333333],horizontal,"(390.0, 262.0)",0.7666666666666666,0.492,1,2348.616,2,0.02,same
0,256,valid,"[(1135, 820)]",[],[1],[0.5],horizontal,"(890.0, 762.0)",0.5,0.457,1,2353.978,3,0.02,same
0,257,valid,"[(1139, 799)]",[],[1],[0.5166666666666666],vertical,"(390.0, 262.0)",0.8833333333333333,0.471,1,2359.229,3,0.02,same
0,258,valid,"[(1140, 778)]",[],[1],[0.5],vertical,"(390.0, 262.0)",0.9666666666666667,0.459,1,2364.766,3,0.02,same
0,259,catch,"[(1157, 808)]",[],[1],[],vertical,"(390.0, 262.0)",1.7,nan,1,2370.366,3,0.02,same
0,260,catch,"[(1146, 804)]",[],[1],[],vertical,"(890.0, 262.0)",1.7,nan,1,2376.204,3,0.02,same
0,261,catch,"[(1158, 786)]",[],[1],[],vertical,"(390.0, 762.0)",1.7,nan,1,2382.5,3,0.02,same
0,262,catch,"[(1160, 806)]",[],[1],[],vertical,"(890.0, 262.0)",1.7,nan,1,2388.501,3,0.02,same
0,263,catch,"[(1170, 791)]",[],[1],[],horizontal,"(890.0, 762.0)",,"('cti', 0.963),nan",0,2394.291,0,0.04,same
0,264,valid,"[(1153, 813)]",[],[1],[0.5333333333333333],horizontal,"(890.0, 762.0)",1.4,0.502,1,2398.084,1,0.04,same
0,265,valid,"[(1142, 788)]",[],[1],[0.5333333333333333],horizontal,"(390.0, 762.0)",1.1666666666666667,0.489,1,2403.228,1,0.04,same
0,266,valid,"[(1140, 773)]",[],[1],[0.5],vertical,"(890.0, 262.0)",1.5,0.458,1,2408.469,1,0.04,same
0,267,valid,"[(1138, 782)]",[],[1],[0.13333333333333333],horizontal,"(390.0, 762.0)",1.4,0.103,0,2414.018,0,0.04,same
0,268,invalid_adjacent_other_bar,"[(1148, 804)]",[],[1],[0.5666666666666667],horizontal,"(890.0, 262.0)",1.3166666666666667,0.533,1,2418.169,1,0.04,other
0,269,valid,"[(1133, 786)]",[],[1],[0.5666666666666667],horizontal,"(390.0, 762.0)",1.3,0.529,1,2423.617,1,0.04,same
0,270,valid,"[(1140, 776)]",[],[1],[0.65],vertical,"(390.0, 762.0)",1.2166666666666666,0.61,1,2428.683,1,0.04,same
0,271,valid,"[(1165, 781)]",[],[1],[0.5666666666666667],vertical,"(390.0, 262.0)",0.75,0.526,1,2434.184,2,0.04,same
0,272,valid,"[(1160, 769)]",[],[1],[0.48333333333333334],horizontal,"(890.0, 262.0)",1.2166666666666666,0.444,1,2439.118,2,0.04,same
0,273,catch,"[(1135, 769)]",[],[1],[],vertical,"(390.0, 762.0)",1.7,nan,1,2444.424,2,0.04,same
0,274,catch,"[(1140, 793)]",[],[1],[],horizontal,"(390.0, 262.0)",1.7,nan,1,2449.695,2,0.04,same
0,275,catch,"[(1160, 777)]",[],[1],[],horizontal,"(890.0, 762.0)",1.7,nan,1,2455.4,3,0.04,same
0,276,valid,"[(1117, 817)]",[],[1],[0.6166666666666667],vertical,"(890.0, 262.0)",1.2166666666666666,0.575,1,2461.649,3,0.04,same
0,277,valid,"[(1160, 792)]",[],[1],[0.48333333333333334],vertical,"(390.0, 262.0)",0.85,0.444,1,2467.773,3,0.02,same
0,278,valid,"[(1158, 810)]",[],[1],[0.48333333333333334],horizontal,"(390.0, 262.0)",0.75,0.445,1,2473.54,3,0.02,same
0,279,valid,"[(1140, 806)]",[],[1],[0.5833333333333334],horizontal,"(890.0, 762.0)",1.1,0.537,1,2478.667,3,0.02,same
0,280,valid,"[(1166, 801)]",[],[1],[],horizontal,"(390.0, 762.0)",,"('cti', 1.182)",0,2484.779,0,0.02,same
0,281,valid,"[(1140, 794)]",[],[1],[0.5166666666666666],vertical,"(890.0, 262.0)",0.7,0.475,1,2488.901,1,0.02,same
0,282,valid,"[(1168, 785)]",[],[1],[0.85],horizontal,"(890.0, 762.0)",0.4666666666666667,nan,0,2493.286,0,0.02,same
0,283,valid,"[(1106, 782)]",[],[1],[0.5166666666666666],vertical,"(390.0, 262.0)",0.65,0.477,1,2497.567,1,0.02,same
0,284,valid,"[(1165, 789)]",[],[1],[0.5],horizontal,"(390.0, 262.0)",1.0166666666666666,0.464,1,2502.25,1,0.02,same
0,285,valid,"[(1169, 783)]",[],[1],[0.55],horizontal,"(390.0, 762.0)",0.75,0.507,1,2506.847,1,0.02,same
0,286,valid,"[(1166, 778)]",[],[1],[0.85],vertical,"(390.0, 262.0)",1.1,nan,0,2511.683,0,0.02,same
0,287,valid,"[(1145, 776)]",[],[1],[0.5666666666666667],vertical,"(390.0, 262.0)",1.4833333333333334,0.521,1,2516.783,1,0.02,same
0,288,valid,"[(1165, 792)]",[],[1],[0.45],horizontal,"(390.0, 262.0)",1.4166666666666667,0.413,1,2522.334,1,0.02,same
0,289,catch,"[(1145, 786)]",[],[1],[],vertical,"(890.0, 262.0)",1.7,nan,1,2527.4,1,0.02,same
0,290,valid,"[(1144, 803)]",[],[1],[0.5833333333333334],vertical,"(890.0, 262.0)",1.0333333333333332,0.541,1,2532.601,2,0.02,same
0,291,valid,"[(1165, 799)]",[],[1],[0.6],vertical,"(390.0, 762.0)",1.0833333333333333,0.555,1,2537.877,2,0.02,same
0,292,valid,"[(1139, 776)]",[],[1],[0.5833333333333334],vertical,"(390.0, 762.0)",0.8833333333333333,0.547,1,2543.351,2,0.02,same
0,293,valid,"[(1146, 794)]",[],[1],[0.6166666666666667],vertical,"(890.0, 262.0)",0.6,0.573,1,2548.918,2,0.02,same
0,294,valid,"[(1160, 794)]",[],[1],[0.5833333333333334],horizontal,"(390.0, 762.0)",0.7166666666666667,0.546,1,2554.168,3,0.02,same
0,295,catch,"[(1166, 766)]",[],[1],[],vertical,"(890.0, 262.0)",1.7,nan,1,2560.199,3,0.02,same
0,296,valid,"[(1156, 790)]",[],[1],[0.6333333333333333],vertical,"(890.0, 262.0)",0.7166666666666667,0.587,1,2566.495,3,0.02,same
0,297,valid,"[(1166, 772)]",[],[1],[0.55],vertical,"(890.0, 262.0)",0.6166666666666667,0.51,1,2572.217,3,0.02,same
0,298,catch,"[(1165, 798)]",[],[1],[],horizontal,"(390.0, 262.0)",1.7,nan,1,2577.652,3,0.02,same
0,299,catch,"[(1144, 793)]",[],[1],[],horizontal,"(390.0, 262.0)",1.7,nan,1,2583.559,3,0.02,same
0,300,catch,"[(1140, 771)]",[],[1],[],vertical,"(390.0, 762.0)",1.7,nan,1,2589.733,3,0.02,same
0,301,valid,"[(1161, 804)]",[],[1],[0.5833333333333334],horizontal,"(390.0, 762.0)",0.6333333333333333,0.542,1,2595.567,3,0.02,same
0,302,valid,"[(1163, 795)]",[],[1],[0.5333333333333333],horizontal,"(390.0, 762.0)",1.1833333333333333,0.493,1,2600.867,3,0.02,same
0,303,valid,"[(1143, 758)]",[],[1],[0.6],vertical,"(390.0, 762.0)",0.45,0.551,1,2607.067,3,0.02,same
0,304,catch,"[(1155, 775)]",[],[1],[],vertical,"(890.0, 262.0)",1.7,nan,1,2612.552,3,0.02,same
0,305,valid,"[(1150, 773)]",[],[1],[],horizontal,"(390.0, 262.0)",,"('cti', 0.99)",0,2618.719,0,0.02,same
0,306,catch,"[(1144, 803)]",[],[1],[],vertical,"(890.0, 262.0)",1.7,nan,1,2622.885,1,0.02,same
0,307,invalid_same_bar,"[(1140, 792)]",[],[1],[0.75],vertical,"(390.0, 762.0)",1.35,0.708,1,2628.31,1,0.02,same
0,308,valid,"[(1147, 790)]",[],[1],[0.55],vertical,"(890.0, 762.0)",0.8833333333333333,0.512,1,2634.184,1,0.02,same
0,309,valid,"[(1167, 786)]",[],[1],[0.6],horizontal,"(890.0, 262.0)",1.0333333333333332,0.562,1,2639.052,2,0.02,same
0,310,catch,"[(1170, 784)]",[],[1],[],vertical,"(390.0, 762.0)",1.7,nan,1,2644.225,2,0.02,same
0,311,valid,"[(1136, 785)]",[],[1],[0.5666666666666667],horizontal,"(890.0, 262.0)",0.7333333333333333,0.522,1,2650.061,2,0.02,same
0,312,invalid_same_bar,"[(1145, 772)]",[],[1],[0.4666666666666667],vertical,"(890.0, 262.0)",1.4333333333333333,0.427,1,2655.602,2,0.02,same
0,313,valid,"[(1168, 787)]",[],[1],[0.6],vertical,"(390.0, 762.0)",1.2666666666666666,0.557,1,2661.353,3,0.0,same
0,314,valid,"[(1178, 793)]",[],[1],[0.5333333333333333],horizontal,"(390.0, 262.0)",1.0333333333333332,0.491,1,2667.421,3,0.0,same
0,315,catch,"[(1155, 775)]",[],[1],[],horizontal,"(890.0, 262.0)",1.7,nan,1,2673.002,3,0.0,same
0,316,catch,"[(1145, 773)]",[],[1],[],vertical,"(390.0, 262.0)",1.7,nan,1,2679.082,3,0.0,same
0,317,invalid_adjacent_other_bar,"[(1141, 805)]",[],[1],[0.7333333333333333],vertical,"(890.0, 762.0)",1.4166666666666667,0.686,1,2684.984,3,0.0,other
0,318,valid,"[(1135, 762)]",[],[1],[0.6166666666666667],horizontal,"(390.0, 762.0)",0.8166666666666667,0.575,1,2691.254,3,0.0,same
0,319,catch,"[(1091, 802)]",[],[1],[],horizontal,"(890.0, 262.0)",,"('cti', 1.635),nan",0,2697.052,0,0.02,same
0,320,valid,"[(1140, 798)]",[],[1],[0.55],horizontal,"(890.0, 262.0)",1.1666666666666667,0.514,1,2884.086,1,0.02,same
0,321,valid,"[(1154, 795)]",[],[1],[0.5333333333333333],vertical,"(390.0, 262.0)",0.5333333333333333,0.494,1,2889.401,1,0.02,same
0,322,catch,"[(1161, 773)]",[],[1],[],horizontal,"(890.0, 762.0)",1.7,nan,1,2894.12,1,0.02,same
0,323,valid,"[(1134, 787)]",[],[1],[0.5333333333333333],vertical,"(390.0, 262.0)",0.6,0.494,1,2899.385,2,0.02,same
0,324,catch,"[(1160, 793)]",[],[1],[],vertical,"(890.0, 762.0)",1.7,nan,1,2904.452,2,0.02,same
0,325,catch,"[(1157, 802)]",[],[1],[0.03333333333333333],vertical,"(390.0, 262.0)",1.7,"0.019,nan",0,2909.553,0,0.04,same
0,326,valid,"[(1125, 807)]",[],[1],[0.85],horizontal,"(890.0, 262.0)",0.36666666666666664,nan,0,2914.335,0,0.04,same
0,327,valid,"[(1121, 771)]",[],[1],[0.48333333333333334],vertical,"(390.0, 262.0)",0.6833333333333333,0.449,1,2918.586,1,0.04,same
0,328,invalid_same_bar,"[(1157, 806)]",[],[1],[0.6666666666666666],horizontal,"(890.0, 262.0)",0.5666666666666667,0.62,1,2923.136,1,0.04,same
0,329,valid,"[(1155, 761)]",[],[1],[0.7],vertical,"(890.0, 262.0)",0.9333333333333333,0.651,1,2927.92,1,0.04,same
0,330,valid,"[(1180, 773)]",[],[1],[0.5666666666666667],horizontal,"(390.0, 262.0)",0.7333333333333333,0.534,1,2932.702,2,0.04,same
0,331,valid,"[(1179, 786)]",[],[1],[0.5666666666666667],vertical,"(890.0, 262.0)",1.0333333333333332,0.524,1,2937.702,2,0.04,same
0,332,catch,"[(1160, 784)]",[],[1],[],vertical,"(390.0, 762.0)",1.7,nan,1,2943.203,2,0.04,same
0,333,invalid_adjacent_other_bar,"[(1120, 786)]",[],[1],[0.6],horizontal,"(890.0, 262.0)",0.8833333333333333,0.556,1,2948.817,2,0.04,other
0,334,valid,"[(1157, 814)]",[],[1],[0.85],vertical,"(390.0, 762.0)",1.1166666666666667,nan,0,2953.879,0,0.04,same
0,335,valid,"[(1130, 773)]",[],[1],[0.48333333333333334],horizontal,"(890.0, 262.0)",1.2333333333333334,0.444,1,2959.069,1,0.04,same
0,336,valid,"[(1121, 790)]",[],[1],[0.55],horizontal,"(390.0, 262.0)",1.0,0.517,1,2964.035,1,0.04,same
0,337,valid,"[(1132, 772)]",[],[1],[0.5666666666666667],vertical,"(890.0, 762.0)",1.4666666666666666,0.531,1,2969.407,1,0.04,same
0,338,valid,"[(1153, 798)]",[],[1],[0.85],vertical,"(390.0, 762.0)",1.45,nan,0,2974.659,0,0.04,same
0,339,invalid_adjacent_other_bar,"[(1148, 795)]",[],[1],[0.5666666666666667],vertical,"(390.0, 762.0)",0.8666666666666667,0.529,1,2979.552,1,0.04,other
0,340,catch,"[(1160, 782)]",[],[1],[],vertical,"(890.0, 262.0)",1.7,nan,1,2984.604,1,0.04,same
0,341,invalid_adjacent_other_bar,"[(1162, 787)]",[],[1],[0.85],vertical,"(890.0, 262.0)",0.4166666666666667,nan,0,2989.586,0,0.04,other
0,342,valid,"[(1120, 761)]",[],[1],[0.5333333333333333],vertical,"(890.0, 762.0)",0.9833333333333333,0.492,1,2993.769,1,0.04,same
0,343,valid,"[(1136, 788)]",[],[1],[0.5],horizontal,"(390.0, 262.0)",0.7833333333333333,0.457,1,2998.576,1,0.04,same
0,344,invalid_same_bar,"[(1133, 774)]",[],[1],[0.5],horizontal,"(390.0, 262.0)",0.6833333333333333,0.462,1,3003.187,1,0.04,same
0,345,catch,"[(1135, 774)]",[],[1],[],horizontal,"(890.0, 762.0)",1.7,nan,1,3007.489,2,0.04,same
0,346,catch,"[(1146, 779)]",[],[1],[],vertical,"(390.0, 262.0)",1.7,nan,1,3013.353,2,0.04,same
0,347,catch,"[(1164, 791)]",[],[1],[],vertical,"(890.0, 762.0)",1.7,nan,1,3019.087,2,0.04,same
0,348,valid,"[(1144, 778)]",[],[1],[0.7666666666666666],horizontal,"(390.0, 262.0)",0.6833333333333333,0.718,1,3024.711,2,0.04,same
0,349,valid,"[(1133, 805)]",[],[1],[0.48333333333333334],horizontal,"(390.0, 762.0)",1.0166666666666666,0.445,1,3029.97,3,0.04,same
0,350,valid,"[(1159, 791)]",[],[1],[0.21666666666666667],vertical,"(890.0, 262.0)",0.8333333333333334,0.182,0,3035.555,0,0.04,same
0,351,catch,"[(1130, 776)]",[],[1],[],vertical,"(390.0, 762.0)",1.7,nan,1,3039.84,1,0.04,same
0,352,valid,"[(1120, 795)]",[],[1],[0.5],vertical,"(890.0, 762.0)",0.48333333333333334,0.461,1,3045.135,1,0.04,same
0,353,invalid_same_bar,"[(1132, 792)]",[],[1],[0.5666666666666667],horizontal,"(890.0, 262.0)",1.45,0.524,1,3049.419,1,0.04,same
0,354,catch,"[(1132, 778)]",[],[1],[],horizontal,"(390.0, 262.0)",1.7,nan,1,3054.836,2,0.04,same
0,355,valid,"[(1162, 799)]",[],[1],[0.5333333333333333],vertical,"(890.0, 262.0)",0.5166666666666666,0.488,1,3060.568,2,0.04,same
0,356,invalid_same_bar,"[(1135, 781)]",[],[1],[0.5],vertical,"(890.0, 262.0)",1.4333333333333333,0.459,1,3065.602,2,0.04,same
0,357,valid,"[(1160, 786)]",[],[1],[0.5666666666666667],vertical,"(390.0, 262.0)",0.95,0.531,1,3071.103,2,0.04,same
0,358,valid,"[(1136, 788)]",[],[1],[0.6],horizontal,"(390.0, 262.0)",1.5166666666666666,0.558,1,3076.493,3,0.04,same
0,359,catch,"[(1131, 780)]",[],[1],[],vertical,"(890.0, 262.0)",1.7,nan,1,3082.836,3,0.04,same
0,360,catch,"[(1130, 781)]",[],[1],[],horizontal,"(390.0, 762.0)",1.7,nan,1,3088.819,3,0.04,same
0,361,catch,"[(1135, 792)]",[],[1],[],vertical,"(890.0, 762.0)",1.7,nan,1,3094.994,3,0.04,same
0,362,valid,"[(1132, 786)]",[],[1],[0.55],horizontal,"(390.0, 762.0)",1.3333333333333333,0.506,1,3100.77,3,0.04,same
0,363,valid,"[(1165, 789)]",[],[1],[0.6],horizontal,"(890.0, 262.0)",1.2,0.559,1,3107.152,3,0.04,same
0,364,valid,"[(1162, 796)]",[],[1],[0.48333333333333334],vertical,"(890.0, 262.0)",1.3333333333333333,0.44,1,3113.519,3,0.04,same
0,365,valid,"[(1135, 786)]",[],[1],[0.5333333333333333],horizontal,"(890.0, 762.0)",0.43333333333333335,0.495,1,3119.693,3,0.04,same
0,366,valid,"[(1086, 822)]",[],[1],[0.48333333333333334],horizontal,"(390.0, 762.0)",1.1166666666666667,0.445,1,3124.936,3,0.04,same
0,367,valid,"[(1141, 789)]",[],[1],[0.48333333333333334],horizontal,"(890.0, 762.0)",0.6,0.445,1,3131.22,3,0.04,same
0,368,catch,"[(1167, 784)]",[],[1],[],vertical,"(390.0, 262.0)",1.7,nan,1,3136.473,3,0.04,same
0,369,catch,"[(1130, 797)]",[],[1],[],vertical,"(390.0, 762.0)",1.7,nan,1,3142.569,3,0.02,same
0,370,invalid_adjacent_other_bar,"[(1135, 784)]",[],[1],[0.5166666666666666],horizontal,"(390.0, 262.0)",0.65,0.475,1,3148.371,3,0.02,other
0,371,valid,"[(1155, 789)]",[],[1],[0.55],horizontal,"(390.0, 762.0)",1.1833333333333333,0.505,1,3153.603,3,0.02,same
0,372,valid,"[(1165, 781)]",[],[1],[0.55],vertical,"(390.0, 262.0)",1.5166666666666666,0.509,1,3159.893,3,0.02,same
0,373,valid,"[(1130, 797)]",[],[1],[0.6166666666666667],vertical,"(390.0, 762.0)",1.1333333333333333,0.573,1,3166.187,3,0.02,same
0,374,catch,"[(1140, 777)]",[],[1],[],vertical,"(390.0, 262.0)",1.7,nan,1,3172.572,3,0.02,same
0,375,invalid_same_bar,"[(1134, 782)]",[],[1],[0.6166666666666667],vertical,"(390.0, 262.0)",1.45,0.577,1,3178.278,3,0.0,same
0,376,valid,"[(1162, 796)]",[],[1],[0.6333333333333333],vertical,"(390.0, 762.0)",1.5,0.593,1,3184.603,3,0.0,same
0,377,valid,"[(1160, 777)]",[],[1],[0.5],vertical,"(890.0, 762.0)",0.5666666666666667,0.458,1,3190.97,3,0.0,same
0,378,valid,"[(1121, 794)]",[],[1],[0.55],horizontal,"(390.0, 262.0)",1.1,0.512,1,3196.611,3,0.0,same
0,379,valid,"[(1135, 779)]",[],[1],[0.5166666666666666],vertical,"(890.0, 762.0)",1.35,0.484,1,3202.751,3,0.0,same
0,380,invalid_adjacent_other_bar,"[(1143, 782)]",[],[1],[0.5833333333333334],vertical,"(890.0, 762.0)",1.5,0.537,1,3208.85,3,0.0,other
0,381,valid,"[(1141, 779)]",[],[1],[0.55],horizontal,"(390.0, 262.0)",1.1666666666666667,0.506,1,3214.944,3,0.0,same
0,382,invalid_same_bar,"[(1133, 805)]",[],[1],[0.5],vertical,"(390.0, 262.0)",0.7166666666666667,0.461,1,3221.138,3,0.0,same
0,383,valid,"[(1134, 796)]",[],[1],[0.5166666666666666],horizontal,"(390.0, 762.0)",0.35,0.477,1,3226.406,3,0.0,same
0,384,valid,"[(1134, 801)]",[],[1],[0.6333333333333333],horizontal,"(890.0, 762.0)",0.6,0.589,1,3231.689,3,0.0,same
0,385,valid,"[(1165, 784)]",[],[1],[0.85],vertical,"(390.0, 262.0)",1.25,nan,0,3237.381,0,0.0,same
0,386,valid,"[(1116, 764)]",[],[1],[0.5833333333333334],horizontal,"(890.0, 262.0)",0.45,0.54,1,3241.988,1,0.0,same
0,387,valid,"[(1163, 787)]",[],[1],[0.5166666666666666],vertical,"(890.0, 262.0)",1.1333333333333333,0.479,1,3246.698,1,0.0,same
0,388,valid,"[(1134, 781)]",[],[1],[0.5833333333333334],vertical,"(890.0, 762.0)",0.7166666666666667,0.545,1,3251.648,1,0.0,same
0,389,valid,"[(1130, 775)]",[],[1],[0.85],vertical,"(390.0, 262.0)",1.2666666666666666,nan,0,3256.553,0,0.0,same
0,390,invalid_same_bar,"[(1121, 799)]",[],[1],[0.5333333333333333],horizontal,"(390.0, 762.0)",1.1666666666666667,0.494,1,3261.709,1,0.0,same
0,391,valid,"[(1135, 767)]",[],[1],[0.5666666666666667],vertical,"(390.0, 762.0)",0.5333333333333333,0.525,1,3266.688,1,0.0,same
0,392,valid,"[(1141, 785)]",[],[1],[0.5166666666666666],horizontal,"(390.0, 762.0)",0.5,0.476,1,3271.404,1,0.0,same
0,393,valid,"[(1155, 806)]",[],[1],[0.5166666666666666],vertical,"(890.0, 262.0)",0.7666666666666666,0.474,1,3276.249,2,0.0,same
0,394,valid,"[(1115, 817)]",[],[1],[0.5166666666666666],vertical,"(890.0, 762.0)",1.0333333333333332,0.479,1,3281.004,2,0.0,same
0,395,valid,"[(1172, 792)]",[],[1],[0.5166666666666666],vertical,"(390.0, 762.0)",0.75,0.479,1,3286.119,2,0.0,same
0,396,valid,"[(1157, 794)]",[],[1],[0.45],vertical,"(390.0, 762.0)",1.4166666666666667,0.414,1,3291.127,2,0.0,same
0,397,valid,"[(1090, 788)]",[],[1],[0.48333333333333334],horizontal,"(890.0, 262.0)",1.1666666666666667,0.453,1,3296.779,3,0.0,same
0,398,valid,"[(1141, 820)]",[],[1],[0.5833333333333334],horizontal,"(890.0, 262.0)",0.48333333333333334,0.539,1,3319.738,3,0.0,same
0,399,valid,"[(1160, 791)]",[],[1],[0.5],horizontal,"(390.0, 762.0)",0.8666666666666667,0.461,1,3325.293,3,0.0,same
0,400,valid,"[(1132, 806)]",[],[1],[0.85],vertical,"(890.0, 262.0)",0.9,nan,0,3331.088,0,0.0,same
0,401,valid,"[(1121, 787)]",[],[1],[0.65],vertical,"(390.0, 762.0)",1.3833333333333333,0.613,1,3336.009,1,0.0,same
0,402,valid,"[(1165, 799)]",[],[1],[0.5333333333333333],vertical,"(890.0, 762.0)",0.55,0.492,1,3341.866,1,0.0,same
0,403,valid,"[(1164, 786)]",[],[1],[0.5333333333333333],vertical,"(890.0, 262.0)",1.1,0.49,1,3346.57,1,0.0,same
0,404,catch,"[(1155, 776)]",[],[1],[],horizontal,"(890.0, 262.0)",1.7,nan,1,3351.669,2,0.0,same
0,405,invalid_same_bar,"[(1136, 791)]",[],[1],[0.4666666666666667],vertical,"(890.0, 262.0)",1.2833333333333332,0.426,1,3357.412,2,0.0,same
0,406,invalid_same_bar,"[(1161, 798)]",[],[1],[0.45],vertical,"(890.0, 262.0)",1.4166666666666667,0.408,1,3362.693,2,0.0,same
0,407,catch,"[(1137, 796)]",[],[1],[],horizontal,"(390.0, 262.0)",,"('cti', 1.525),nan",0,3368.333,0,0.02,same
0,408,valid,"[(1135, 796)]",[],[1],[0.55],vertical,"(890.0, 262.0)",1.2666666666666666,0.51,1,3372.871,1,0.02,same
0,409,valid,"[(1153, 786)]",[],[1],[0.5],vertical,"(390.0, 262.0)",1.4333333333333333,0.456,1,3377.904,1,0.02,same
0,410,catch,"[(1178, 789)]",[],[1],[],horizontal,"(890.0, 762.0)",1.7,nan,1,3383.17,1,0.02,same
0,411,catch,"[(1148, 791)]",[],[1],[],vertical,"(890.0, 762.0)",1.7,nan,1,3388.438,2,0.02,same
0,412,invalid_adjacent_other_bar,"[(1165, 776)]",[],[1],[0.55],horizontal,"(890.0, 262.0)",1.4166666666666667,0.515,1,3394.519,2,0.02,other
0,413,catch,"[(1160, 806)]",[],[1],[],vertical,"(890.0, 762.0)",1.7,nan,1,3399.852,2,0.02,same
0,414,catch,"[(1163, 804)]",[],[1],[],vertical,"(890.0, 762.0)",1.7,nan,1,3405.322,2,0.02,same
0,415,valid,"[(1153, 795)]",[],[1],[0.5166666666666666],vertical,"(890.0, 762.0)",0.36666666666666664,0.478,1,3411.17,3,0.02,same
0,416,valid,"[(1134, 764)]",[],[1],[0.5],horizontal,"(890.0, 262.0)",1.3333333333333333,0.46,1,3416.653,3,0.02,same
0,417,invalid_adjacent_other_bar,"[(1139, 809)]",[],[1],[0.55],vertical,"(390.0, 262.0)",0.7333333333333333,0.51,1,3422.555,3,0.02,other
0,418,catch,"[(1160, 792)]",[],[1],[],vertical,"(890.0, 262.0)",1.7,nan,1,3427.938,3,0.02,same
0,419,valid,"[(1158, 795)]",[],[1],[0.65],vertical,"(890.0, 262.0)",1.1666666666666667,0.608,1,3433.797,3,0.02,same
0,420,valid,"[(1168, 773)]",[],[1],[0.55],vertical,"(890.0, 262.0)",0.9166666666666666,0.511,1,3440.338,3,0.02,same
0,421,valid,"[(1135, 769)]",[],[1],[0.5166666666666666],vertical,"(390.0, 262.0)",0.85,0.477,1,3446.038,3,0.02,same
0,422,valid,"[(1165, 784)]",[],[1],[0.5333333333333333],horizontal,"(390.0, 762.0)",0.48333333333333334,0.494,1,3451.472,3,0.02,same
0,423,valid,"[(1155, 803)]",[],[1],[0.5166666666666666],vertical,"(890.0, 762.0)",0.6,0.485,1,3456.638,3,0.02,same
0,424,catch,"[(1165, 767)]",[],[1],[],horizontal,"(390.0, 762.0)",1.7,nan,1,3461.553,3,0.02,same
0,425,valid,"[(1160, 786)]",[],[1],[0.5],vertical,"(390.0, 762.0)",0.5833333333333334,0.458,1,3467.846,3,0.02,same
0,426,valid,"[(1160, 777)]",[],[1],[0.85],horizontal,"(390.0, 262.0)",0.5666666666666667,nan,0,3473.055,0,0.02,same
0,427,valid,"[(1118, 756)]",[],[1],[0.5],horizontal,"(890.0, 762.0)",0.85,0.46,1,3477.609,1,0.02,same
0,428,valid,"[(1163, 793)]",[],[1],[0.55],vertical,"(390.0, 762.0)",0.7333333333333333,0.51,1,3482.677,1,0.02,same
0,429,catch,"[(1163, 789)]",[],[1],[],vertical,"(890.0, 762.0)",1.7,nan,1,3487.204,1,0.02,same
0,430,valid,"[(1160, 778)]",[],[1],[0.6166666666666667],vertical,"(890.0, 262.0)",1.3,0.575,1,3492.238,2,0.02,same
0,431,valid,"[(1165, 787)]",[],[1],[0.6666666666666666],vertical,"(390.0, 262.0)",0.36666666666666664,0.622,1,3497.804,2,0.02,same
0,432,valid,"[(1136, 792)]",[],[1],[0.5],horizontal,"(890.0, 262.0)",1.4333333333333333,0.462,1,3502.939,2,0.02,same
0,433,catch,"[(1165, 778)]",[],[1],[],vertical,"(390.0, 762.0)",1.7,nan,1,3508.489,2,0.02,same
0,434,catch,"[(1165, 799)]",[],[1],[],horizontal,"(890.0, 762.0)",1.7,nan,1,3513.922,3,0.02,same
0,435,catch,"[(1166, 789)]",[],[1],[],vertical,"(890.0, 762.0)",1.7,nan,1,3519.786,3,0.02,same
0,436,valid,"[(1136, 808)]",[],[1],[0.5333333333333333],horizontal,"(390.0, 762.0)",1.45,0.493,1,3526.039,3,0.02,same
0,437,catch,"[(1121, 793)]",[],[1],[],vertical,"(390.0, 762.0)",1.7,nan,1,3532.305,3,0.02,same
0,438,valid,"[(1160, 795)]",[],[1],[0.5],vertical,"(390.0, 262.0)",1.35,0.461,1,3538.167,3,0.02,same
0,439,catch,"[(1145, 793)]",[],[1],[],vertical,"(890.0, 762.0)",1.7,nan,1,3544.089,3,0.02,same
0,440,catch,"[(1121, 815)]",[],[1],[],horizontal,"(890.0, 762.0)",1.7,nan,1,3550.239,3,0.02,same
0,441,valid,"[(1166, 804)]",[],[1],[0.5],horizontal,"(390.0, 762.0)",0.7833333333333333,0.46,1,3556.373,3,0.02,same
0,442,valid,"[(1135, 800)]",[],[1],[0.85],vertical,"(390.0, 762.0)",0.75,nan,0,3562.155,0,0.02,same
0,443,valid,"[(1119, 772)]",[],[1],[0.7],horizontal,"(890.0, 262.0)",1.3666666666666667,0.66,1,3566.521,1,0.02,same
0,444,valid,"[(1165, 806)]",[],[1],[0.85],horizontal,"(390.0, 262.0)",1.3333333333333333,nan,0,3571.971,0,0.02,same
0,445,valid,"[(1120, 787)]",[],[1],[0.6166666666666667],vertical,"(390.0, 762.0)",1.5,0.581,1,3576.891,1,0.02,same
0,446,valid,"[(1163, 751), (1093, 791)]",[],"[0, 1]",[0.6666666666666666],vertical,"(390.0, 762.0)",1.0666666666666667,0.624,1,3585.071,1,0.02,same
0,447,catch,"[(1165, 791)]",[],[1],[],horizontal,"(890.0, 762.0)",1.7,nan,1,3592.41,1,0.02,same
0,448,valid,"[(1160, 795)]",[],[1],[0.5],horizontal,"(890.0, 262.0)",1.2166666666666666,0.459,1,3597.506,2,0.02,same
0,449,valid,"[(1121, 819)]",[],[1],[0.5166666666666666],vertical,"(890.0, 762.0)",1.3166666666666667,0.477,1,3603.097,2,0.02,same
0,450,valid,"[(1140, 792)]",[],[1],[0.5],horizontal,"(390.0, 762.0)",0.5333333333333333,0.462,1,3608.874,2,0.02,same
0,451,valid,"[(1135, 768)]",[],[1],[0.85],horizontal,"(890.0, 262.0)",0.7333333333333333,nan,0,3613.689,0,0.02,same
0,452,valid,"[(1091, 784)]",[],[1],[0.48333333333333334],horizontal,"(390.0, 262.0)",1.3333333333333333,0.45,1,3617.989,1,0.02,same
0,453,catch,"[(1098, 816)]",[],[1],[],horizontal,"(890.0, 762.0)",1.7,nan,1,3623.475,1,0.02,same
0,454,invalid_same_bar,"[(1163, 798)]",[],[1],[0.85],vertical,"(890.0, 762.0)",0.7666666666666666,nan,0,3666.257,0,0.02,same
0,455,invalid_same_bar,"[(1120, 806)]",[],[1],[0.4666666666666667],vertical,"(890.0, 762.0)",0.7833333333333333,0.434,1,3670.972,1,0.02,same
0,456,valid,"[(1163, 798)]",[],[1],[0.4166666666666667],vertical,"(390.0, 262.0)",0.9833333333333333,0.383,1,3675.707,1,0.02,same
0,457,valid,"[(1135, 803)]",[],[1],[0.4166666666666667],horizontal,"(390.0, 262.0)",1.2333333333333334,0.377,1,3680.222,1,0.0,same
0,458,catch,"[(1170, 812)]",[],[1],[],vertical,"(390.0, 762.0)",1.7,nan,1,3763.739,2,0.0,same
0,459,valid,"[(1160, 816)]",[],[1],[0.6],horizontal,"(390.0, 762.0)",0.4166666666666667,0.556,1,3769.47,2,0.0,same
0,460,valid,"[(1159, 799)]",[],[1],[0.5166666666666666],horizontal,"(390.0, 262.0)",1.0833333333333333,0.479,1,3774.539,2,0.0,same
0,461,invalid_adjacent_other_bar,"[(1135, 801)]",[],[1],[0.85],vertical,"(890.0, 262.0)",1.0833333333333333,nan,0,3779.873,0,0.0,other
0,462,valid,"[(1176, 817)]",[],[1],[],horizontal,"(890.0, 762.0)",,"('cti', 1.28)",0,3784.523,0,0.0,same
0,463,valid,"[(1105, 853)]",[],[1],[0.35],horizontal,"(890.0, 262.0)",1.4833333333333334,0.312,1,3789.169,1,0.0,same
0,464,valid,"[(1140, 820)]",[],[1],[0.85],horizontal,"(890.0, 262.0)",1.4666666666666666,nan,0,3825.374,0,0.0,same
0,465,valid,"[(1111, 787)]",[],[1],[0.5],vertical,"(390.0, 762.0)",0.8166666666666667,0.463,1,3830.529,1,0.0,same
0,466,catch,"[(1165, 786)]",[],[1],[],vertical,"(890.0, 762.0)",1.7,nan,1,3835.54,1,0.0,same
0,467,valid,"[(1133, 773)]",[],[1],[0.4666666666666667],horizontal,"(890.0, 262.0)",0.5166666666666666,0.425,1,3840.273,1,0.0,same
0,468,valid,"[(1150, 796)]",[],[1],[0.85],horizontal,"(890.0, 762.0)",0.6333333333333333,nan,0,3844.978,0,0.0,same
0,469,valid,"[(1129, 791)]",[],[1],[0.45],horizontal,"(890.0, 262.0)",1.25,0.411,1,3848.977,1,0.0,same
0,470,catch,"[(1136, 769)]",[],[1],[],vertical,"(390.0, 762.0)",1.7,nan,1,3853.904,1,0.0,same
0,471,valid,"[(1161, 790)]",[],[1],[0.6333333333333333],horizontal,"(890.0, 262.0)",0.5,0.593,1,3858.609,1,0.0,same
0,472,catch,"[(1150, 810)]",[],[1],[],vertical,"(390.0, 262.0)",1.7,nan,1,3862.956,2,0.0,same
0,473,invalid_same_bar,"[(1162, 806)]",[],[1],[0.85],vertical,"(890.0, 762.0)",1.1333333333333333,nan,0,3868.433,0,0.0,same
0,474,valid,"[(1096, 806)]",[],[1],[0.1],vertical,"(390.0, 262.0)",1.3833333333333333,0.066,0,3873.489,0,0.0,same
0,475,valid,"[(1119, 793)]",[],[1],[0.85],vertical,"(390.0, 262.0)",1.0166666666666666,nan,0,3882.539,0,0.0,same
0,476,valid,"[(1145, 806)]",[],[1],[0.5],vertical,"(890.0, 762.0)",1.1333333333333333,0.46,1,3887.323,1,0.0,same
0,477,valid,"[(1165, 804)]",[],[1],[0.5],vertical,"(390.0, 262.0)",0.5,0.458,1,3892.539,1,0.0,same
0,478,valid,"[(1111, 789)]",[],[1],[0.5],vertical,"(890.0, 262.0)",0.4,0.463,1,3897.195,1,0.0,same
0,479,valid,"[(1135, 789)]",[],[1],[0.6166666666666667],vertical,"(390.0, 262.0)",1.2666666666666666,0.574,1,3901.222,2,0.0,same
0,480,valid,"[(1136, 791)]",[],[1],[0.5333333333333333],vertical,"(890.0, 762.0)",0.6666666666666666,0.491,1,3907.021,2,0.0,same
0,481,valid,"[(1143, 794)]",[],[1],[0.5166666666666666],vertical,"(890.0, 762.0)",0.4166666666666667,0.473,1,3912.284,2,0.0,same
0,482,valid,"[(1134, 773)]",[],[1],[0.55],horizontal,"(390.0, 762.0)",0.35,0.507,1,3917.154,2,0.0,same
0,483,valid,"[(1135, 777)]",[],[1],[0.5166666666666666],vertical,"(890.0, 762.0)",1.15,0.475,1,3921.792,3,0.0,same
0,484,valid,"[(1151, 779)]",[],[1],[0.65],horizontal,"(890.0, 262.0)",0.9666666666666667,0.611,1,3928.299,3,0.0,same
0,485,valid,"[(1133, 780)]",[],[1],[0.6333333333333333],horizontal,"(390.0, 262.0)",1.3,0.589,1,3934.334,3,0.0,same
0,486,invalid_adjacent_other_bar,"[(1140, 770)]",[],[1],[0.6333333333333333],horizontal,"(890.0, 262.0)",0.8166666666666667,0.591,1,3940.388,3,0.0,other
0,487,catch,"[(1136, 785)]",[],[1],[],vertical,"(890.0, 262.0)",1.7,nan,1,3945.807,3,0.0,same
0,488,catch,"[(1149, 799)]",[],[1],[],vertical,"(890.0, 262.0)",1.7,nan,1,3951.638,3,0.0,same
0,489,valid,"[(1159, 774)]",[],[1],[0.85],vertical,"(390.0, 762.0)",1.25,nan,0,3957.365,0,0.0,same
0,490,catch,"[(1153, 799)]",[],[1],[],vertical,"(890.0, 262.0)",1.7,nan,1,3962.106,1,0.0,same
0,491,catch,"[(1154, 787)]",[],[1],[],horizontal,"(890.0, 762.0)",1.7,nan,1,3967.097,1,0.0,same
0,492,valid,"[(1135, 770)]",[],[1],[0.6166666666666667],vertical,"(890.0, 762.0)",1.0666666666666667,0.574,1,3972.679,1,0.0,same
0,493,valid,"[(1146, 773)]",[],[1],[0.3833333333333333],horizontal,"(890.0, 762.0)",1.5333333333333332,0.344,1,3977.581,2,0.0,same
0,494,invalid_adjacent_other_bar,"[(1143, 791)]",[],[1],[0.6],vertical,"(390.0, 262.0)",1.1666666666666667,0.555,1,3983.524,2,0.0,other
0,495,valid,"[(1132, 793)]",[],[1],[0.5],horizontal,"(890.0, 262.0)",1.35,0.459,1,3989.175,2,0.0,same
0,496,valid,"[(1154, 798)]",[],[1],[0.5],horizontal,"(890.0, 262.0)",0.8333333333333334,0.455,1,3995.408,2,0.0,same
0,497,catch,"[(1135, 788)]",[],[1],[],vertical,"(890.0, 762.0)",1.7,nan,1,4000.941,3,0.0,same
0,498,catch,"[(1135, 789)]",[],[1],[],horizontal,"(390.0, 262.0)",1.7,nan,1,4006.956,3,0.0,same
0,499,catch,"[(1140, 769)]",[],[1],[],horizontal,"(390.0, 262.0)",1.7,nan,1,4013.056,3,0.0,same
0,500,valid,"[(1135, 787)]",[],[1],[0.5833333333333334],horizontal,"(890.0, 762.0)",0.8333333333333334,0.544,1,4018.605,3,0.0,same
0,501,valid,"[(1160, 789)]",[],[1],[0.85],vertical,"(390.0, 262.0)",1.4,nan,0,4023.991,0,0.0,same
0,502,valid,"[(1145, 791)]",[],[1],[0.5],horizontal,"(390.0, 262.0)",0.4666666666666667,0.461,1,4029.006,1,0.0,same
0,503,valid,"[(1166, 778)]",[],[1],[0.6833333333333333],vertical,"(390.0, 762.0)",0.8333333333333334,0.637,1,4033.641,1,0.0,same
0,504,catch,"[(1165, 778)]",[],[1],[],horizontal,"(890.0, 762.0)",1.7,nan,1,4038.849,1,0.0,same
0,505,valid,"[(1153, 764)]",[],[1],[0.7],vertical,"(390.0, 262.0)",1.25,0.653,1,4043.703,2,0.0,same
0,506,valid,"[(1156, 801)]",[],[1],[0.7],vertical,"(390.0, 762.0)",1.1166666666666667,0.653,1,4049.654,2,0.0,same
0,507,valid,"[(1135, 776)]",[],[1],[0.5333333333333333],horizontal,"(890.0, 262.0)",1.2166666666666666,0.497,1,4055.329,2,0.0,same
0,508,catch,"[(1169, 777)]",[],[1],[],horizontal,"(390.0, 762.0)",1.7,nan,1,4060.629,2,0.0,same
0,509,valid,"[(1135, 799)]",[],[1],[0.5333333333333333],vertical,"(890.0, 262.0)",1.3,0.491,1,4065.914,3,0.0,same
0,510,invalid_adjacent_other_bar,"[(1129, 812)]",[],[1],[0.5333333333333333],vertical,"(390.0, 762.0)",0.6666666666666666,0.491,1,4071.966,3,0.0,other
0,511,valid,"[(1156, 785)]",[],[1],[0.5],horizontal,"(890.0, 262.0)",0.8666666666666667,0.457,1,4077.382,3,0.0,same
0,512,valid,"[(1161, 784)]",[],[1],[0.85],vertical,"(390.0, 262.0)",0.8333333333333334,nan,0,4082.907,0,0.0,same
0,513,valid,"[(1086, 808)]",[],[1],[0.85],vertical,"(890.0, 762.0)",0.43333333333333335,nan,0,4087.641,0,0.0,same
0,514,valid,"[(1089, 802)]",[],[1],[0.5166666666666666],horizontal,"(890.0, 762.0)",0.5833333333333334,0.48,1,4093.157,1,0.0,same
0,515,valid,"[(1132, 799)]",[],[1],[0.5333333333333333],horizontal,"(890.0, 762.0)",1.2333333333333334,0.49,1,4098.298,1,0.0,same
0,516,valid,"[(1120, 795)]",[],[1],[0.55],vertical,"(390.0, 762.0)",1.5,0.509,1,4103.9,1,0.0,same
0,517,valid,"[(1131, 773)]",[],[1],[0.45],horizontal,"(890.0, 262.0)",1.0333333333333332,0.418,1,4109.049,2,0.0,same
0,518,valid,"[(1135, 815)]",[],[1],[0.5],vertical,"(890.0, 262.0)",0.5,0.463,1,4114.74,2,0.0,same
0,519,valid,"[(1150, 804)]",[],[1],[0.5666666666666667],vertical,"(390.0, 762.0)",1.1166666666666667,0.526,1,4138.657,2,0.0,same
0,520,valid,"[(1135, 789)]",[],[1],[0.5333333333333333],horizontal,"(890.0, 762.0)",0.6,0.492,1,4144.924,2,0.0,same
0,521,catch,"[(1145, 800)]",[],[1],[],vertical,"(890.0, 262.0)",1.7,nan,1,4150.138,3,0.0,same
0,522,catch,"[(1155, 806)]",[],[1],[],horizontal,"(890.0, 262.0)",1.7,nan,1,4156.365,3,0.0,same
0,523,catch,"[(1132, 800)]",[],[1],[],horizontal,"(890.0, 262.0)",1.7,nan,1,4162.267,3,0.0,same
0,524,catch,"[(1135, 798)]",[],[1],[],vertical,"(890.0, 762.0)",1.7,nan,1,4167.933,3,0.0,same
0,525,valid,"[(1153, 809)]",[],[1],[0.55],horizontal,"(890.0, 762.0)",1.1833333333333333,0.515,1,4173.915,3,0.0,same
0,526,invalid_adjacent_other_bar,"[(1143, 800)]",[],[1],[0.5833333333333334],horizontal,"(390.0, 762.0)",0.4166666666666667,0.545,1,4179.778,3,0.0,other
0,527,catch,"[(1161, 792)]",[],[1],[],horizontal,"(390.0, 762.0)",1.7,nan,1,4185.307,3,0.0,same
0,528,catch,"[(1162, 799)]",[],[1],[],vertical,"(890.0, 262.0)",1.7,nan,1,4191.192,3,0.0,same
0,529,valid,"[(1136, 795)]",[],[1],[0.55],horizontal,"(390.0, 762.0)",1.05,0.508,1,4196.94,3,0.0,same
0,530,catch,"[(1135, 787)]",[],[1],[],horizontal,"(390.0, 762.0)",1.7,nan,1,4202.795,3,0.0,same
0,531,valid,"[(1140, 790)]",[],[1],[0.5333333333333333],vertical,"(390.0, 262.0)",0.35,0.491,1,4208.631,3,0.0,same
0,532,valid,"[(1136, 774)]",[],[1],[0.48333333333333334],horizontal,"(390.0, 262.0)",0.43333333333333335,0.443,1,4213.542,3,0.0,same
0,533,invalid_adjacent_other_bar,"[(1109, 792)]",[],[1],[0.5],horizontal,"(890.0, 762.0)",0.5,0.461,1,4219.124,3,0.0,other
0,534,valid,"[(1122, 795)]",[],[1],[0.7],horizontal,"(890.0, 762.0)",0.8666666666666667,0.655,1,4224.557,3,0.0,same
0,535,catch,"[(1170, 782)]",[],[1],[],horizontal,"(390.0, 762.0)",1.7,nan,1,4230.651,3,0.0,same
0,536,catch,"[(1135, 803)]",[],[1],[],vertical,"(390.0, 262.0)",1.7,nan,1,4236.947,3,0.0,same
0,537,catch,"[(1145, 796)]",[],[1],[],horizontal,"(390.0, 762.0)",1.7,nan,1,4243.075,3,0.0,same
0,538,valid,"[(1135, 795)]",[],[1],[0.5],vertical,"(890.0, 762.0)",0.45,0.457,1,4249.156,3,0.0,same
0,539,invalid_adjacent_other_bar,"[(1126, 796)]",[],[1],[0.16666666666666666],horizontal,"(390.0, 262.0)",0.9333333333333333,0.135,0,4254.524,0,0.0,other
0,540,valid,"[(1133, 816)]",[],[1],[0.6166666666666667],horizontal,"(390.0, 262.0)",0.5666666666666667,0.573,1,4258.845,1,0.0,same
0,541,valid,"[(1141, 799)]",[],[1],[0.55],horizontal,"(890.0, 262.0)",0.6833333333333333,0.506,1,4263.324,1,0.0,same
0,542,valid,"[(1134, 779)]",[],[1],[0.8],horizontal,"(390.0, 262.0)",0.43333333333333335,0.752,1,4267.957,1,0.0,same
0,543,valid,"[(1135, 791)]",[],[1],[0.85],vertical,"(890.0, 762.0)",0.4666666666666667,nan,0,4272.94,0,0.0,same
0,544,valid,"[(1115, 800)]",[],[1],[0.5],vertical,"(890.0, 762.0)",0.6166666666666667,0.465,1,4277.47,1,0.0,same
0,545,catch,"[(1135, 803)]",[],[1],[],horizontal,"(390.0, 762.0)",1.7,nan,1,4282.326,1,0.0,same
0,546,catch,"[(1145, 795)]",[],[1],[],horizontal,"(890.0, 762.0)",1.7,nan,1,4287.912,1,0.0,same
0,547,catch,"[(1147, 781)]",[],[1],[],vertical,"(390.0, 262.0)",1.7,nan,1,4292.974,2,0.0,same
0,548,valid,"[(1165, 808)]",[],[1],[0.6333333333333333],vertical,"(890.0, 262.0)",0.43333333333333335,0.588,1,4298.842,2,0.0,same
0,549,valid,"[(1150, 781)]",[],[1],[0.5166666666666666],horizontal,"(390.0, 262.0)",0.6,0.48,1,4303.428,2,0.0,same
0,550,valid,"[(1140, 784)]",[],[1],[0.5666666666666667],horizontal,"(390.0, 762.0)",0.7666666666666666,0.529,1,4308.316,2,0.0,same
0,551,catch,"[(1135, 781)]",[],[1],[],vertical,"(390.0, 262.0)",1.7,nan,1,4313.378,3,0.0,same
0,552,catch,"[(1160, 802)]",[],[1],[],horizontal,"(890.0, 262.0)",1.7,nan,1,4319.562,3,0.0,same
0,553,valid,"[(1086, 776)]",[],[1],[0.45],vertical,"(390.0, 262.0)",1.4833333333333334,0.406,1,4325.482,3,0.0,same
0,554,catch,"[(1135, 786)]",[],[1],[],vertical,"(890.0, 762.0)",1.7,nan,1,4331.507,3,0.0,same
0,555,invalid_adjacent_other_bar,"[(1139, 781)]",[],[1],[0.5],horizontal,"(890.0, 262.0)",0.8666666666666667,0.46,1,4337.708,3,0.0,other
0,556,valid,"[(1164, 790)]",[],[1],[0.08333333333333333],horizontal,"(390.0, 262.0)",1.4333333333333333,0.05,0,4343.475,0,0.0,same
0,557,catch,"[(1140, 800)]",[],[1],[],vertical,"(390.0, 262.0)",1.7,nan,1,4348.002,1,0.0,same
0,558,valid,"[(1140, 801)]",[],[1],[0.5833333333333334],horizontal,"(390.0, 762.0)",1.1166666666666667,0.542,1,4353.525,1,0.0,same
0,559,invalid_same_bar,"[(1137, 779)]",[],[1],[0.5166666666666666],horizontal,"(390.0, 262.0)",0.5666666666666667,0.477,1,4358.697,1,0.0,same
0,560,valid,"[(1138, 777)]",[],[1],[0.6666666666666666],vertical,"(890.0, 762.0)",0.8166666666666667,0.624,1,4363.174,2,0.0,same
0,561,invalid_adjacent_other_bar,"[(1136, 772)]",[],[1],[0.6833333333333333],vertical,"(890.0, 762.0)",0.95,0.647,1,4368.337,2,0.0,other
0,562,valid,"[(1157, 792)]",[],[1],[0.6333333333333333],vertical,"(890.0, 762.0)",1.2,0.593,1,4374.049,2,0.0,same
0,563,valid,"[(1090, 798)]",[],[1],[0.65],vertical,"(890.0, 762.0)",1.4,0.609,1,4380.075,2,0.0,same
0,564,valid,"[(1141, 830)]",[],[1],[0.5833333333333334],horizontal,"(390.0, 762.0)",0.5666666666666667,0.54,1,4386.386,3,0.0,same
0,565,valid,"[(1141, 787)]",[],[1],[0.5833333333333334],vertical,"(390.0, 262.0)",0.9333333333333333,0.538,1,4391.809,3,0.0,same
0,566,valid,"[(1160, 799)]",[],[1],[0.5],horizontal,"(890.0, 762.0)",0.6666666666666666,0.461,1,4397.896,3,0.0,same
0,567,valid,"[(1140, 781)]",[],[1],[0.55],horizontal,"(890.0, 262.0)",0.5333333333333333,0.507,1,4403.093,3,0.0,same
0,568,valid,"[(1165, 770)]",[],[1],[0.4666666666666667],vertical,"(890.0, 262.0)",1.5333333333333332,0.434,1,4408.54,3,0.0,same
0,569,valid,"[(1167, 778)]",[],[1],[0.85],vertical,"(890.0, 762.0)",0.95,nan,0,4415.199,0,0.0,same
0,570,invalid_adjacent_other_bar,"[(1137, 773)]",[],[1],[0.5166666666666666],vertical,"(890.0, 762.0)",1.45,0.474,1,4420.258,1,0.0,other
0,571,invalid_adjacent_other_bar,"[(1135, 800)]",[],[1],[0.6666666666666666],vertical,"(390.0, 262.0)",1.4833333333333334,0.623,1,4425.842,1,0.0,other
0,572,catch,"[(1160, 805)]",[],[1],[],horizontal,"(390.0, 262.0)",1.7,nan,1,4431.259,1,0.0,same
0,573,catch,"[(1135, 796)]",[],[1],[],horizontal,"(890.0, 762.0)",1.7,nan,1,4436.126,2,0.0,same
0,574,catch,"[(1090, 815)]",[],[1],[],horizontal,"(890.0, 762.0)",1.7,nan,1,4441.359,2,0.0,same
0,575,valid,"[(1137, 796)]",[],[1],[0.48333333333333334],horizontal,"(390.0, 262.0)",1.0833333333333333,0.444,1,4446.767,2,0.0,same
0,576,catch,"[(1162, 795)]",[],[1],[],vertical,"(890.0, 762.0)",,"('cti', 1.384),nan",0,4452.376,0,0.02,same
0,577,valid,"[(1091, 817)]",[],[1],[0.7166666666666667],horizontal,"(890.0, 762.0)",1.05,0.672,1,4457.109,1,0.02,same
0,578,valid,"[(1125, 790)]",[],[1],[0.6666666666666666],vertical,"(390.0, 762.0)",1.1666666666666667,0.624,1,6316.354,1,0.02,same
0,579,valid,"[(1140, 801)]",[],[1],[0.6166666666666667],vertical,"(390.0, 262.0)",0.75,0.572,1,6321.688,1,0.02,same
0,580,valid,"[(1161, 812)]",[],[1],[0.7333333333333333],horizontal,"(390.0, 262.0)",1.1,0.684,1,6326.729,2,0.02,same
0,581,valid,"[(1165, 809)]",[],[1],[0.85],horizontal,"(390.0, 262.0)",1.45,nan,0,6332.466,0,0.02,same
0,582,valid,"[(1111, 799)]",[],[1],[0.5333333333333333],horizontal,"(390.0, 262.0)",0.6833333333333333,0.497,1,6337.874,1,0.02,same
0,583,valid,"[(1149, 781)]",[],[1],[0.5333333333333333],vertical,"(890.0, 762.0)",0.6666666666666666,0.492,1,6342.659,1,0.02,same
0,584,invalid_same_bar,"[(1170, 807)]",[],[1],[0.5666666666666667],horizontal,"(390.0, 762.0)",0.7166666666666667,0.531,1,6347.354,1,0.02,same
0,585,valid,"[(1172, 789)]",[],[1],[0.85],vertical,"(890.0, 262.0)",0.6,nan,0,6352.216,0,0.02,same
0,586,invalid_same_bar,"[(1091, 751), (1086, 821)]",[],"[0, 1]",[0.6333333333333333],vertical,"(890.0, 762.0)",1.4833333333333334,0.59,1,6357.049,1,0.02,same
0,587,catch,"[(1167, 791)]",[],[1],[],horizontal,"(390.0, 762.0)",1.7,nan,1,6365.424,1,0.02,same
0,588,valid,"[(1167, 748), (1095, 809)]",[],"[0, 1]",[0.6666666666666666],vertical,"(390.0, 762.0)",1.1,0.631,1,6370.466,1,0.02,same
0,589,valid,"[(1175, 791)]",[],[1],[0.85],horizontal,"(390.0, 262.0)",1.0833333333333333,nan,0,6376.9,0,0.02,same
0,590,valid,"[(1156, 792)]",[],[1],[0.5],vertical,"(890.0, 262.0)",1.4,0.462,1,6381.891,1,0.02,same
0,591,valid,"[(1169, 791)]",[],[1],[0.5833333333333334],vertical,"(390.0, 762.0)",0.8166666666666667,0.541,1,6387.484,1,0.02,same
0,592,valid,"[(1169, 790)]",[],[1],[0.6333333333333333],horizontal,"(390.0, 762.0)",0.9666666666666667,0.594,1,6392.549,1,0.02,same
0,593,catch,"[(1147, 791)]",[],[1],[],vertical,"(890.0, 262.0)",1.7,nan,1,6397.55,2,0.02,same
0,594,catch,"[(1169, 766)]",[],[1],[],vertical,"(390.0, 762.0)",1.7,nan,1,6403.301,2,0.02,same
0,595,valid,"[(1136, 795)]",[],[1],[0.6333333333333333],vertical,"(890.0, 262.0)",1.2166666666666666,0.589,1,6409.049,2,0.02,same
0,596,valid,"[(1144, 776)]",[],[1],[0.5666666666666667],horizontal,"(890.0, 262.0)",0.36666666666666664,0.529,1,6414.632,2,0.02,same
0,597,valid,"[(1140, 809)]",[],[1],[0.5166666666666666],vertical,"(890.0, 762.0)",1.15,0.47,1,6419.683,3,0.02,same
0,598,invalid_adjacent_other_bar,"[(1157, 770)]",[],[1],[0.5166666666666666],horizontal,"(890.0, 262.0)",0.5333333333333333,0.474,1,6425.914,3,0.02,other
0,599,valid,"[(1155, 791)]",[],[1],[0.5333333333333333],vertical,"(890.0, 762.0)",1.5166666666666666,0.49,1,6431.254,3,0.02,same
0,600,valid,"[(1166, 802)]",[],[1],[0.5333333333333333],horizontal,"(890.0, 762.0)",0.7166666666666667,0.49,1,6437.907,3,0.02,same
0,601,valid,"[(1145, 806)]",[],[1],[0.5666666666666667],vertical,"(390.0, 762.0)",0.6666666666666666,0.524,1,6443.291,3,0.02,same
0,602,catch,"[(1165, 808)]",[],[1],[],horizontal,"(390.0, 262.0)",1.7,nan,1,6448.632,3,0.02,same
0,603,invalid_same_bar,"[(1165, 800)]",[],[1],[0.6666666666666666],horizontal,"(390.0, 762.0)",0.35,0.617,1,6454.541,3,0.02,same
0,604,invalid_adjacent_other_bar,"[(1170, 776)]",[],[1],[0.6166666666666667],horizontal,"(390.0, 262.0)",0.4,0.572,1,6460.131,3,0.02,other
0,605,catch,"[(1165, 801)]",[],[1],[],vertical,"(390.0, 262.0)",1.7,nan,1,6465.604,3,0.02,same
0,606,valid,"[(1145, 777)]",[],[1],[0.55],horizontal,"(890.0, 262.0)",0.8,0.506,1,6471.85,3,0.02,same
0,607,catch,"[(1170, 786)]",[],[1],[],vertical,"(390.0, 262.0)",1.7,nan,1,6477.101,3,0.02,same
0,608,valid,"[(1168, 797)]",[],[1],[0.85],vertical,"(890.0, 762.0)",1.2333333333333334,nan,0,6482.983,0,0.02,same
0,609,valid,"[(1140, 798)]",[],[1],[0.55],horizontal,"(390.0, 262.0)",1.1166666666666667,0.508,1,6488.283,1,0.02,same
0,610,valid,"[(1166, 786)]",[],[1],[0.5],vertical,"(390.0, 762.0)",0.8666666666666667,0.461,1,6493.398,1,0.02,same
0,611,invalid_same_bar,"[(1140, 785)]",[],[1],[0.13333333333333333],horizontal,"(890.0, 762.0)",1.5333333333333332,0.102,0,6498.249,0,0.02,same
0,612,valid,"[(1169, 806)]",[],[1],[0.5],vertical,"(890.0, 262.0)",1.4666666666666666,0.465,1,6503.118,1,0.02,same
0,613,catch,"[(1180, 796)]",[],[1],[],vertical,"(390.0, 262.0)",1.7,nan,1,6508.349,1,0.02,same
0,614,valid,"[(1168, 784)]",[],[1],[0.75],horizontal,"(390.0, 762.0)",1.0833333333333333,0.706,1,6513.533,1,0.02,same
0,615,valid,"[(1143, 795)]",[],[1],[0.5],vertical,"(390.0, 262.0)",1.35,0.459,1,6519.168,2,0.02,same
0,616,valid,"[(1164, 795)]",[],[1],[0.85],vertical,"(390.0, 262.0)",1.2333333333333334,nan,0,6525.118,0,0.02,same
0,617,invalid_adjacent_other_bar,"[(1150, 781)]",[],[1],[0.85],horizontal,"(890.0, 762.0)",0.5,nan,0,6530.236,0,0.02,other
0,618,invalid_same_bar,"[(1144, 778)]",[],[1],[0.65],vertical,"(890.0, 762.0)",1.05,0.609,1,6534.779,1,0.02,same
0,619,catch,"[(1144, 780)]",[],[1],[],vertical,"(390.0, 262.0)",1.7,nan,1,6540.011,1,0.02,same
0,620,valid,"[(1168, 781)]",[],[1],[0.5333333333333333],horizontal,"(390.0, 762.0)",0.43333333333333335,0.491,1,6545.284,1,0.02,same
0,621,valid,"[(1145, 773)]",[],[1],[0.65],horizontal,"(890.0, 762.0)",0.9,0.608,1,6549.438,2,0.02,same
0,622,invalid_same_bar,"[(1147, 774)]",[],[1],[0.7166666666666667],horizontal,"(390.0, 762.0)",1.1666666666666667,0.666,1,6554.388,2,0.02,same
0,623,valid,"[(1141, 799)]",[],[1],[0.6333333333333333],horizontal,"(390.0, 262.0)",1.4,0.588,1,6560.383,2,0.02,same
0,624,invalid_same_bar,"[(1145, 768)]",[],[1],[0.5],vertical,"(890.0, 762.0)",1.15,0.462,1,6566.036,2,0.02,same
0,625,valid,"[(1150, 795)]",[],[1],[0.5333333333333333],horizontal,"(890.0, 262.0)",0.8333333333333334,0.49,1,6571.133,3,0.02,same
0,626,valid,"[(1168, 787)]",[],[1],[0.6],horizontal,"(390.0, 762.0)",1.25,0.556,1,6577.066,3,0.0,same
0,627,valid,"[(1138, 776)]",[],[1],[0.7666666666666666],vertical,"(390.0, 262.0)",1.0,0.715,1,6583.25,3,0.0,same
0,628,valid,"[(1145, 788)]",[],[1],[0.6166666666666667],horizontal,"(390.0, 762.0)",0.5833333333333334,0.572,1,6589.1,3,0.0,same
0,629,valid,"[(1165, 791)]",[],[1],[0.5666666666666667],vertical,"(890.0, 762.0)",1.45,0.523,1,6594.316,3,0.0,same
0,630,catch,"[(1140, 776)]",[],[1],[],vertical,"(890.0, 262.0)",1.7,nan,1,6600.933,3,0.0,same
0,631,valid,"[(1156, 781)]",[],[1],[0.85],horizontal,"(890.0, 762.0)",0.5166666666666666,nan,0,6606.951,0,0.0,same
0,632,invalid_adjacent_other_bar,"[(1126, 776)]",[],[1],[0.55],horizontal,"(390.0, 762.0)",0.43333333333333335,0.512,1,6610.918,1,0.0,other
0,633,valid,"[(1155, 791)]",[],[1],[0.5166666666666666],vertical,"(390.0, 762.0)",0.6333333333333333,0.473,1,6615.443,1,0.0,same
0,634,valid,"[(1175, 785)]",[],[1],[0.85],horizontal,"(890.0, 762.0)",0.4,nan,0,6619.846,0,0.0,same
0,635,invalid_same_bar,"[(1145, 776)]",[],[1],[0.7166666666666667],vertical,"(390.0, 262.0)",0.9666666666666667,0.671,1,6624.233,1,0.0,same
0,636,valid,"[(1165, 782)]",[],[1],[0.65],horizontal,"(890.0, 262.0)",0.8833333333333333,0.611,1,6629.423,1,0.0,same
0,637,catch,"[(1141, 780)]",[],[1],[],vertical,"(390.0, 762.0)",1.7,nan,1,6634.035,1,0.0,same
0,638,catch,"[(1160, 788)]",[],[1],[],horizontal,"(390.0, 262.0)",1.7,nan,1,6639.064,2,0.0,same
0,639,valid,"[(1140, 771)]",[],[1],[0.5833333333333334],horizontal,"(890.0, 762.0)",0.8666666666666667,0.542,1,6644.249,2,0.0,same
0,640,valid,"[(1170, 779)]",[],[1],[0.5666666666666667],horizontal,"(390.0, 262.0)",0.36666666666666664,0.534,1,6649.167,2,0.0,same
0,641,valid,"[(1142, 800)]",[],[1],[0.85],vertical,"(390.0, 262.0)",1.1833333333333333,nan,0,6653.767,0,0.0,same
0,642,valid,"[(1143, 775)]",[],[1],[0.85],horizontal,"(390.0, 262.0)",1.4,nan,0,6658.994,0,0.0,same
0,643,valid,"[(1145, 787)]",[],[1],[0.85],horizontal,"(390.0, 762.0)",1.05,nan,0,6663.879,0,0.0,same
0,644,valid,"[(1121, 773)]",[],[1],[0.5333333333333333],horizontal,"(390.0, 762.0)",1.2666666666666666,0.491,1,6668.967,1,0.0,same
0,645,valid,"[(1133, 781)]",[],[1],[0.6333333333333333],vertical,"(890.0, 262.0)",0.95,0.589,1,6674.394,1,0.0,same
0,646,invalid_same_bar,"[(1131, 803)]",[],[1],[0.7333333333333333],vertical,"(890.0, 762.0)",1.4166666666666667,0.689,1,6679.676,1,0.0,same
0,647,valid,"[(1143, 760)]",[],[1],[0.7666666666666666],horizontal,"(890.0, 762.0)",1.05,0.713,1,6684.799,2,0.0,same
0,648,catch,"[(1135, 774)]",[],[1],[],horizontal,"(390.0, 762.0)",1.7,nan,1,6690.9,2,0.0,same
0,649,invalid_same_bar,"[(1138, 800)]",[],[1],[0.5333333333333333],vertical,"(390.0, 262.0)",0.85,0.507,1,6696.491,2,0.0,same
0,650,catch,"[(1172, 779)]",[],[1],[],vertical,"(390.0, 262.0)",1.7,nan,1,6701.678,2,0.0,same
0,651,valid,"[(1135, 783)]",[],[1],[0.5666666666666667],vertical,"(890.0, 762.0)",0.8666666666666667,0.523,1,6707.722,3,0.0,same
0,652,catch,"[(1185, 782)]",[],[1],[],horizontal,"(390.0, 262.0)",1.7,nan,1,6713.31,3,0.0,same
0,653,valid,"[(1160, 772)]",[],[1],[0.6],horizontal,"(390.0, 262.0)",0.6666666666666666,0.556,1,6719.36,3,0.0,same
0,654,catch,"[(1145, 786)]",[],[1],[],horizontal,"(390.0, 762.0)",1.7,nan,1,6724.634,3,0.0,same
0,655,invalid_same_bar,"[(1170, 777)]",[],[1],[0.5333333333333333],vertical,"(890.0, 262.0)",1.2833333333333332,0.493,1,6730.605,3,0.0,same
0,656,valid,"[(1135, 769)]",[],[1],[0.5333333333333333],vertical,"(890.0, 262.0)",1.4333333333333333,0.493,1,6736.717,3,0.0,same
0,657,valid,"[(1163, 792)]",[],[1],[0.5166666666666666],horizontal,"(390.0, 262.0)",0.55,0.472,1,6743.06,3,0.0,same
0,658,catch,"[(1165, 801)]",[],[1],[],vertical,"(890.0, 762.0)",1.7,nan,1,6748.517,3,0.0,same
0,659,valid,"[(1148, 776)]",[],[1],[0.7],vertical,"(390.0, 262.0)",1.3166666666666667,0.656,1,6754.971,3,0.0,same
0,660,valid,"[(1165, 779)]",[],[1],[0.5333333333333333],vertical,"(890.0, 262.0)",0.6,0.497,1,6761.13,3,0.0,same
0,661,valid,"[(1150, 766)]",[],[1],[0.5666666666666667],horizontal,"(390.0, 262.0)",0.9166666666666666,0.524,1,6766.606,3,0.0,same
0,662,valid,"[(1166, 786)]",[],[1],[0.5833333333333334],horizontal,"(890.0, 262.0)",1.2333333333333334,0.536,1,6772.378,3,0.0,same
0,663,valid,"[(1163, 767)]",[],[1],[],vertical,"(890.0, 762.0)",,"('fix', 0.26)",0,6778.601,0,0.0,same
0,664,invalid_adjacent_other_bar,"[(1122, 815)]",[],[1],[0.65],vertical,"(390.0, 762.0)",0.9666666666666667,0.605,1,6780.203,1,0.0,other
0,665,invalid_adjacent_other_bar,"[(1147, 786)]",[],[1],[0.85],vertical,"(890.0, 762.0)",0.7,nan,0,6785.275,0,0.0,other
0,666,valid,"[(1101, 770)]",[],[1],[0.85],horizontal,"(390.0, 762.0)",1.4833333333333334,nan,0,6790.133,0,0.0,same
0,667,catch,"[(1148, 782)]",[],[1],[],vertical,"(390.0, 762.0)",1.7,nan,1,6795.234,1,0.0,same
0,668,invalid_adjacent_other_bar,"[(1135, 791)]",[],[1],[0.6166666666666667],horizontal,"(890.0, 262.0)",1.4833333333333334,0.576,1,6800.257,1,0.0,other
0,669,catch,"[(1170, 780)]",[],[1],[],horizontal,"(390.0, 762.0)",1.7,nan,1,6805.591,1,0.0,same
0,670,valid,"[(1147, 777)]",[],[1],[0.5333333333333333],vertical,"(890.0, 262.0)",1.1166666666666667,0.493,1,6810.726,2,0.0,same
0,671,catch,"[(1175, 795)]",[],[1],[],vertical,"(390.0, 262.0)",1.7,nan,1,6816.071,2,0.0,same
0,672,valid,"[(1171, 783)]",[],[1],[0.6666666666666666],vertical,"(390.0, 262.0)",1.4833333333333334,0.619,1,6821.709,2,0.0,same
0,673,catch,"[(1151, 801)]",[],[1],[],horizontal,"(890.0, 762.0)",1.7,nan,1,6827.328,2,0.0,same
0,674,catch,"[(1170, 789)]",[],[1],[],horizontal,"(390.0, 262.0)",1.7,nan,1,6832.537,3,0.0,same
0,675,catch,"[(1165, 774)]",[],[1],[],vertical,"(890.0, 262.0)",1.7,nan,1,6838.451,3,0.0,same
0,676,catch,"[(1135, 765)]",[],[1],[],horizontal,"(390.0, 262.0)",1.7,nan,1,6843.944,3,0.0,same
0,677,valid,"[(1145, 776)]",[],[1],[0.6166666666666667],horizontal,"(390.0, 762.0)",0.5166666666666666,0.573,1,6850.246,3,0.0,same
0,678,valid,"[(1159, 790)]",[],[1],[0.65],vertical,"(890.0, 262.0)",1.1833333333333333,0.608,1,6855.868,3,0.0,same
0,679,valid,"[(1175, 791)]",[],[1],[0.5666666666666667],horizontal,"(890.0, 262.0)",1.3166666666666667,0.523,1,6862.265,3,0.0,same
0,680,catch,"[(1175, 774)]",[],[1],[],vertical,"(890.0, 762.0)",1.7,nan,1,6868.607,3,0.0,same
0,681,valid,"[(1140, 791)]",[],[1],[0.6],horizontal,"(390.0, 762.0)",0.95,0.566,1,6874.302,3,0.0,same
0,682,valid,"[(1170, 784)]",[],[1],[0.55],vertical,"(890.0, 762.0)",1.5333333333333332,0.512,1,6880.423,3,0.0,same
0,683,valid,"[(1168, 777)]",[],[1],[0.7166666666666667],vertical,"(890.0, 262.0)",1.2,0.666,1,6886.684,3,0.0,same
0,684,valid,"[(1161, 766)]",[],[1],[0.6166666666666667],vertical,"(890.0, 762.0)",0.8333333333333334,0.58,1,6893.218,3,0.0,same
0,685,valid,"[(1136, 770)]",[],[1],[0.85],horizontal,"(890.0, 762.0)",0.6166666666666667,nan,0,6898.749,0,0.0,same
0,686,invalid_adjacent_other_bar,"[(1149, 795)]",[],[1],[0.6666666666666666],vertical,"(890.0, 762.0)",0.6,0.628,1,6902.841,1,0.0,other
0,687,catch,"[(1168, 796)]",[],[1],[],vertical,"(390.0, 262.0)",1.7,nan,1,6907.468,1,0.0,same
0,688,valid,"[(1166, 783)]",[],[1],[0.5833333333333334],vertical,"(390.0, 262.0)",0.5833333333333334,0.541,1,6912.998,1,0.0,same
0,689,valid,"[(1150, 782)]",[],[1],[0.6333333333333333],vertical,"(390.0, 762.0)",1.2,0.589,1,6917.986,2,0.0,same
0,690,valid,"[(1178, 779)]",[],[1],[0.5166666666666666],vertical,"(890.0, 262.0)",0.9333333333333333,0.474,1,6923.604,2,0.0,same
0,691,invalid_adjacent_other_bar,"[(1183, 786)]",[],[1],[0.7333333333333333],horizontal,"(390.0, 762.0)",1.25,0.691,1,6928.624,2,0.0,other
0,692,valid,"[(1139, 829)]",[],[1],[0.85],vertical,"(390.0, 762.0)",0.6,nan,0,6935.041,0,0.0,same
0,693,valid,"[(1121, 781)]",[],[1],[0.65],horizontal,"(390.0, 762.0)",1.0,0.601,1,6940.099,1,0.0,same
0,694,catch,"[(1142, 783)]",[],[1],[],horizontal,"(890.0, 262.0)",1.7,nan,1,6945.119,1,0.0,same
0,695,valid,"[(1145, 760)]",[],[1],[0.7333333333333333],vertical,"(890.0, 762.0)",1.3666666666666667,0.684,1,6950.068,1,0.0,same
0,696,valid,"[(1140, 791)]",[],[1],[0.7666666666666666],vertical,"(890.0, 762.0)",0.6333333333333333,0.718,1,6955.552,2,0.0,same
0,697,valid,"[(1150, 786)]",[],[1],[0.85],vertical,"(390.0, 262.0)",1.3333333333333333,nan,0,6961.002,0,0.0,same
0,698,valid,"[(1125, 773)]",[],[1],[0.55],vertical,"(390.0, 262.0)",0.48333333333333334,0.507,1,6966.202,1,0.0,same
0,699,catch,"[(1161, 803)]",[],[1],[],horizontal,"(390.0, 762.0)",,"('fix', 0.217),nan",0,6970.951,0,0.02,same
0,700,valid,"[(1120, 816)]",[],[1],[0.5833333333333334],vertical,"(890.0, 262.0)",0.6833333333333333,0.544,1,6972.535,1,0.02,same
0,701,valid,"[(1150, 776)]",[],[1],[0.55],horizontal,"(890.0, 762.0)",1.2,0.502,1,6977.735,1,0.02,same
0,702,catch,"[(1165, 779)]",[],[1],[],vertical,"(390.0, 262.0)",1.7,nan,1,6983.319,1,0.02,same
0,703,valid,"[(1123, 762)]",[],[1],[0.5166666666666666],horizontal,"(890.0, 262.0)",1.0833333333333333,0.482,1,6988.636,2,0.02,same
0,704,valid,"[(1141, 787)]",[],[1],[0.5166666666666666],vertical,"(390.0, 762.0)",0.6166666666666667,0.476,1,6994.464,2,0.02,same
0,705,catch,"[(1160, 801)]",[],[1],[],vertical,"(390.0, 762.0)",1.7,nan,1,6999.434,2,0.02,same
0,706,catch,"[(1148, 782)]",[],[1],[],horizontal,"(390.0, 262.0)",1.7,nan,1,7004.786,2,0.02,same
0,707,valid,"[(1167, 804)]",[],[1],[0.85],horizontal,"(390.0, 762.0)",1.3833333333333333,nan,0,7010.644,0,0.02,same
0,708,invalid_adjacent_other_bar,"[(1148, 787)]",[],[1],[0.55],horizontal,"(390.0, 262.0)",0.7833333333333333,0.509,1,7016.001,1,0.02,other
0,709,valid,"[(1164, 803)]",[],[1],[0.55],vertical,"(390.0, 262.0)",0.8833333333333333,0.506,1,7020.778,1,0.02,same
0,710,catch,"[(1122, 787)]",[],[1],[],horizontal,"(890.0, 762.0)",1.7,nan,1,7025.618,1,0.02,same
0,711,valid,"[(1133, 757)]",[],[1],[0.5333333333333333],vertical,"(890.0, 262.0)",0.6166666666666667,0.491,1,7030.885,2,0.02,same
0,712,invalid_same_bar,"[(1114, 806)]",[],[1],[0.55],horizontal,"(390.0, 762.0)",0.7666666666666666,0.512,1,7036.218,2,0.02,same
0,713,catch,"[(1161, 802)]",[],[1],[],horizontal,"(390.0, 262.0)",1.7,nan,1,7041.534,2,0.02,same
0,714,catch,"[(1153, 816)]",[],[1],[],vertical,"(390.0, 762.0)",1.7,nan,1,7046.768,2,0.02,same
0,715,valid,"[(1164, 786)]",[],[1],[0.5166666666666666],horizontal,"(890.0, 262.0)",1.4333333333333333,0.474,1,7052.836,3,0.02,same
0,716,catch,"[(1148, 805)]",[],[1],[],vertical,"(890.0, 262.0)",1.7,nan,1,7059.467,3,0.02,same
0,717,valid,"[(1162, 795)]",[],[1],[0.5333333333333333],vertical,"(890.0, 262.0)",0.9333333333333333,0.491,1,7065.479,3,0.02,same
0,718,valid,"[(1165, 795)]",[],[1],[0.5166666666666666],horizontal,"(890.0, 262.0)",0.8833333333333333,0.475,1,7070.815,3,0.02,same
0,719,valid,"[(1135, 801)]",[],[1],[0.5833333333333334],horizontal,"(890.0, 762.0)",1.0833333333333333,0.541,1,7076.538,3,0.02,same
0,720,valid,"[(1162, 793)]",[],[1],[0.7],vertical,"(890.0, 762.0)",1.4833333333333334,0.646,1,7082.435,3,0.02,same
0,721,valid,"[(1175, 791)]",[],[1],[0.5166666666666666],horizontal,"(390.0, 262.0)",1.0666666666666667,0.475,1,7088.706,3,0.02,same
0,722,invalid_adjacent_other_bar,"[(1158, 778)]",[],[1],[0.5333333333333333],horizontal,"(890.0, 262.0)",1.0666666666666667,0.491,1,7094.668,3,0.02,other
0,723,invalid_same_bar,"[(1159, 760)]",[],[1],[0.5166666666666666],horizontal,"(390.0, 762.0)",0.6166666666666667,0.472,1,7100.548,3,0.02,same
0,724,valid,"[(1147, 795)]",[],[1],[0.6666666666666666],vertical,"(890.0, 762.0)",1.0166666666666666,0.623,1,7105.941,3,0.02,same
0,725,valid,"[(1154, 784)]",[],[1],[0.6],vertical,"(890.0, 262.0)",0.9666666666666667,0.551,1,7112.069,3,0.02,same
0,726,valid,"[(1160, 764)]",[],[1],[0.65],vertical,"(390.0, 762.0)",1.05,0.61,1,7118.158,3,0.02,same
0,727,catch,"[(1148, 796)]",[],[1],[],vertical,"(890.0, 762.0)",1.7,nan,1,7124.219,3,0.02,same
0,728,valid,"[(1155, 790)]",[],[1],[0.5666666666666667],horizontal,"(390.0, 262.0)",0.7666666666666666,0.522,1,7130.19,3,0.02,same
0,729,valid,"[(1150, 788)]",[],[1],[0.5],vertical,"(890.0, 262.0)",0.95,0.457,1,7135.581,3,0.02,same
0,730,catch,"[(1152, 776)]",[],[1],[],horizontal,"(890.0, 762.0)",1.7,nan,1,7141.453,3,0.02,same
0,731,invalid_same_bar,"[(1155, 798)]",[],[1],[0.5666666666666667],horizontal,"(890.0, 762.0)",1.45,0.522,1,7147.303,3,0.02,same
0,732,catch,"[(1160, 788)]",[],[1],[],horizontal,"(890.0, 762.0)",1.7,nan,1,7153.555,3,0.02,same
0,733,catch,"[(1150, 796)]",[],[1],[],vertical,"(390.0, 762.0)",1.7,nan,1,7159.354,3,0.02,same
0,734,valid,"[(1157, 785)]",[],[1],[0.6166666666666667],horizontal,"(390.0, 262.0)",1.1833333333333333,0.573,1,7165.571,3,0.02,same
0,735,valid,"[(1145, 791)]",[],[1],[0.55],vertical,"(390.0, 762.0)",0.5166666666666666,0.505,1,7171.422,3,0.02,same
0,736,valid,"[(1148, 801)]",[],[1],[0.6666666666666666],horizontal,"(890.0, 262.0)",1.4666666666666666,0.638,1,7176.535,3,0.02,same
0,737,catch,"[(1148, 796)]",[],[1],[],vertical,"(390.0, 762.0)",1.7,nan,1,7182.802,3,0.02,same
0,738,invalid_same_bar,"[(1122, 780)]",[],[1],[0.85],horizontal,"(390.0, 762.0)",0.7166666666666667,nan,0,7189.102,0,0.02,same
0,739,valid,"[(1143, 781)]",[],[1],[0.85],horizontal,"(890.0, 262.0)",0.6166666666666667,nan,0,7193.614,0,0.02,same
0,740,valid,"[(1116, 785)]",[],[1],[0.55],horizontal,"(890.0, 262.0)",0.3833333333333333,0.513,1,7197.952,1,0.02,same
0,741,catch,"[(1138, 796)]",[],[1],[],vertical,"(890.0, 762.0)",1.7,nan,1,7202.604,1,0.02,same
0,742,valid,"[(1152, 796)]",[],[1],[0.55],horizontal,"(390.0, 762.0)",0.48333333333333334,0.507,1,7207.418,1,0.02,same
0,743,valid,"[(1135, 772)]",[],[1],[0.6833333333333333],vertical,"(890.0, 762.0)",0.95,0.644,1,7211.636,2,0.02,same
0,744,valid,"[(1149, 776)]",[],[1],[0.6666666666666666],vertical,"(390.0, 762.0)",1.3666666666666667,0.62,1,7217.482,2,0.02,same
0,745,valid,"[(1134, 786)]",[],[1],[0.7],vertical,"(890.0, 262.0)",0.9666666666666667,0.65,1,7223.453,2,0.02,same
0,746,valid,"[(1133, 778)]",[],[1],[0.85],horizontal,"(890.0, 762.0)",1.3833333333333333,nan,0,7229.158,0,0.02,same
0,747,valid,"[(1140, 785)]",[],[1],[0.5166666666666666],horizontal,"(890.0, 262.0)",1.5,0.478,1,7234.418,1,0.02,same
0,748,catch,"[(1143, 799)]",[],[1],[],vertical,"(890.0, 262.0)",1.7,nan,1,7239.769,1,0.02,same
0,749,valid,"[(1148, 787)]",[],[1],[0.5166666666666666],horizontal,"(890.0, 262.0)",1.2,0.472,1,7245.094,1,0.0,same
0,750,invalid_same_bar,"[(1140, 790)]",[],[1],[0.85],horizontal,"(390.0, 262.0)",0.43333333333333335,nan,0,7250.486,0,0.0,same
0,751,valid,"[(1123, 795)]",[],[1],[0.85],vertical,"(890.0, 762.0)",1.3666666666666667,nan,0,7255.037,0,0.0,same
0,752,catch,"[(1090, 782)]",[],[1],[],horizontal,"(390.0, 762.0)",1.7,nan,1,7260.536,1,0.0,same
0,753,invalid_same_bar,"[(1115, 801)]",[],[1],[0.6333333333333333],horizontal,"(390.0, 762.0)",1.1833333333333333,0.587,1,7266.22,1,0.0,same
0,754,catch,"[(1153, 795)]",[],[1],[],horizontal,"(890.0, 262.0)",1.7,nan,1,7271.519,1,0.0,same
0,755,valid,"[(1150, 791)]",[],[1],[0.5166666666666666],vertical,"(890.0, 262.0)",0.55,0.474,1,7276.803,2,0.0,same
0,756,valid,"[(1165, 806)]",[],[1],[0.6333333333333333],horizontal,"(890.0, 262.0)",0.4166666666666667,0.585,1,7281.703,2,0.0,same
0,757,valid,"[(1162, 801)]",[],[1],[0.5666666666666667],horizontal,"(390.0, 262.0)",0.75,0.522,1,7286.219,2,0.0,same
0,758,catch,"[(1164, 790)]",[],[1],[],horizontal,"(890.0, 762.0)",1.7,nan,1,7291.562,2,0.0,same
0,759,valid,"[(1164, 785)]",[],[1],[0.65],vertical,"(890.0, 762.0)",0.75,0.606,1,7297.136,3,0.0,same
0,760,valid,"[(1137, 782)]",[],[1],[0.7],vertical,"(390.0, 262.0)",0.8,0.652,1,7303.437,3,0.0,same
0,761,valid,"[(1155, 787)]",[],[1],[0.6],horizontal,"(390.0, 262.0)",0.85,0.554,1,7309.264,3,0.0,same
0,762,valid,"[(1160, 806)]",[],[1],[0.7],vertical,"(890.0, 762.0)",0.8833333333333333,0.651,1,7314.804,3,0.0,same
0,763,valid,"[(1145, 791)]",[],[1],[0.85],vertical,"(390.0, 762.0)",0.5666666666666667,nan,0,7321.055,0,0.0,same
0,764,valid,"[(1096, 791)]",[],[1],[0.6833333333333333],horizontal,"(890.0, 762.0)",0.43333333333333335,0.641,1,7325.136,1,0.0,same
0,765,valid,"[(1162, 785)]",[],[1],[0.85],horizontal,"(390.0, 762.0)",0.55,nan,0,7329.503,0,0.0,same
0,766,valid,"[(1113, 812)]",[],[1],[0.6666666666666666],vertical,"(390.0, 762.0)",1.1666666666666667,0.627,1,7333.653,1,0.0,same
0,767,valid,"[(1118, 787)]",[],[1],[0.6166666666666667],vertical,"(890.0, 762.0)",0.6166666666666667,0.567,1,7377.921,1,0.0,same
0,768,invalid_adjacent_other_bar,"[(1156, 786)]",[],[1],[0.6666666666666666],horizontal,"(390.0, 762.0)",0.55,0.621,1,7382.953,1,0.0,other
0,769,valid,"[(1137, 799)]",[],[1],[0.85],horizontal,"(390.0, 262.0)",0.7833333333333333,nan,0,7388.032,0,0.0,same
0,770,valid,"[(1130, 799)]",[],[1],[0.55],vertical,"(890.0, 262.0)",0.7666666666666666,0.51,1,7392.97,1,0.0,same
0,771,valid,"[(1145, 801)]",[],[1],[0.5333333333333333],vertical,"(890.0, 762.0)",0.5166666666666666,0.492,1,7397.828,1,0.0,same
0,772,valid,"[(1149, 785)]",[],[1],[0.6],vertical,"(390.0, 262.0)",0.5,0.557,1,7402.637,1,0.0,same
0,773,invalid_same_bar,"[(1118, 781)]",[],[1],[0.85],horizontal,"(890.0, 762.0)",0.6666666666666666,nan,0,7407.537,0,0.0,same
0,774,valid,"[(1121, 786)]",[],[1],[0.85],vertical,"(390.0, 262.0)",1.3666666666666667,nan,0,7412.42,0,0.0,same
0,775,valid,"[(1126, 786)]",[],[1],[0.5333333333333333],horizontal,"(890.0, 262.0)",0.5833333333333334,0.496,1,7417.339,1,0.0,same
0,776,valid,"[(1160, 774)]",[],[1],[0.65],vertical,"(890.0, 762.0)",0.9833333333333333,0.608,1,7422.208,1,0.0,same
0,777,catch,"[(1132, 811)]",[],[1],[],horizontal,"(890.0, 762.0)",1.7,nan,1,7427.427,1,0.0,same
0,778,catch,"[(1135, 778)]",[],[1],[],horizontal,"(390.0, 762.0)",1.7,nan,1,7433.003,2,0.0,same
0,779,valid,"[(1120, 788)]",[],[1],[0.6666666666666666],horizontal,"(390.0, 762.0)",1.4166666666666667,0.618,1,7438.92,2,0.0,same
0,780,invalid_adjacent_other_bar,"[(1137, 789)]",[],[1],[0.5833333333333334],vertical,"(890.0, 762.0)",1.3833333333333333,0.539,1,7444.836,2,0.0,other
0,781,valid,"[(1123, 786)]",[],[1],[0.6666666666666666],horizontal,"(390.0, 262.0)",1.2666666666666666,0.62,1,7450.786,2,0.0,same
0,782,valid,"[(1163, 783)]",[],[1],[0.85],vertical,"(890.0, 762.0)",0.6666666666666666,nan,0,7456.904,0,0.0,same
0,783,valid,"[(1123, 768)]",[],[1],[0.65],vertical,"(390.0, 262.0)",1.3,0.606,1,7461.54,1,0.0,same
0,784,valid,"[(1137, 810)]",[],[1],[0.6333333333333333],horizontal,"(890.0, 262.0)",0.8833333333333333,0.59,1,7466.587,1,0.0,same
0,785,valid,"[(1133, 783)]",[],[1],[0.06666666666666667],horizontal,"(390.0, 762.0)",1.45,0.037,0,7471.419,0,0.0,same
0,786,valid,"[(1140, 807)]",[],[1],[0.5],vertical,"(890.0, 762.0)",0.8833333333333333,0.457,1,7475.97,1,0.0,same
0,787,valid,"[(1135, 791)]",[],[1],[0.6833333333333333],vertical,"(390.0, 762.0)",0.5666666666666667,0.636,1,7480.398,1,0.0,same
0,788,valid,"[(1136, 781)]",[],[1],[0.6],horizontal,"(890.0, 762.0)",1.2833333333333332,0.558,1,7485.487,1,0.0,same
0,789,valid,"[(1164, 797)]",[],[1],[0.5833333333333334],vertical,"(890.0, 262.0)",1.4333333333333333,0.538,1,7490.987,2,0.0,same
0,790,catch,"[(1136, 811)]",[],[1],[],vertical,"(390.0, 262.0)",1.7,nan,1,7496.944,2,0.0,same
0,791,valid,"[(1183, 827)]",[],[1],[0.7833333333333333],vertical,"(390.0, 762.0)",1.2833333333333332,0.732,1,7502.554,2,0.0,same
0,792,valid,"[(1143, 811)]",[],[1],[0.7],vertical,"(390.0, 762.0)",1.1166666666666667,0.656,1,7508.374,2,0.0,same
0,793,valid,"[(1140, 805)]",[],[1],[0.5333333333333333],horizontal,"(390.0, 762.0)",1.4666666666666666,0.496,1,7514.603,3,0.0,same
0,794,valid,"[(1147, 804)]",[],[1],[0.5166666666666666],horizontal,"(390.0, 262.0)",0.4,0.479,1,7520.727,3,0.0,same
0,795,valid,"[(1143, 807)]",[],[1],[0.6833333333333333],horizontal,"(890.0, 762.0)",1.1333333333333333,0.639,1,7525.752,3,0.0,same
0,796,valid,"[(1145, 784)]",[],[1],[0.7333333333333333],vertical,"(890.0, 262.0)",1.3,0.687,1,7532.22,3,0.0,same
0,797,catch,"[(1166, 776)]",[],[1],[],horizontal,"(390.0, 762.0)",1.7,nan,1,7538.373,3,0.0,same
0,798,valid,"[(1174, 797)]",[],[1],[0.6833333333333333],vertical,"(890.0, 262.0)",1.5166666666666666,0.634,1,7544.233,3,0.0,same
0,799,valid,"[(1125, 791)]",[],[1],[0.6666666666666666],horizontal,"(390.0, 262.0)",0.4166666666666667,0.622,1,7550.77,3,0.0,same
0,800,valid,"[(1162, 778)]",[],[1],[0.85],vertical,"(390.0, 762.0)",1.2833333333333332,nan,0,7556.264,0,0.0,same
0,801,valid,"[(1131, 813)]",[],[1],[0.6666666666666666],horizontal,"(390.0, 762.0)",0.4166666666666667,0.624,1,7561.135,1,0.0,same
0,802,valid,"[(1170, 796)]",[],[1],[0.5333333333333333],vertical,"(390.0, 762.0)",0.9333333333333333,0.491,1,7566.098,1,0.0,same
0,803,valid,"[(1150, 800)]",[],[1],[0.5333333333333333],horizontal,"(890.0, 262.0)",1.2166666666666666,0.491,1,7571.103,1,0.0,same
0,804,catch,"[(1147, 782)]",[],[1],[],vertical,"(390.0, 262.0)",1.7,nan,1,7576.053,2,0.0,same
0,805,valid,"[(1129, 804)]",[],[1],[0.5666666666666667],horizontal,"(890.0, 762.0)",0.4666666666666667,0.517,1,7581.42,2,0.0,same
0,806,valid,"[(1136, 777)]",[],[1],[0.6833333333333333],vertical,"(890.0, 262.0)",1.1,0.641,1,7586.287,2,0.0,same
0,807,invalid_same_bar,"[(1133, 784)]",[],[1],[0.6166666666666667],vertical,"(890.0, 762.0)",0.5333333333333333,0.57,1,7591.838,2,0.0,same
0,808,valid,"[(1142, 816)]",[],[1],[0.5666666666666667],horizontal,"(890.0, 762.0)",0.5333333333333333,0.535,1,7597.037,3,0.0,same
0,809,valid,"[(1164, 783)]",[],[1],[0.85],horizontal,"(390.0, 262.0)",0.7666666666666666,nan,0,7602.546,0,0.0,same
0,810,invalid_adjacent_other_bar,"[(1125, 788)]",[],[1],[0.6333333333333333],horizontal,"(390.0, 262.0)",1.5333333333333332,0.59,1,7606.855,1,0.0,other
0,811,catch,"[(1136, 775)]",[],[1],[],vertical,"(890.0, 762.0)",1.7,nan,1,7612.596,1,0.0,same
0,812,valid,"[(1118, 790)]",[],[1],[0.7166666666666667],horizontal,"(390.0, 262.0)",1.25,0.67,1,7617.654,1,0.0,same
0,813,catch,"[(1131, 806)]",[],[1],[],vertical,"(890.0, 262.0)",1.7,nan,1,7623.474,2,0.0,same
0,814,catch,"[(1137, 800)]",[],[1],[],horizontal,"(890.0, 762.0)",1.7,nan,1,7629.112,2,0.0,same
0,815,valid,"[(1118, 809)]",[],[1],[0.6166666666666667],vertical,"(890.0, 762.0)",0.8333333333333334,0.572,1,7635.128,2,0.0,same
0,816,valid,"[(1143, 791)]",[],[1],[0.85],vertical,"(890.0, 762.0)",1.3,nan,0,7640.364,0,0.0,same
0,817,valid,"[(1096, 783)]",[],[1],[0.6],horizontal,"(890.0, 762.0)",1.2833333333333332,0.554,1,7645.204,1,0.0,same
0,818,invalid_same_bar,"[(1174, 799)]",[],[1],[0.55],vertical,"(890.0, 762.0)",1.0,0.504,1,7650.744,1,0.0,same
0,819,valid,"[(1149, 811)]",[],[1],[0.85],horizontal,"(390.0, 262.0)",1.05,nan,0,7655.914,0,0.0,same
0,820,valid,"[(1165, 786)]",[],[1],[0.7333333333333333],vertical,"(390.0, 262.0)",1.0166666666666666,0.685,1,7660.705,1,0.0,same
0,821,valid,"[(1122, 787)]",[],[1],[0.5333333333333333],horizontal,"(890.0, 262.0)",1.4833333333333334,0.489,1,7666.197,1,0.0,same
0,822,valid,"[(1143, 806)]",[],[1],[0.55],vertical,"(390.0, 762.0)",1.1666666666666667,0.509,1,7671.901,1,0.0,same
0,823,valid,"[(1134, 798)]",[],[1],[0.5166666666666666],vertical,"(890.0, 262.0)",0.55,0.476,1,7677.377,2,0.0,same
0,824,valid,"[(1130, 822)]",[],[1],[0.85],horizontal,"(890.0, 262.0)",1.0,nan,0,7682.313,0,0.0,same
0,825,valid,"[(1121, 798)]",[],[1],[0.7],vertical,"(390.0, 262.0)",0.7166666666666667,0.667,1,7687.195,1,0.0,same
0,826,valid,"[(1134, 801)]",[],[1],[0.65],vertical,"(890.0, 762.0)",1.05,0.606,1,7691.998,1,0.0,same
0,827,valid,"[(1134, 806)]",[],[1],[0.5833333333333334],horizontal,"(890.0, 762.0)",1.4166666666666667,0.541,1,7697.105,1,0.0,same
0,828,valid,"[(1134, 789)]",[],[1],[0.85],horizontal,"(390.0, 262.0)",0.5,nan,0,7702.921,0,0.0,same
0,829,valid,"[(1115, 772)]",[],[1],[],vertical,"(890.0, 262.0)",,"('cti', 0.621)",0,7707.105,0,0.0,same
0,830,invalid_same_bar,"[(1118, 784)]",[],[1],[0.7],vertical,"(390.0, 262.0)",0.95,0.653,1,7710.422,1,0.0,same
0,831,catch,"[(1144, 790)]",[],[1],[],vertical,"(890.0, 762.0)",1.7,nan,1,7724.155,1,0.0,same
0,832,catch,"[(1135, 785)]",[],[1],[],horizontal,"(390.0, 262.0)",1.7,nan,1,7729.121,1,0.0,same
0,833,catch,"[(1134, 811)]",[],[1],[],vertical,"(890.0, 762.0)",1.7,nan,1,7734.744,2,0.0,same
0,834,valid,"[(1125, 801)]",[],[1],[0.5833333333333334],horizontal,"(890.0, 762.0)",0.9166666666666666,0.542,1,7740.221,2,0.0,same
0,835,valid,"[(1140, 796)]",[],[1],[0.55],vertical,"(890.0, 262.0)",0.85,0.506,1,7745.847,2,0.0,same
0,836,catch,"[(1144, 766)]",[],[1],[],horizontal,"(390.0, 262.0)",1.7,nan,1,7751.654,2,0.0,same
0,837,valid,"[(1120, 807)]",[],[1],[0.6166666666666667],horizontal,"(890.0, 762.0)",1.3833333333333333,0.568,1,7757.156,3,0.0,same
0,838,valid,"[(1135, 781)]",[],[1],[0.75],vertical,"(890.0, 262.0)",1.25,0.704,1,7763.616,3,0.0,same
0,839,valid,"[(1117, 778)]",[],[1],[0.6],vertical,"(890.0, 762.0)",0.35,0.557,1,7769.855,3,0.0,same
0,840,catch,"[(1148, 779)]",[],[1],[],vertical,"(390.0, 262.0)",1.7,nan,1,7774.8,3,0.0,same
0,841,catch,"[(1130, 795)]",[],[1],[],horizontal,"(390.0, 262.0)",1.7,nan,1,7781.021,3,0.0,same
0,842,valid,"[(1153, 796)]",[],[1],[0.7666666666666666],vertical,"(890.0, 262.0)",1.2,0.717,1,7787.538,3,0.0,same
0,843,valid,"[(1173, 788)]",[],[1],[0.5166666666666666],horizontal,"(390.0, 762.0)",1.2833333333333332,0.474,1,7794.022,3,0.0,same
0,844,valid,"[(1133, 789)]",[],[1],[0.85],horizontal,"(390.0, 262.0)",1.35,nan,0,7800.099,0,0.0,same
0,845,valid,"[(1132, 794)]",[],[1],[0.5333333333333333],horizontal,"(890.0, 262.0)",1.05,0.49,1,7805.788,1,0.0,same
0,846,valid,"[(1135, 790)]",[],[1],[0.55],horizontal,"(390.0, 262.0)",0.6833333333333333,0.51,1,7810.952,1,0.0,same
0,847,valid,"[(1156, 777)]",[],[1],[0.85],vertical,"(390.0, 762.0)",0.48333333333333334,nan,0,7815.771,0,0.0,same
0,848,valid,"[(1095, 786)]",[],[1],[0.55],vertical,"(390.0, 762.0)",0.6666666666666666,0.507,1,7820.089,1,0.0,same
0,849,valid,"[(1155, 781)]",[],[1],[0.55],horizontal,"(890.0, 762.0)",0.6333333333333333,0.512,1,7824.914,1,0.0,same
0,850,invalid_same_bar,"[(1140, 796)]",[],[1],[0.6166666666666667],vertical,"(890.0, 262.0)",1.2333333333333334,0.574,1,7829.535,1,0.0,same
0,851,catch,"[(1151, 781)]",[],[1],[],horizontal,"(890.0, 762.0)",1.7,nan,1,7834.971,2,0.0,same
0,852,valid,"[(1150, 819)]",[],[1],[0.5833333333333334],vertical,"(890.0, 262.0)",0.9,0.539,1,7840.713,2,0.0,same
0,853,valid,"[(1134, 785)]",[],[1],[0.6333333333333333],vertical,"(390.0, 762.0)",1.3666666666666667,0.584,1,7845.789,2,0.0,same
0,854,invalid_same_bar,"[(1126, 797)]",[],[1],[0.5166666666666666],vertical,"(890.0, 762.0)",0.6,0.477,1,7851.254,2,0.0,same
0,855,valid,"[(1130, 836)]",[],[1],[0.7166666666666667],horizontal,"(890.0, 262.0)",0.4,0.674,1,7856.021,3,0.0,same
0,856,valid,"[(1150, 796)]",[],[1],[0.5833333333333334],horizontal,"(890.0, 762.0)",1.45,0.54,1,7861.539,3,0.0,same
0,857,valid,"[(1140, 778)]",[],[1],[0.5166666666666666],vertical,"(890.0, 762.0)",1.0,0.475,1,7867.838,3,0.0,same
0,858,invalid_same_bar,"[(1155, 794)]",[],[1],[0.85],vertical,"(390.0, 262.0)",1.4166666666666667,nan,0,7873.41,0,0.0,same
0,859,valid,"[(1120, 787)]",[],[1],[0.6],horizontal,"(890.0, 262.0)",1.1333333333333333,0.556,1,7879.106,1,0.0,same
0,860,valid,"[(1137, 821)]",[],[1],[0.85],horizontal,"(890.0, 762.0)",0.5166666666666666,nan,0,7884.206,0,0.0,same
0,861,catch,"[(1086, 801)]",[],[1],[],vertical,"(390.0, 762.0)",1.7,nan,1,7888.424,1,0.0,same
0,862,valid,"[(1152, 836)]",[],[1],[0.85],vertical,"(890.0, 762.0)",0.6,nan,0,7949.489,0,0.0,same
0,863,valid,"[(1090, 811)]",[],[1],[0.7],horizontal,"(890.0, 762.0)",0.75,0.654,1,7954.205,1,0.0,same
0,864,catch,"[(1160, 795)]",[],[1],[],horizontal,"(890.0, 262.0)",1.7,nan,1,7959.548,1,0.0,same
0,865,catch,"[(1164, 773)]",[],[1],[],vertical,"(390.0, 262.0)",1.7,nan,1,7964.425,1,0.0,same
0,866,valid,"[(1133, 808)]",[],[1],[0.5],vertical,"(890.0, 762.0)",0.7666666666666666,0.464,1,7969.582,2,0.0,same
0,867,valid,"[(1156, 780)]",[],[1],[0.7166666666666667],horizontal,"(890.0, 262.0)",0.9333333333333333,0.674,1,7974.495,2,0.0,same
