block,practice,trial,trial_type,taps_start_loc_during_fix,taps_end_loc_during_fix,taps_on_lever_during_fix,taps_on_lever_s_during_fix,bar_orientation,target_xy,cti,rt,acc,time
1,True,1,target,"[(1029, 843)]",[],[1],[0.35],vertical,"(390.0, 762.0)",0.7666666666666666,0.312,1,0.051
1,True,2,catch,"[(1029, 842)]",[],[1],[0.45],vertical,"(390.0, 762.0)",1.6666666666666667,nan,1,5.063
1,True,3,target,"[(1046, 849)]",[],[1],[0.6333333333333333],horizontal,"(390.0, 262.0)",1.6833333333333333,0.593,1,20.513
1,True,4,target,"[(1038, 834)]",[],[1],[0.45],vertical,"(890.0, 262.0)",1.35,0.414,1,34.082
1,False,1,target,"[(692, 989), (659, 1004), (1081, 910)]",[],"[0, 0, 1]",[],vertical,"(390.0, 762.0)",,cti_phase,0,38.845
1,False,2,target,"[(1059, 886)]",[],[1],[0.85],vertical,"(390.0, 762.0)",1.4166666666666667,nan,0,2219.306
1,False,3,catch,"[(1075, 896)]",[],[1],[0.45],horizontal,"(390.0, 262.0)",0.7666666666666666,nan,1,2225.109
1,False,4,catch,"[(1060, 906)]",[],[1],[0.45],horizontal,"(390.0, 762.0)",0.6,nan,1,2232.126
1,False,5,target,"[(555, 324), (654, 648), (1076, 915)]",[],"[0, 0, 1]",[0.85],horizontal,"(890.0, 762.0)",1.0333333333333332,nan,0,2236.644
1,False,6,target,"[(1068, 863)]",[],[1],[0.85],horizontal,"(390.0, 762.0)",1.2833333333333332,nan,0,4831.238
1,False,7,target,"[(1103, 881)]",[],[1],[0.45],horizontal,"(390.0, 262.0)",1.2833333333333332,0.408,1,4836.262
1,False,8,target,"[(1109, 883)]",[],[1],[0.85],vertical,"(390.0, 262.0)",0.6666666666666666,nan,0,4845.339
1,False,9,target,"[(1081, 881)]",[],[1],[0.3833333333333333],horizontal,"(390.0, 262.0)",0.9666666666666667,0.347,1,4849.983
1,False,10,target,"[(1076, 887)]",[],[1],[0.55],horizontal,"(890.0, 762.0)",0.6333333333333333,0.502,1,4854.342
1,False,11,catch,"[(1100, 888)]",[],[1],[0.3333333333333333],horizontal,"(390.0, 262.0)",0.9666666666666667,0.297,0,4858.687
1,False,12,target,"[(1076, 891)]",[],[1],[0.85],vertical,"(390.0, 262.0)",1.3,nan,0,4862.997
1,False,13,target,"[(1070, 901)]",[],[1],[0.85],vertical,"(890.0, 262.0)",1.15,nan,0,4869.317
1,False,14,target,"[(1092, 893)]","[(1089, 894)]",[1],[0.18333333333333332],horizontal,"(390.0, 762.0)",,bar_phase,0,4875.054
1,False,15,target,"[(1075, 892)]",[],[1],[0.48333333333333334],vertical,"(890.0, 262.0)",0.5833333333333334,0.447,1,4877.656
1,False,16,target,"[(1075, 905)]",[],[1],[0.5666666666666667],vertical,"(390.0, 262.0)",0.6,0.535,1,4882.491
1,False,17,target,"[(1075, 896)]",[],[1],[0.5666666666666667],vertical,"(390.0, 262.0)",0.8833333333333333,0.527,1,4887.178
1,False,18,catch,"[(1090, 901)]",[],[1],[],horizontal,"(390.0, 262.0)",,cti_phase,0,4891.671
1,False,19,target,"[(1080, 859)]",[],[1],[0.55],horizontal,"(890.0, 762.0)",0.8666666666666667,0.511,1,4896.112
1,False,20,target,"[(1103, 896)]",[],[1],[],horizontal,"(390.0, 262.0)",,cti_phase,0,4901.059
1,False,21,target,"[(1086, 889)]",[],[1],[0.3833333333333333],horizontal,"(390.0, 262.0)",1.4333333333333333,0.344,1,4905.115
1,False,22,target,"[(1072, 886)]",[],[1],[0.48333333333333334],vertical,"(390.0, 262.0)",0.9166666666666666,0.448,1,4910.724
1,False,23,target,"[(1077, 896)]",[],[1],[0.36666666666666664],horizontal,"(890.0, 262.0)",1.5333333333333332,0.331,1,4915.662
1,False,24,catch,"[(1090, 889)]",[],[1],[0.36666666666666664],horizontal,"(890.0, 262.0)",0.6333333333333333,0.333,0,4920.561
1,False,25,catch,"[(1090, 892)]",[],[1],[0.45],horizontal,"(390.0, 262.0)",0.7,nan,1,4924.634
1,False,26,target,"[(67, 862), (1008, 873)]",[],"[0, 1]",[0.21666666666666667],horizontal,"(890.0, 262.0)",1.6833333333333333,0.185,1,4929.228
1,False,27,catch,"[(1073, 909)]",[],[1],[0.45],horizontal,"(390.0, 762.0)",1.6,nan,1,4947.171
1,False,28,target,"[(1072, 893)]",[],[1],[0.8],horizontal,"(390.0, 262.0)",1.1666666666666667,0.75,1,4952.094
1,False,29,target,"[(59, 864), (1061, 879)]",[],"[0, 1]",[0.85],vertical,"(890.0, 762.0)",0.95,nan,0,4957.49
1,False,30,target,"[(1090, 911)]",[],[1],[0.2833333333333333],vertical,"(390.0, 262.0)",1.3666666666666667,0.253,1,4963.177
1,False,31,catch,"[(1087, 896)]",[],[1],[0.43333333333333335],vertical,"(390.0, 762.0)",1.5666666666666667,0.394,0,4967.458
1,False,32,target,"[(1119, 896)]",[],[1],[0.4166666666666667],horizontal,"(890.0, 762.0)",1.3833333333333333,0.377,1,4973.174
1,False,33,target,"[(1104, 888)]",[],[1],[0.85],horizontal,"(390.0, 262.0)",1.2666666666666666,nan,0,4978.262
1,False,34,target,"[(1082, 939)]",[],[1],[0.85],vertical,"(890.0, 262.0)",0.6166666666666667,nan,0,4983.511
1,False,35,target,"[(1085, 903)]",[],[1],[0.6],vertical,"(390.0, 262.0)",0.7833333333333333,0.555,1,4989.261
1,False,36,catch,"[(1130, 896)]",[],[1],[],vertical,"(890.0, 762.0)",,cti_phase,0,4994.161
1,False,37,target,"[(1110, 881)]","[(1073, 884)]",[1],[0.05],vertical,"(890.0, 262.0)",,bar_phase,0,4997.914
1,False,38,target,"[(1082, 890)]",[],[1],[0.21666666666666667],vertical,"(390.0, 262.0)",1.2333333333333334,0.187,1,5000.497
1,False,39,target,"[(1094, 896)]","[(1090, 898)]",[1],[0.23333333333333334],vertical,"(390.0, 262.0)",,bar_phase,0,5007.414
1,False,40,target,"[(1115, 893)]",[],[1],[0.43333333333333335],horizontal,"(890.0, 762.0)",0.9666666666666667,0.398,1,5010.022
1,False,41,catch,"[(1088, 902)]",[],[1],[0.45],vertical,"(890.0, 262.0)",1.1833333333333333,nan,1,5015.491
1,False,42,target,"[(1076, 894)]",[],[1],[0.4666666666666667],horizontal,"(390.0, 262.0)",0.7833333333333333,0.432,1,5020.185
1,False,43,target,"[(1093, 913)]",[],[1],[0.4666666666666667],vertical,"(390.0, 262.0)",0.95,0.426,1,5024.934
1,False,44,target,"[(1075, 896)]",[],[1],[0.48333333333333334],horizontal,"(890.0, 262.0)",0.7,0.441,1,5029.795
1,False,45,target,"[(1102, 899)]",[],[1],[0.16666666666666666],horizontal,"(890.0, 762.0)",1.6,0.135,1,5033.767
1,False,46,target,"[(1077, 906)]",[],[1],[0.4666666666666667],horizontal,"(390.0, 262.0)",0.9333333333333333,0.432,1,5039.077
1,False,47,catch,"[(1085, 900)]",[],[1],[],horizontal,"(890.0, 262.0)",,cti_phase,0,5043.724
1,False,48,target,"[(1101, 874)]",[],[1],[0.5833333333333334],vertical,"(890.0, 262.0)",1.4,0.54,1,5048.248
1,False,49,target,"[(1104, 897)]",[],[1],[],horizontal,"(390.0, 262.0)",,cti_phase,0,5053.326
1,False,50,catch,"[(1090, 890)]",[],[1],[0.45],vertical,"(890.0, 762.0)",1.1333333333333333,nan,1,5057.18
1,False,51,target,"[(1072, 886)]",[],[1],[0.5],horizontal,"(390.0, 762.0)",0.9166666666666666,0.47,1,5061.81
1,False,52,target,"[(1082, 894)]",[],[1],[0.5],vertical,"(890.0, 762.0)",1.1333333333333333,0.46,1,5067.651
1,False,53,target,"[(1071, 872)]",[],[1],[0.48333333333333334],vertical,"(890.0, 762.0)",1.5666666666666667,0.444,1,5072.489
1,False,54,target,"[(1083, 906)]",[],[1],[0.08333333333333333],vertical,"(390.0, 262.0)",1.4833333333333334,0.052,1,5078.013
1,False,55,target,"[(1065, 901)]",[],[1],[0.48333333333333334],vertical,"(890.0, 262.0)",0.7166666666666667,0.444,1,5082.562
1,False,56,catch,"[(1091, 896)]",[],[1],[0.45],vertical,"(390.0, 262.0)",0.7333333333333333,nan,1,5086.891
1,False,57,target,"[(1085, 910)]",[],[1],[0.5333333333333333],vertical,"(390.0, 762.0)",0.7666666666666666,0.486,1,5091.277
1,False,58,target,"[(1087, 901)]",[],[1],[0.5333333333333333],vertical,"(390.0, 262.0)",0.5666666666666667,0.492,1,5096.306
1,False,59,target,"[(1086, 905)]",[],[1],[0.7],horizontal,"(390.0, 262.0)",0.5,0.652,1,5100.744
1,False,60,target,"[(1085, 896)]",[],[1],[],horizontal,"(390.0, 262.0)",,cti_phase,0,5105.04
2,False,61,catch,"[(1085, 873)]",[],[1],[0.45],vertical,"(890.0, 762.0)",0.7666666666666666,nan,1,5109.48
2,False,62,catch,"[(1061, 897)]",[],[1],[0.45],vertical,"(390.0, 762.0)",0.85,nan,1,5113.646
2,False,63,target,"[(878, 298), (78, 688), (1250, 523), (872, 910), (1252, 709), (403, 499), (482, 605), (644, 608), (160, 456), (716, 504), (823, 442), (280, 714), (1077, 889)]",[],"[0, 0, 0, 0, 0, 0, 0, 0, 0, 0, 0, 0, 1]",[0.48333333333333334],horizontal,"(890.0, 762.0)",1.0166666666666666,0.448,1,5122.685
2,False,64,target,"[(1071, 928)]",[],[1],[0.85],horizontal,"(890.0, 262.0)",1.4,nan,0,5147.97
2,False,65,target,"[(1022, 915)]",[],[1],[0.48333333333333334],vertical,"(390.0, 762.0)",0.9166666666666666,0.45,1,5153.377
2,False,66,target,"[(1060, 915)]",[],[1],[0.13333333333333333],vertical,"(890.0, 762.0)",1.65,0.103,1,5161.395
2,False,67,target,"[(1081, 917)]",[],[1],[0.5666666666666667],horizontal,"(390.0, 762.0)",1.1166666666666667,0.521,1,5166.59
2,False,68,target,"[(1075, 912)]",[],[1],[0.5666666666666667],vertical,"(890.0, 762.0)",0.5333333333333333,0.529,1,5171.762
2,False,69,target,"[(1077, 915)]",[],[1],[0.85],vertical,"(890.0, 262.0)",0.8,nan,0,5175.784
2,False,70,target,"[(1080, 891)]",[],[1],[0.5166666666666666],horizontal,"(890.0, 262.0)",0.7666666666666666,0.477,1,5180.457
2,False,71,target,"[(1044, 910)]",[],[1],[],vertical,"(890.0, 762.0)",,cti_phase,0,5184.874
2,False,72,target,"[(1076, 899)]",[],[1],[0.85],horizontal,"(890.0, 262.0)",1.5166666666666666,nan,0,5188.95
2,False,73,target,"[(1022, 933)]",[],[1],[0.5666666666666667],horizontal,"(890.0, 762.0)",0.5,0.52,1,5194.79
2,False,74,target,"[(1091, 909)]",[],[1],[0.31666666666666665],vertical,"(390.0, 762.0)",1.4166666666666667,0.281,1,5198.875
2,False,75,target,"[(1096, 927)]",[],[1],[0.5166666666666666],horizontal,"(390.0, 762.0)",0.9,0.476,1,5203.558
2,False,76,catch,"[(1081, 909)]",[],[1],[0.45],horizontal,"(890.0, 762.0)",0.75,nan,1,5208.445
2,False,77,catch,"[(1104, 900)]",[],[1],[0.45],vertical,"(390.0, 762.0)",1.4,nan,1,5212.574
2,False,78,target,"[(1096, 899)]",[],[1],[0.5166666666666666],horizontal,"(890.0, 762.0)",0.9333333333333333,0.476,1,5218.228
2,False,79,target,"[(1105, 907)]",[],[1],[0.23333333333333334],vertical,"(390.0, 262.0)",1.6,0.2,1,5222.959
2,False,80,target,"[(1083, 902)]",[],[1],[0.5333333333333333],vertical,"(390.0, 262.0)",1.0,0.493,1,5227.566
2,False,81,target,"[(1081, 890)]",[],[1],[0.85],vertical,"(890.0, 762.0)",1.2166666666666666,nan,0,5232.114
2,False,82,target,"[(1081, 890)]",[],[1],[0.85],horizontal,"(890.0, 262.0)",1.55,nan,0,5237.068
2,False,83,target,"[(1095, 907)]",[],[1],[0.85],horizontal,"(390.0, 762.0)",1.2666666666666666,nan,0,5242.744
2,False,84,catch,"[(1091, 910)]",[],[1],[0.06666666666666667],vertical,"(390.0, 762.0)",1.1,0.038,0,5248.061
2,False,85,target,"[(1081, 862)]",[],[1],[],vertical,"(890.0, 262.0)",,cti_phase,0,5252.979
2,False,86,target,"[(1085, 876)]",[],[1],[0.6833333333333333],vertical,"(890.0, 262.0)",0.5166666666666666,0.637,1,5257.179
2,False,87,catch,"[(1090, 905)]",[],[1],[0.45],vertical,"(390.0, 262.0)",1.4666666666666666,nan,1,5261.368
2,False,88,target,"[(1085, 872)]",[],[1],[0.55],horizontal,"(390.0, 762.0)",0.5,0.51,1,5266.874
2,False,89,target,"[(1091, 884)]",[],[1],[0.85],vertical,"(890.0, 762.0)",1.0,nan,0,5271.697
2,False,90,target,"[(1101, 895)]",[],[1],[0.6],horizontal,"(390.0, 762.0)",1.6833333333333333,0.56,1,5276.409
2,False,91,catch,"[(1117, 906)]",[],[1],[0.45],horizontal,"(390.0, 762.0)",1.25,nan,1,5281.645
2,False,92,target,"[(1081, 891)]",[],[1],[0.5333333333333333],vertical,"(390.0, 762.0)",1.0166666666666666,0.492,1,5286.476
2,False,93,target,"[(1100, 899)]",[],[1],[],horizontal,"(890.0, 762.0)",,cti_phase,0,5290.945
2,False,94,catch,"[(1081, 889)]",[],[1],[0.21666666666666667],vertical,"(390.0, 262.0)",1.6166666666666667,0.182,0,5293.971
2,False,95,target,"[(1090, 889)]",[],[1],[0.85],vertical,"(890.0, 762.0)",1.2,nan,0,5299.436
2,False,96,target,"[(1104, 893)]",[],[1],[0.3333333333333333],vertical,"(890.0, 762.0)",1.4,0.295,1,5304.762
2,False,97,catch,"[(1069, 897)]",[],[1],[0.45],horizontal,"(390.0, 262.0)",1.3833333333333333,nan,1,5309.689
2,False,98,target,"[(1094, 902)]",[],[1],[0.85],vertical,"(390.0, 262.0)",1.5833333333333333,nan,0,5314.518
2,False,99,target,"[(1089, 899)]",[],[1],[0.85],horizontal,"(890.0, 262.0)",1.25,nan,0,5319.826
2,False,100,target,"[(1090, 880)]",[],[1],[0.5833333333333334],vertical,"(890.0, 762.0)",0.6333333333333333,0.543,1,5324.718
2,False,101,target,"[(1102, 902)]","[(1102, 902)]",[1],[0.016666666666666666],horizontal,"(890.0, 762.0)",,bar_phase,0,5333.002
2,False,102,target,"[(1085, 890)]",[],[1],[0.3],vertical,"(390.0, 762.0)",1.0833333333333333,0.268,1,5335.396
2,False,103,target,"[(1082, 904)]",[],[1],[0.2833333333333333],horizontal,"(890.0, 762.0)",1.3666666666666667,0.252,1,5340.316
2,False,104,target,"[(1104, 899)]",[],[1],[0.11666666666666667],horizontal,"(390.0, 262.0)",1.0166666666666666,0.085,1,5345.161
2,False,105,catch,"[(1095, 891)]",[],[1],[],horizontal,"(890.0, 262.0)",,cti_phase,0,5349.724
2,False,106,target,"[(1083, 891)]",[],[1],[],vertical,"(390.0, 262.0)",,cti_phase,0,5354.388
2,False,107,target,"[(1114, 890)]",[],[1],[0.5333333333333333],horizontal,"(890.0, 762.0)",1.3166666666666667,0.49,1,5359.378
2,False,108,target,"[(1106, 895)]",[],[1],[0.36666666666666664],vertical,"(890.0, 762.0)",1.3833333333333333,0.326,1,5364.522
2,False,109,target,"[(1100, 899)]",[],[1],[0.21666666666666667],horizontal,"(890.0, 262.0)",1.3333333333333333,0.18,1,5369.763
2,False,110,catch,"[(1088, 885)]",[],[1],[0.45],horizontal,"(390.0, 762.0)",1.05,nan,1,5374.713
2,False,111,target,"[(940, 98), (837, 108), (937, 127), (1008, 301), (945, 266), (941, 147), (897, 148), (941, 142), (901, 137), (929, 218), (930, 810), (901, 226), (785, 185), (1008, 152), (1022, 152), (962, 862), (967, 185), (950, 180), (921, 170), (965, 98), (964, 190), (209, 158), (957, 151), (916, 261), (930, 213), (644, 194), (950, 151), (547, 270), (921, 218), (992, 210), (636, 169), (979, 159), (612, 227), (968, 293), (899, 168), (541, 162), (993, 246), (112, 175), (462, 675), (897, 259), (690, 447), (974, 252), (911, 196), (895, 195), (994, 161), (992, 171), (1009, 576), (558, 212), (1010, 862)]",[],"[0, 0, 0, 0, 0, 0, 0, 0, 0, 0, 0, 0, 0, 0, 0, 0, 0, 0, 0, 0, 0, 0, 0, 0, 0, 0, 0, 0, 0, 0, 0, 0, 0, 0, 0, 0, 0, 0, 0, 0, 0, 0, 0, 0, 0, 0, 0, 0, 1]",[],vertical,"(390.0, 262.0)",,fix_phase,0,5379.206
2,False,112,target,"[(1012, 213), (141, 178), (148, 164), (1001, 299), (995, 881), (867, 208), (509, 183), (131, 332), (1003, 185), (1163, 180), (947, 184), (831, 432), (88, 165), (1008, 171), (146, 177), (1071, 194), (969, 103), (1085, 873)]","[(1075, 895)]","[0, 0, 0, 0, 0, 0, 0, 0, 0, 0, 0, 0, 0, 0, 0, 0, 0, 1]",[0.5333333333333333],vertical,"(890.0, 762.0)",,bar_phase,0,5400.09
2,False,113,target,"[(1103, 907)]",[],[1],[],vertical,"(890.0, 262.0)",,fix_phase,0,5412.293
2,False,114,target,"[(1128, 898)]",[],[1],[],vertical,"(390.0, 762.0)",,fix_phase,0,5414.406
2,False,115,target,"[(738, 180), (1143, 181), (969, 188), (1032, 915)]",[],"[0, 0, 0, 1]",[],horizontal,"(390.0, 762.0)",,fix_phase,0,5416.68
2,False,116,target,"[(1062, 905)]","[(1037, 909)]",[1],[0.95],horizontal,"(390.0, 262.0)",,"bar_phase,cti_phase",0,5420.592
2,False,117,target,"[(962, 294), (1085, 900)]","[(1033, 900)]","[0, 1]",[0.35],horizontal,"(390.0, 262.0)",,bar_phase,0,5424.696
2,False,118,target,"[(1088, 902)]",[],[1],[],vertical,"(390.0, 762.0)",,fix_phase,0,5427.401
2,False,119,target,"[(746, 189), (921, 113), (524, 113), (921, 194), (669, 189), (1201, 709), (489, 195), (1222, 191), (930, 195), (495, 198), (954, 242), (652, 985), (771, 495), (1027, 251), (1032, 533), (916, 178), (1081, 903)]",[],"[0, 0, 0, 0, 0, 0, 0, 0, 0, 0, 0, 0, 0, 0, 0, 0, 1]",[0.48333333333333334],horizontal,"(890.0, 762.0)",0.8,0.441,1,5429.903
2,False,120,target,"[(906, 705), (1090, 903)]",[],"[0, 1]",[0.2833333333333333],vertical,"(890.0, 762.0)",0.7666666666666666,0.247,1,5461.167
3,False,121,catch,"[(1090, 891)]",[],[1],[],horizontal,"(390.0, 262.0)",,cti_phase,0,5471.542
3,False,122,target,"[(1221, 103), (1083, 899)]",[],"[0, 1]",[0.4666666666666667],horizontal,"(390.0, 762.0)",0.9333333333333333,0.431,1,5476.218
3,False,123,catch,"[(1014, 907)]",[],[1],[0.45],horizontal,"(390.0, 262.0)",0.9833333333333333,nan,1,5482.946
3,False,124,catch,"[(1081, 881)]",[],[1],[0.45],vertical,"(390.0, 762.0)",1.2166666666666666,nan,1,5487.157
3,False,125,target,"[(1087, 886)]",[],[1],[0.5833333333333334],horizontal,"(890.0, 762.0)",1.0666666666666667,0.538,1,5492.171
3,False,126,target,"[(1090, 907)]",[],[1],[0.45],horizontal,"(890.0, 262.0)",1.6166666666666667,0.415,1,5497.356
3,False,127,target,"[(1103, 894)]",[],[1],[],horizontal,"(890.0, 262.0)",,cti_phase,0,5502.196
3,False,128,target,"[(1084, 891)]",[],[1],[0.4166666666666667],vertical,"(390.0, 762.0)",1.5833333333333333,0.379,1,5506.934
3,False,129,target,"[(1091, 904)]","[(1086, 904)]",[1],[0.3],vertical,"(890.0, 762.0)",,bar_phase,0,5512.018
3,False,130,target,"[(1086, 876)]",[],[1],[0.55],vertical,"(390.0, 762.0)",1.45,0.505,1,5514.939
3,False,131,target,"[(1099, 903)]","[(1090, 905)]",[1],[0.1],horizontal,"(890.0, 262.0)",,bar_phase,0,5520.108
3,False,132,target,"[(1114, 884)]",[],[1],[0.36666666666666664],horizontal,"(390.0, 762.0)",1.2833333333333332,0.334,1,5522.494
3,False,133,target,"[(1088, 892)]",[],[1],[],horizontal,"(890.0, 762.0)",,fix_phase,0,5528.961
3,False,134,target,"[(1079, 895)]",[],[1],[0.85],horizontal,"(890.0, 262.0)",1.0666666666666667,nan,0,5531.166
3,False,135,target,"[(1082, 876)]",[],[1],[0.4666666666666667],horizontal,"(890.0, 262.0)",1.0333333333333332,0.423,1,5536.036
3,False,136,target,"[(1077, 887)]",[],[1],[],horizontal,"(390.0, 762.0)",,cti_phase,0,5540.873
3,False,137,target,"[(1104, 892)]",[],[1],[0.85],vertical,"(390.0, 262.0)",0.95,nan,0,5545.679
3,False,138,catch,"[(1081, 885)]",[],[1],[0.45],vertical,"(390.0, 762.0)",1.4333333333333333,nan,1,5550.679
3,False,139,target,"[(1091, 892)]",[],[1],[0.65],horizontal,"(390.0, 262.0)",1.0,0.606,1,5556.007
3,False,140,target,"[(1088, 880)]",[],[1],[0.5166666666666666],vertical,"(390.0, 262.0)",1.1833333333333333,0.479,1,5560.587
3,False,141,catch,"[(1085, 896)]",[],[1],[0.36666666666666664],horizontal,"(390.0, 762.0)",1.5666666666666667,0.329,0,5565.109
3,False,142,target,"[(1110, 887)]",[],[1],[0.5166666666666666],horizontal,"(890.0, 262.0)",0.7833333333333333,0.476,1,5569.944
3,False,143,target,"[(1085, 899)]",[],[1],[0.85],horizontal,"(390.0, 262.0)",1.5333333333333332,nan,0,5574.439
3,False,144,target,"[(1079, 876)]",[],[1],[0.6333333333333333],vertical,"(890.0, 762.0)",0.5833333333333334,0.592,1,5579.561
3,False,145,target,"[(1083, 894)]",[],[1],[0.5666666666666667],vertical,"(390.0, 262.0)",0.7333333333333333,0.525,1,5583.997
3,False,146,catch,"[(1085, 899)]",[],[1],[0.45],horizontal,"(390.0, 262.0)",0.5333333333333333,nan,1,5588.279
3,False,147,target,"[(1081, 893)]",[],[1],[0.5],horizontal,"(890.0, 262.0)",1.0666666666666667,0.455,1,5592.198
3,False,148,target,"[(1076, 901)]",[],[1],[0.85],horizontal,"(890.0, 762.0)",0.7666666666666666,nan,0,5596.55
3,False,149,target,"[(1089, 886)]",[],[1],[0.85],vertical,"(890.0, 262.0)",1.2833333333333332,nan,0,5601.481
3,False,150,target,"[(1084, 874)]",[],[1],[0.85],vertical,"(390.0, 262.0)",1.5666666666666667,nan,0,5606.51
3,False,151,target,"[(1073, 891)]",[],[1],[0.4666666666666667],horizontal,"(890.0, 262.0)",1.6666666666666667,0.428,1,5612.845
3,False,152,target,"[(1081, 888)]",[],[1],[0.85],vertical,"(390.0, 762.0)",1.2333333333333334,nan,0,5619.593
3,False,153,catch,"[(1077, 889)]",[],[1],[0.45],horizontal,"(890.0, 262.0)",0.6,nan,1,5625.101
3,False,154,target,"[(804, 313), (562, 309), (560, 294), (499, 528), (559, 461), (555, 385), (587, 89), (571, 700), (499, 393), (572, 709), (580, 481), (780, 304), (562, 413), (596, 423), (373, 711), (596, 309), (558, 318), (775, 478), (610, 327), (369, 331), (591, 447), (428, 743), (732, 439), (579, 557), (590, 347), (590, 399), (584, 337), (518, 461), (572, 352), (598, 781), (518, 657), (595, 394), (601, 352), (1034, 872)]",[],"[0, 0, 0, 0, 0, 0, 0, 0, 0, 0, 0, 0, 0, 0, 0, 0, 0, 0, 0, 0, 0, 0, 0, 0, 0, 0, 0, 0, 0, 0, 0, 0, 0, 1]",[0.3833333333333333],vertical,"(390.0, 262.0)",1.5166666666666666,0.346,1,5629.314
3,False,155,target,"[(1014, 907)]",[],[1],[],vertical,"(390.0, 262.0)",,fix_phase,0,5656.107
3,False,156,catch,"[(1068, 432), (606, 441), (596, 423), (606, 442), (1077, 893)]","[(1027, 907)]","[0, 0, 0, 0, 1]",[0.6833333333333333],horizontal,"(890.0, 262.0)",,bar_phase,0,5658.439
3,False,157,target,"[(1061, 886)]",[],[1],[0.5166666666666666],horizontal,"(890.0, 762.0)",0.8333333333333334,0.477,1,5673.332
3,False,158,target,"[(1071, 905)]",[],[1],[0.48333333333333334],vertical,"(890.0, 262.0)",1.2,0.441,1,5678.038
3,False,159,target,"[(1062, 909)]",[],[1],[0.85],vertical,"(390.0, 762.0)",0.5666666666666667,nan,0,5682.88
3,False,160,catch,"[(388, 795), (1071, 886)]",[],"[0, 1]",[0.45],vertical,"(390.0, 262.0)",0.55,nan,1,5687.663
3,False,161,target,"[(1104, 863)]",[],[1],[0.21666666666666667],horizontal,"(890.0, 262.0)",0.7,0.181,1,5766.977
3,False,162,target,"[(1085, 906)]",[],[1],[0.85],vertical,"(890.0, 262.0)",0.55,nan,0,5779.19
3,False,163,target,"[(1069, 891)]",[],[1],[],horizontal,"(890.0, 262.0)",,cti_phase,0,5783.785
3,False,164,target,"[(1088, 876)]",[],[1],[0.5333333333333333],vertical,"(390.0, 762.0)",0.8833333333333333,0.489,1,5788.294
3,False,165,target,"[(1075, 899)]",[],[1],[0.5666666666666667],vertical,"(890.0, 262.0)",0.7666666666666666,0.525,1,5792.874
3,False,166,target,"[(1081, 877)]",[],[1],[0.85],vertical,"(890.0, 262.0)",0.9333333333333333,nan,0,5797.161
3,False,167,target,"[(1090, 896)]",[],[1],[0.5333333333333333],horizontal,"(890.0, 762.0)",1.1833333333333333,0.499,1,5802.49
3,False,168,target,"[(1081, 886)]","[(1074, 890)]",[1],[0.23333333333333334],horizontal,"(390.0, 262.0)",,bar_phase,0,5806.845
3,False,169,target,"[(1080, 885)]",[],[1],[0.85],vertical,"(890.0, 262.0)",1.6833333333333333,nan,0,5809.428
3,False,170,target,"[(1070, 863)]",[],[1],[0.85],vertical,"(390.0, 262.0)",0.6666666666666666,nan,0,5815.03
3,False,171,target,"[(1080, 873)]",[],[1],[0.5166666666666666],horizontal,"(890.0, 762.0)",0.5,0.476,1,5821.39
3,False,172,target,"[(1094, 890)]",[],[1],[0.85],vertical,"(390.0, 762.0)",1.15,nan,0,5826.235
3,False,173,target,"[(1069, 881)]",[],[1],[0.85],horizontal,"(890.0, 262.0)",1.2166666666666666,nan,0,5831.496
3,False,174,catch,"[(1078, 901)]",[],[1],[0.11666666666666667],horizontal,"(890.0, 762.0)",1.65,0.084,0,5838.08
3,False,175,target,"[(1081, 889)]",[],[1],[0.55],horizontal,"(390.0, 762.0)",1.0166666666666666,0.525,1,5842.838
3,False,176,target,"[(1104, 905)]",[],[1],[0.4166666666666667],vertical,"(890.0, 262.0)",0.75,0.384,1,5847.595
3,False,177,target,"[(1104, 910)]",[],[1],[],horizontal,"(890.0, 262.0)",,cti_phase,0,5851.759
3,False,178,target,"[(1080, 892)]",[],[1],[],horizontal,"(890.0, 262.0)",,cti_phase,0,5856.207
3,False,179,catch,"[(1085, 885)]",[],[1],[0.45],vertical,"(390.0, 262.0)",1.25,nan,1,5861.68
3,False,180,catch,"[(1060, 918)]",[],[1],[],horizontal,"(390.0, 262.0)",,cti_phase,0,5867.295
4,False,181,catch,"[(1060, 914)]",[],[1],[],horizontal,"(390.0, 762.0)",,cti_phase,0,6006.241
4,False,182,target,"[(1063, 915)]",[],[1],[],horizontal,"(890.0, 762.0)",,cti_phase,0,6013.941
4,False,183,catch,"[(1062, 919)]",[],[1],[0.45],horizontal,"(390.0, 762.0)",1.3666666666666667,nan,1,6017.825
4,False,184,catch,"[(1222, 910)]",[],[1],[],vertical,"(390.0, 762.0)",,fix_phase,0,6023.371
4,False,185,target,"[(1228, 713), (959, 735), (1148, 743), (1075, 850)]",[],"[0, 0, 0, 1]",[],horizontal,"(890.0, 262.0)",,fix_phase,0,6024.847
4,False,186,target,"[(1148, 727), (1081, 729), (1202, 729), (1201, 741), (1197, 755)]",[],"[0, 0, 0, 0, 1]",[],horizontal,"(890.0, 762.0)",,fix_phase,0,6027.079
4,False,187,catch,"[(1051, 756)]",[],[1],[],vertical,"(890.0, 262.0)",,fix_phase,0,6033.463
4,False,188,target,"[(1250, 743), (1255, 765), (1153, 690), (1061, 814)]",[],"[0, 0, 0, 1]",[],horizontal,"(390.0, 262.0)",,fix_phase,0,6035.476
4,False,189,target,"[(1066, 918)]",[],[1],[],vertical,"(890.0, 762.0)",,fix_phase,0,6043.224
4,False,190,target,"[(1061, 826)]",[],[1],[],horizontal,"(890.0, 762.0)",,fix_phase,0,6044.615
4,False,191,target,"[(1167, 824)]",[],[1],[],horizontal,"(390.0, 262.0)",,fix_phase,0,6046.707
4,False,192,target,"[(1245, 830), (1272, 800), (1140, 790)]",[],"[0, 0, 1]",[],vertical,"(390.0, 262.0)",,cti_phase,0,6050.058
4,False,193,target,"[(1163, 804)]",[],[1],[],horizontal,"(890.0, 262.0)",,fix_phase,0,6055.015
4,False,194,target,"[(1090, 814)]",[],[1],[],horizontal,"(890.0, 262.0)",,fix_phase,0,6057.28
4,False,195,target,"[(1100, 814)]",[],[1],[],vertical,"(890.0, 262.0)",,fix_phase,0,6059.407
4,False,196,target,"[(1085, 855)]",[],[1],[],vertical,"(390.0, 762.0)",,fix_phase,0,6067.241
4,False,197,target,"[(1056, 845)]","[(1145, 831)]",[1],[0.11666666666666667],horizontal,"(890.0, 762.0)",,bar_phase,0,6069.04
4,False,198,target,"[(1063, 838)]","[(1056, 830)]",[1],[0.36666666666666664],vertical,"(390.0, 262.0)",,bar_phase,0,6072.205
4,False,199,target,"[(1022, 829)]",[],[1],[],horizontal,"(890.0, 262.0)",,fix_phase,0,6074.881
4,False,200,target,"[(1022, 835)]",[],[1],[],horizontal,"(890.0, 262.0)",,cti_phase,0,6077.191
4,False,201,target,"[(1074, 904)]",[],[1],[0.5],vertical,"(390.0, 262.0)",1.6,0.459,1,6087.579
4,False,202,target,"[(1081, 901)]",[],[1],[0.55],vertical,"(390.0, 262.0)",0.8333333333333334,0.514,1,6197.04
4,False,203,target,"[(1095, 910)]",[],[1],[0.5333333333333333],horizontal,"(390.0, 762.0)",0.8,0.497,1,6201.377
4,False,204,target,"[(1095, 902)]",[],[1],[],horizontal,"(390.0, 762.0)",,cti_phase,0,6205.607
4,False,205,target,"[(1104, 873)]",[],[1],[0.5],horizontal,"(890.0, 762.0)",0.85,0.462,1,6210.204
4,False,206,target,"[(1105, 894)]",[],[1],[0.45],horizontal,"(890.0, 762.0)",1.2,0.409,1,6215.043
4,False,207,target,"[(1117, 890)]",[],[1],[],horizontal,"(890.0, 262.0)",,cti_phase,0,6220.084
4,False,208,catch,"[(1139, 881)]",[],[1],[0.45],vertical,"(890.0, 262.0)",1.15,nan,1,6225.332
4,False,209,catch,"[(1107, 899)]",[],[1],[0.45],vertical,"(390.0, 762.0)",0.8333333333333334,nan,1,6230.185
4,False,210,target,"[(1095, 875)]",[],[1],[0.5333333333333333],vertical,"(390.0, 762.0)",1.0833333333333333,0.493,1,6234.92
4,False,211,target,"[(1081, 886)]",[],[1],[0.5333333333333333],vertical,"(890.0, 262.0)",0.6,0.498,1,6240.407
4,False,212,target,"[(1104, 901)]",[],[1],[0.85],horizontal,"(390.0, 262.0)",0.7,nan,0,6244.559
4,False,213,target,"[(1090, 896)]",[],[1],[0.5666666666666667],horizontal,"(390.0, 762.0)",1.0333333333333332,0.527,1,6248.904
4,False,214,target,"[(1113, 892)]",[],[1],[0.5333333333333333],horizontal,"(390.0, 262.0)",1.0166666666666666,0.489,1,6253.562
4,False,215,target,"[(1104, 905)]",[],[1],[0.26666666666666666],vertical,"(390.0, 262.0)",1.5,0.234,1,6257.91
4,False,216,catch,"[(1100, 901)]",[],[1],[],horizontal,"(890.0, 762.0)",,cti_phase,0,6262.823
4,False,217,target,"[(1112, 893)]",[],[1],[0.6],vertical,"(390.0, 762.0)",0.95,0.56,1,6267.428
4,False,218,target,"[(1082, 906)]",[],[1],[0.5],vertical,"(390.0, 762.0)",0.7,0.462,1,6272.305
4,False,219,target,"[(1104, 906)]",[],[1],[0.4666666666666667],horizontal,"(390.0, 762.0)",1.0,0.42,1,6277.057
4,False,220,target,"[(1066, 905)]",[],[1],[0.5166666666666666],horizontal,"(890.0, 262.0)",1.35,0.469,1,6282.094
4,False,221,target,"[(1097, 909)]",[],[1],[0.5],horizontal,"(390.0, 262.0)",1.1666666666666667,0.456,1,6286.996
4,False,222,catch,"[(1075, 910)]",[],[1],[0.45],horizontal,"(390.0, 262.0)",1.2666666666666666,nan,1,6291.758
4,False,223,target,"[(1090, 898)]",[],[1],[0.5833333333333334],horizontal,"(390.0, 762.0)",1.65,0.543,1,6296.229
4,False,224,target,"[(1086, 891)]",[],[1],[0.48333333333333334],vertical,"(890.0, 762.0)",0.6666666666666666,0.443,1,6301.576
4,False,225,catch,"[(1090, 903)]",[],[1],[0.45],vertical,"(890.0, 262.0)",1.0833333333333333,nan,1,6305.912
4,False,226,catch,"[(1084, 905)]",[],[1],[0.45],horizontal,"(390.0, 262.0)",0.6833333333333333,nan,1,6310.801
4,False,227,target,"[(1078, 891)]",[],[1],[0.5166666666666666],vertical,"(390.0, 262.0)",0.7166666666666667,0.481,1,6315.581
4,False,228,target,"[(1079, 906)]",[],[1],[],vertical,"(390.0, 262.0)",,cti_phase,0,6319.879
4,False,229,catch,"[(1106, 890)]",[],[1],[0.45],horizontal,"(390.0, 262.0)",1.1,nan,1,6323.862
4,False,230,target,"[(1104, 881)]",[],[1],[0.4666666666666667],vertical,"(390.0, 762.0)",1.3166666666666667,0.426,1,6328.133
4,False,231,target,"[(1086, 909)]",[],[1],[0.23333333333333334],vertical,"(890.0, 262.0)",1.0333333333333332,0.2,1,6332.78
4,False,232,target,"[(1084, 901)]",[],[1],[0.43333333333333335],vertical,"(890.0, 762.0)",1.6666666666666667,0.394,1,6337.398
4,False,233,target,"[(1081, 884)]",[],[1],[0.5],horizontal,"(890.0, 762.0)",0.6,0.462,1,6342.713
4,False,234,target,"[(1092, 885)]",[],[1],[0.45],vertical,"(890.0, 262.0)",1.1833333333333333,0.412,1,6348.909
4,False,235,target,"[(1081, 896)]",[],[1],[0.5833333333333334],vertical,"(890.0, 262.0)",0.7166666666666667,0.545,1,6353.477
4,False,236,target,"[(1100, 905)]",[],[1],[0.5166666666666666],vertical,"(390.0, 262.0)",1.2166666666666666,0.482,1,6358.148
4,False,237,target,"[(1081, 906)]",[],[1],[0.48333333333333334],horizontal,"(890.0, 762.0)",0.8833333333333333,0.441,1,6363.259
4,False,238,catch,"[(1088, 885)]",[],[1],[0.45],horizontal,"(890.0, 762.0)",0.9333333333333333,nan,1,6368.171
4,False,239,catch,"[(1100, 905)]",[],[1],[0.45],vertical,"(890.0, 762.0)",1.0666666666666667,nan,1,6372.91
4,False,240,target,"[(1104, 892)]",[],[1],[0.5],horizontal,"(890.0, 262.0)",0.55,0.461,1,6377.746
5,False,241,target,"[(1108, 904)]",[],[1],[0.36666666666666664],horizontal,"(390.0, 762.0)",1.25,0.326,1,6381.998
5,False,242,catch,"[(1095, 916)]",[],[1],[0.25],horizontal,"(390.0, 762.0)",1.55,0.218,0,6386.89
5,False,243,target,"[(1085, 896)]",[],[1],[0.5],horizontal,"(890.0, 762.0)",1.1,0.461,1,6391.512
5,False,244,target,"[(1086, 890)]",[],[1],[0.6333333333333333],horizontal,"(890.0, 762.0)",0.7166666666666667,0.587,1,6397.246
5,False,245,target,"[(1109, 903)]",[],[1],[0.5],vertical,"(890.0, 762.0)",0.8,0.453,1,6401.892
5,False,246,target,"[(1107, 901)]",[],[1],[0.48333333333333334],vertical,"(890.0, 762.0)",1.0,0.447,1,6406.13
5,False,247,target,"[(1096, 909)]",[],[1],[0.5],vertical,"(890.0, 262.0)",0.9166666666666666,0.456,1,6410.685
5,False,248,target,"[(1082, 905)]",[],[1],[0.3833333333333333],horizontal,"(890.0, 262.0)",1.6,0.345,1,6414.858
5,False,249,target,"[(1103, 903)]",[],[1],[0.5833333333333334],horizontal,"(890.0, 762.0)",0.6166666666666667,0.54,1,6419.964
5,False,250,target,"[(1085, 902)]",[],[1],[0.13333333333333333],vertical,"(390.0, 262.0)",1.2833333333333332,0.103,1,6424.011
5,False,251,target,"[(1081, 904)]",[],[1],[0.5],vertical,"(390.0, 762.0)",1.0833333333333333,0.459,1,6428.864
5,False,252,catch,"[(1082, 901)]",[],[1],[0.3833333333333333],vertical,"(390.0, 262.0)",1.3166666666666667,0.353,0,6433.875
5,False,253,target,"[(1071, 881)]",[],[1],[0.5166666666666666],horizontal,"(890.0, 762.0)",0.7666666666666666,0.475,1,6438.426
5,False,254,target,"[(1104, 891)]",[],[1],[0.48333333333333334],vertical,"(390.0, 262.0)",0.95,0.445,1,6442.631
5,False,255,catch,"[(1071, 891)]",[],[1],[0.45],vertical,"(890.0, 262.0)",0.6333333333333333,nan,1,6447.633
5,False,256,target,"[(378, 592), (386, 589), (1080, 881)]",[],"[0, 0, 1]",[],vertical,"(390.0, 762.0)",,cti_phase,0,6451.397
5,False,257,target,"[(1074, 900)]","[(1075, 899)]",[1],[1.05],horizontal,"(390.0, 762.0)",,bar_phase,0,6465.975
5,False,258,target,"[(1108, 891)]",[],[1],[],horizontal,"(390.0, 762.0)",,cti_phase,0,6469.878
5,False,259,catch,"[(1127, 892)]",[],[1],[],vertical,"(890.0, 262.0)",,cti_phase,0,6473.693
5,False,260,target,"[(1104, 888)]",[],[1],[],vertical,"(390.0, 262.0)",,fix_phase,0,6478.126
5,False,261,target,"[(1090, 905)]",[],[1],[0.4666666666666667],vertical,"(390.0, 762.0)",1.6666666666666667,0.425,1,6480.514
5,False,262,target,"[(1077, 614), (1042, 910)]",[],"[0, 1]",[],horizontal,"(390.0, 762.0)",,fix_phase,0,6486.002
5,False,263,target,"[(1102, 887)]",[],[1],[0.4666666666666667],horizontal,"(390.0, 762.0)",1.4333333333333333,0.425,1,6488.428
5,False,264,target,"[(1089, 902)]",[],[1],[0.85],horizontal,"(890.0, 262.0)",1.5,nan,0,6493.294
5,False,265,target,"[(1102, 903)]",[],[1],[],horizontal,"(890.0, 762.0)",,cti_phase,0,6498.533
5,False,266,target,"[(1081, 894)]",[],[1],[0.5833333333333334],vertical,"(890.0, 262.0)",1.15,0.546,1,6501.817
5,False,267,target,"[(1081, 905)]",[],[1],[0.16666666666666666],vertical,"(890.0, 762.0)",1.4666666666666666,0.132,1,6506.831
5,False,268,target,"[(1085, 904)]",[],[1],[0.31666666666666665],horizontal,"(890.0, 262.0)",1.45,0.275,1,6511.735
5,False,269,catch,"[(1079, 888)]",[],[1],[0.45],horizontal,"(890.0, 262.0)",1.0,nan,1,6516.972
5,False,270,catch,"[(1109, 894)]",[],[1],[],horizontal,"(390.0, 262.0)",,cti_phase,0,6521.674
5,False,271,target,"[(1110, 898)]",[],[1],[0.4166666666666667],vertical,"(890.0, 762.0)",1.0666666666666667,0.379,1,6525.335
5,False,272,catch,"[(1075, 896)]",[],[1],[0.45],vertical,"(890.0, 262.0)",0.5333333333333333,nan,1,6530.081
5,False,273,target,"[(582, 829), (693, 648), (272, 681), (359, 685), (226, 533), (188, 685), (736, 418), (366, 418), (1003, 416), (165, 454), (344, 461), (727, 679), (184, 422), (233, 466), (161, 440), (225, 318), (175, 447), (179, 452), (107, 466), (179, 766), (664, 466), (184, 485), (291, 509), (993, 356), (988, 433), (1221, 514), (175, 361), (1095, 486), (158, 285), (218, 509), (34, 295), (199, 285), (30, 428), (1070, 889)]",[],"[0, 0, 0, 0, 0, 0, 0, 0, 0, 0, 0, 0, 0, 0, 0, 0, 0, 0, 0, 0, 0, 0, 0, 0, 0, 0, 0, 0, 0, 0, 0, 0, 0, 1]",[],horizontal,"(890.0, 762.0)",,fix_phase,0,6534.109
5,False,274,target,"[(38, 526), (330, 523), (993, 838), (186, 523), (1074, 885)]",[],"[0, 0, 0, 0, 1]",[0.55],vertical,"(890.0, 262.0)",1.4333333333333333,0.505,1,6553.046
5,False,275,target,"[(1059, 906)]",[],[1],[],vertical,"(890.0, 762.0)",,cti_phase,0,6560.114
5,False,276,target,"[(1094, 912)]",[],[1],[],vertical,"(890.0, 262.0)",,fix_phase,0,6563.987
5,False,277,target,"[(1076, 911)]","[(1066, 917)]",[1],[0.3],vertical,"(390.0, 762.0)",,bar_phase,0,6566.091
5,False,278,catch,"[(451, 605), (499, 170), (358, 547), (386, 447), (751, 581), (500, 562), (717, 715), (998, 451), (758, 581), (433, 934), (277, 576), (1081, 891)]",[],"[0, 0, 0, 0, 0, 0, 0, 0, 0, 0, 0, 1]",[],vertical,"(890.0, 762.0)",,cti_phase,0,6568.915
5,False,279,target,"[(1089, 891)]",[],[1],[],horizontal,"(390.0, 262.0)",,cti_phase,0,6582.475
5,False,280,target,"[(458, 571), (1080, 889)]",[],"[0, 1]",[],horizontal,"(390.0, 762.0)",,cti_phase,0,6586.596
5,False,281,target,"[(1081, 890)]","[(1046, 889)]",[1],[0.8],horizontal,"(890.0, 262.0)",,bar_phase,0,6591.236
5,False,282,target,"[(146, 571), (223, 700), (441, 568), (219, 695), (436, 256), (397, 261), (1088, 907)]",[],"[0, 0, 0, 0, 0, 0, 1]",[0.5333333333333333],horizontal,"(890.0, 762.0)",0.8,0.495,1,6594.784
5,False,283,target,"[(1081, 896)]",[],[1],[0.55],vertical,"(390.0, 762.0)",1.4333333333333333,0.511,1,6636.858
5,False,284,target,"[(1082, 891)]",[],[1],[0.85],vertical,"(890.0, 262.0)",1.0,nan,0,6641.53
5,False,285,catch,"[(1070, 896)]",[],[1],[0.45],horizontal,"(390.0, 762.0)",0.5333333333333333,nan,1,6646.539
5,False,286,catch,"[(461, 886), (1080, 919)]",[],"[0, 1]",[0.45],vertical,"(890.0, 762.0)",1.1,nan,1,6652.597
5,False,287,catch,"[(1081, 896)]",[],[1],[0.45],vertical,"(890.0, 762.0)",0.5166666666666666,nan,1,6762.112
5,False,288,target,"[(1081, 896)]",[],[1],[0.4],horizontal,"(890.0, 262.0)",1.6333333333333333,0.368,1,6766.247
5,False,289,target,"[(1081, 896)]",[],[1],[0.5],vertical,"(390.0, 762.0)",0.55,0.463,1,6775.478
5,False,290,target,"[(1079, 894)]",[],[1],[0.48333333333333334],horizontal,"(390.0, 262.0)",0.6666666666666666,0.448,1,6779.797
5,False,291,target,"[(1077, 232), (1112, 852)]",[],"[0, 1]",[0.85],vertical,"(890.0, 262.0)",0.8333333333333334,nan,0,6784.162
5,False,292,catch,"[(1064, 882)]",[],[1],[0.45],horizontal,"(890.0, 262.0)",0.6833333333333333,nan,1,6794.908
5,False,293,target,"[(1071, 901)]",[],[1],[0.5166666666666666],horizontal,"(390.0, 262.0)",0.6166666666666667,0.477,1,6800.676
5,False,294,target,"[(1109, 895)]",[],[1],[],vertical,"(390.0, 762.0)",,cti_phase,0,6805.396
5,False,295,catch,"[(1094, 866)]",[],[1],[0.45],horizontal,"(890.0, 762.0)",0.5333333333333333,nan,1,6809.564
5,False,296,target,"[(1109, 902)]",[],[1],[0.5333333333333333],vertical,"(890.0, 762.0)",0.9,0.495,1,6813.416
5,False,297,target,"[(1082, 908)]",[],[1],[0.23333333333333334],horizontal,"(390.0, 262.0)",1.3166666666666667,0.198,1,6818.044
5,False,298,target,"[(1076, 889)]",[],[1],[0.26666666666666666],horizontal,"(390.0, 262.0)",1.0166666666666666,0.231,1,6822.494
5,False,299,target,"[(1076, 894)]",[],[1],[0.48333333333333334],horizontal,"(390.0, 762.0)",1.05,0.448,1,6827.045
5,False,300,target,"[(1095, 886)]",[],[1],[0.18333333333333332],vertical,"(890.0, 762.0)",1.4666666666666666,0.153,1,6831.807
6,False,301,target,"[(1095, 885)]",[],[1],[0.4666666666666667],vertical,"(890.0, 262.0)",1.2333333333333334,0.425,1,6836.35
6,False,302,target,"[(1081, 888)]",[],[1],[],horizontal,"(890.0, 262.0)",,cti_phase,0,6841.387
6,False,303,target,"[(1081, 898)]",[],[1],[0.4666666666666667],horizontal,"(890.0, 262.0)",0.9333333333333333,0.423,1,6846.362
6,False,304,catch,"[(1076, 896)]",[],[1],[0.45],vertical,"(890.0, 262.0)",1.3166666666666667,nan,1,6851.194
6,False,305,target,"[(1077, 881)]",[],[1],[0.6833333333333333],vertical,"(390.0, 262.0)",0.5833333333333334,0.642,1,6856.365
6,False,306,target,"[(1078, 896)]",[],[1],[0.5],vertical,"(390.0, 262.0)",0.7,0.462,1,6860.625
6,False,307,target,"[(1077, 902)]",[],[1],[0.5],horizontal,"(890.0, 762.0)",0.6,0.462,1,6865.051
6,False,308,target,"[(1075, 872)]",[],[1],[0.55],horizontal,"(390.0, 762.0)",0.5333333333333333,0.505,1,6869.415
6,False,309,catch,"[(1077, 896)]",[],[1],[0.45],vertical,"(890.0, 762.0)",0.6833333333333333,nan,1,6873.147
6,False,310,target,"[(1081, 886)]",[],[1],[0.5166666666666666],horizontal,"(390.0, 762.0)",0.5333333333333333,0.472,1,6877.193
6,False,311,catch,"[(1112, 901)]",[],[1],[],horizontal,"(390.0, 262.0)",,cti_phase,0,6881.428
6,False,312,target,"[(1080, 888)]",[],[1],[0.43333333333333335],vertical,"(890.0, 762.0)",1.3166666666666667,0.395,1,6886.043
6,False,313,target,"[(1068, 895)]",[],[1],[0.5],vertical,"(890.0, 762.0)",1.0,0.462,1,6890.55
6,False,314,target,"[(1072, 898)]",[],[1],[0.55],vertical,"(890.0, 262.0)",1.0666666666666667,0.507,1,6895.526
6,False,315,target,"[(1088, 906)]",[],[1],[0.5666666666666667],horizontal,"(390.0, 262.0)",0.6333333333333333,0.525,1,6900.209
6,False,316,target,"[(1095, 906)]",[],[1],[0.85],horizontal,"(890.0, 262.0)",1.5,"cti_phase,nan",0,6904.454
6,False,317,target,"[(1076, 912)]",[],[1],[0.5166666666666666],horizontal,"(390.0, 262.0)",0.7833333333333333,0.475,1,6909.767
6,False,318,target,"[(1081, 872)]",[],[1],[0.5666666666666667],horizontal,"(890.0, 762.0)",0.65,0.527,1,6914.863
6,False,319,target,"[(1086, 901)]",[],[1],[0.55],vertical,"(390.0, 762.0)",1.0,0.516,1,6919.177
6,False,320,target,"[(1086, 907)]",[],[1],[0.48333333333333334],horizontal,"(890.0, 262.0)",0.5,0.443,1,6924.097
6,False,321,catch,"[(1080, 899)]",[],[1],[0.45],vertical,"(390.0, 262.0)",1.2666666666666666,nan,1,6928.595
6,False,322,target,"[(1091, 888)]",[],[1],[0.5],vertical,"(390.0, 262.0)",1.2166666666666666,0.458,1,6933.109
6,False,323,catch,"[(1081, 891)]",[],[1],[0.45],horizontal,"(390.0, 762.0)",0.9666666666666667,nan,1,6938.358
6,False,324,target,"[(1104, 901)]",[],[1],[0.5166666666666666],vertical,"(390.0, 262.0)",1.0666666666666667,0.475,1,6943.026
6,False,325,catch,"[(1081, 899)]",[],[1],[0.45],vertical,"(390.0, 762.0)",0.5333333333333333,nan,1,6947.804
6,False,326,target,"[(1077, 909)]",[],[1],[0.85],horizontal,"(890.0, 762.0)",1.6333333333333333,nan,0,6951.645
6,False,327,target,"[(1070, 902)]",[],[1],[0.85],vertical,"(390.0, 762.0)",0.6833333333333333,nan,0,6958.193
6,False,328,target,"[(1057, 905)]",[],[1],[0.48333333333333334],vertical,"(390.0, 262.0)",1.15,0.444,1,7065.331
6,False,329,catch,"[(1063, 906)]",[],[1],[0.45],vertical,"(390.0, 762.0)",0.6166666666666667,nan,1,7076.615
6,False,330,target,"[(1092, 909)]",[],[1],[0.48333333333333334],horizontal,"(890.0, 762.0)",0.7833333333333333,0.449,1,7081.014
6,False,331,catch,"[(1058, 938)]",[],[1],[0.45],vertical,"(390.0, 762.0)",1.2,nan,1,7108.276
6,False,332,target,"[(1061, 912)]",[],[1],[0.85],vertical,"(890.0, 762.0)",1.25,nan,0,7112.959
6,False,333,target,"[(1041, 907)]",[],[1],[0.6166666666666667],vertical,"(390.0, 762.0)",0.9166666666666666,0.575,1,7118.393
6,False,334,target,"[(1056, 919)]",[],[1],[0.5833333333333334],vertical,"(390.0, 262.0)",0.95,0.543,1,7123.648
6,False,335,target,"[(1038, 908)]",[],[1],[0.6],horizontal,"(390.0, 762.0)",1.25,0.558,1,7128.472
6,False,336,catch,"[(1044, 909)]",[],[1],[0.45],horizontal,"(890.0, 762.0)",1.05,nan,1,7133.401
6,False,337,target,"[(1077, 890)]",[],[1],[0.5333333333333333],horizontal,"(890.0, 762.0)",0.8166666666666667,0.488,1,7137.866
6,False,338,target,"[(1075, 874)]",[],[1],[0.5666666666666667],vertical,"(890.0, 262.0)",0.6166666666666667,0.524,1,7142.252
6,False,339,target,"[(1075, 898)]",[],[1],[0.55],horizontal,"(390.0, 262.0)",0.9166666666666666,0.508,1,7146.227
6,False,340,target,"[(1072, 904)]",[],[1],[0.55],horizontal,"(890.0, 762.0)",0.85,0.511,1,7150.732
6,False,341,target,"[(1071, 902)]",[],[1],[0.5166666666666666],vertical,"(390.0, 262.0)",0.7,0.475,1,7155.059
6,False,342,target,"[(1092, 901)]",[],[1],[],vertical,"(390.0, 762.0)",,cti_phase,0,7159.579
6,False,343,target,"[(1081, 880)]",[],[1],[0.5333333333333333],vertical,"(390.0, 262.0)",0.5166666666666666,0.493,1,7164.218
6,False,344,target,"[(1092, 893)]",[],[1],[0.5166666666666666],vertical,"(890.0, 262.0)",0.5333333333333333,0.475,1,7168.726
6,False,345,catch,"[(1075, 896)]",[],[1],[0.45],vertical,"(890.0, 262.0)",1.5666666666666667,nan,1,7173.282
6,False,346,target,"[(1098, 898)]",[],[1],[],vertical,"(890.0, 262.0)",,cti_phase,0,7178.428
6,False,347,target,"[(1075, 893)]",[],[1],[0.4166666666666667],horizontal,"(390.0, 262.0)",1.6,0.377,1,7182.846
6,False,348,target,"[(1090, 900)]",[],[1],[0.5],vertical,"(890.0, 762.0)",1.1166666666666667,0.456,1,7188.602
6,False,349,target,"[(1077, 901)]",[],[1],[0.85],vertical,"(890.0, 762.0)",0.8333333333333334,nan,0,7193.269
6,False,350,catch,"[(1075, 897)]",[],[1],[0.45],horizontal,"(890.0, 762.0)",0.9166666666666666,nan,1,7197.638
6,False,351,target,"[(1077, 880)]",[],[1],[0.5833333333333334],vertical,"(390.0, 762.0)",0.6666666666666666,0.543,1,7202.012
6,False,352,target,"[(1094, 894)]",[],[1],[0.45],vertical,"(890.0, 762.0)",0.9333333333333333,0.41,1,7206.665
6,False,353,target,"[(1093, 908)]",[],[1],[0.7166666666666667],vertical,"(890.0, 262.0)",1.1333333333333333,0.675,1,7210.878
6,False,354,target,"[(1102, 869)]",[],[1],[],vertical,"(890.0, 762.0)",,cti_phase,0,7215.693
6,False,355,target,"[(1077, 905)]",[],[1],[0.48333333333333334],horizontal,"(890.0, 762.0)",1.3333333333333333,0.445,1,7263.215
6,False,356,target,"[(1066, 905)]",[],[1],[0.18333333333333332],horizontal,"(390.0, 262.0)",1.05,0.15,1,7268.116
6,False,357,target,"[(1077, 906)]",[],[1],[],horizontal,"(390.0, 262.0)",,cti_phase,0,7272.352
6,False,358,target,"[(1109, 905)]",[],[1],[0.4666666666666667],vertical,"(890.0, 262.0)",0.85,0.425,1,7276.226
6,False,359,catch,"[(1078, 891)]",[],[1],[0.45],horizontal,"(390.0, 262.0)",0.5666666666666667,nan,1,7280.653
6,False,360,target,"[(1074, 886)]",[],[1],[0.4166666666666667],horizontal,"(890.0, 762.0)",1.1333333333333333,0.382,1,7284.457
7,False,361,catch,"[(1088, 900)]",[],[1],[],horizontal,"(390.0, 262.0)",,cti_phase,0,7289.262
7,False,362,target,"[(1076, 878)]",[],[1],[0.36666666666666664],vertical,"(390.0, 262.0)",1.25,0.328,1,7293.778
7,False,363,catch,"[(1076, 909)]",[],[1],[0.45],vertical,"(890.0, 762.0)",0.8166666666666667,nan,1,7298.716
7,False,364,catch,"[(1076, 892)]",[],[1],[0.45],horizontal,"(890.0, 262.0)",1.0666666666666667,nan,1,7303.481
7,False,365,target,"[(1076, 902)]",[],[1],[0.5],horizontal,"(390.0, 762.0)",0.6833333333333333,0.457,1,7308.098
7,False,366,target,"[(1077, 902)]",[],[1],[0.4666666666666667],vertical,"(390.0, 262.0)",1.1333333333333333,0.429,1,7312.848
7,False,367,catch,"[(1075, 903)]",[],[1],[0.3],vertical,"(890.0, 262.0)",1.3666666666666667,0.267,0,7317.621
7,False,368,target,"[(1069, 896)]",[],[1],[0.43333333333333335],horizontal,"(390.0, 262.0)",1.45,0.395,1,7323.061
7,False,369,target,"[(1069, 905)]",[],[1],[],vertical,"(390.0, 262.0)",,cti_phase,0,7335.091
7,False,370,target,"[(1075, 879)]",[],[1],[0.4666666666666667],vertical,"(890.0, 262.0)",1.35,0.434,1,7339.462
7,False,371,target,"[(1077, 909)]",[],[1],[0.11666666666666667],horizontal,"(390.0, 762.0)",1.5666666666666667,0.084,1,7345.462
7,False,372,target,"[(1077, 903)]",[],[1],[0.55],vertical,"(390.0, 262.0)",0.5,0.508,1,7350.35
7,False,373,target,"[(1078, 901)]",[],[1],[0.5],vertical,"(390.0, 262.0)",1.2,0.465,1,7354.234
7,False,374,catch,"[(1095, 897)]",[],[1],[0.45],horizontal,"(390.0, 762.0)",0.5833333333333334,nan,1,7358.878
7,False,375,catch,"[(1075, 862)]",[],[1],[0.3833333333333333],horizontal,"(890.0, 762.0)",1.5833333333333333,0.349,0,7364.027
7,False,376,target,"[(1072, 901)]",[],[1],[0.5166666666666666],horizontal,"(390.0, 762.0)",0.65,0.486,1,7378.376
7,False,377,target,"[(1077, 906)]",[],[1],[],vertical,"(890.0, 762.0)",,cti_phase,0,7383.382
7,False,378,catch,"[(1077, 890)]",[],[1],[0.45],vertical,"(890.0, 762.0)",0.55,nan,1,7387.898
7,False,379,target,"[(1080, 888)]",[],[1],[0.5],horizontal,"(890.0, 762.0)",1.4333333333333333,0.457,1,7392.614
7,False,380,target,"[(1079, 904)]",[],[1],[0.5166666666666666],horizontal,"(890.0, 262.0)",1.0,0.479,1,7398.609
7,False,381,target,"[(1074, 912)]",[],[1],[0.5333333333333333],vertical,"(390.0, 762.0)",0.5166666666666666,0.496,1,7403.547
7,False,382,target,"[(1075, 912)]",[],[1],[0.5166666666666666],vertical,"(890.0, 762.0)",1.1166666666666667,0.478,1,7407.523
7,False,383,catch,"[(1077, 911)]",[],[1],[0.45],horizontal,"(890.0, 762.0)",0.9333333333333333,nan,1,7411.815
7,False,384,target,"[(1075, 901)]",[],[1],[0.45],horizontal,"(390.0, 762.0)",1.15,0.411,1,7416.364
7,False,385,target,"[(1071, 907)]",[],[1],[0.5],vertical,"(390.0, 762.0)",1.1666666666666667,0.466,1,7421.092
7,False,386,target,"[(1076, 891)]",[],[1],[0.5166666666666666],vertical,"(390.0, 762.0)",0.9666666666666667,0.479,1,7425.345
7,False,387,target,"[(1077, 892)]",[],[1],[0.5333333333333333],horizontal,"(390.0, 262.0)",1.2833333333333332,0.502,1,7429.88
7,False,388,target,"[(1076, 894)]",[],[1],[0.48333333333333334],vertical,"(390.0, 762.0)",0.8166666666666667,0.438,1,7434.405
7,False,389,catch,"[(1107, 893)]",[],[1],[0.45],vertical,"(390.0, 762.0)",0.5,nan,1,7438.241
7,False,390,target,"[(1090, 893)]",[],[1],[0.4666666666666667],vertical,"(390.0, 262.0)",1.3666666666666667,0.429,1,7441.96
7,False,391,target,"[(1077, 892)]",[],[1],[0.5166666666666666],horizontal,"(890.0, 262.0)",0.6666666666666666,0.472,1,7447.12
7,False,392,target,"[(1075, 892)]",[],[1],[0.55],horizontal,"(390.0, 762.0)",1.5166666666666666,0.51,1,7451.615
7,False,393,target,"[(1075, 888)]",[],[1],[0.5333333333333333],vertical,"(390.0, 262.0)",0.6,0.49,1,7456.382
7,False,394,target,"[(1107, 891)]","[(1049, 897)]",[1],[0.4166666666666667],horizontal,"(390.0, 262.0)",,bar_phase,0,7460.89
7,False,395,target,"[(1077, 891)]",[],[1],[],vertical,"(390.0, 762.0)",,cti_phase,0,7464.148
7,False,396,catch,"[(1092, 888)]","[(1051, 885)]",[1],[0.4],horizontal,"(390.0, 762.0)",,bar_phase,0,7469.123
7,False,397,target,"[(1090, 888)]",[],[1],[0.5833333333333334],vertical,"(390.0, 762.0)",0.7833333333333333,0.541,1,7472.243
7,False,398,target,"[(1076, 902)]",[],[1],[0.23333333333333334],horizontal,"(890.0, 762.0)",1.5166666666666666,0.2,1,7477.101
7,False,399,target,"[(1075, 894)]",[],[1],[0.5166666666666666],vertical,"(390.0, 762.0)",0.9666666666666667,0.478,1,7481.881
7,False,400,target,"[(1077, 885)]",[],[1],[],vertical,"(390.0, 762.0)",,cti_phase,0,7486.661
7,False,401,catch,"[(1102, 888)]",[],[1],[0.45],vertical,"(390.0, 762.0)",0.8666666666666667,nan,1,7491.042
7,False,402,target,"[(1076, 899)]",[],[1],[0.5],vertical,"(390.0, 262.0)",0.75,0.46,1,7495.815
7,False,403,catch,"[(1075, 910)]",[],[1],[0.45],horizontal,"(390.0, 762.0)",0.6666666666666666,nan,1,7500.491
7,False,404,target,"[(1076, 888)]",[],[1],[0.45],vertical,"(390.0, 262.0)",1.35,0.411,1,7504.715
7,False,405,target,"[(1090, 889)]",[],[1],[0.21666666666666667],horizontal,"(390.0, 262.0)",1.35,0.183,1,7510.009
7,False,406,catch,"[(1105, 882)]",[],[1],[0.45],horizontal,"(390.0, 762.0)",0.5666666666666667,nan,1,7514.527
7,False,407,target,"[(1100, 886)]",[],[1],[0.6333333333333333],horizontal,"(390.0, 262.0)",0.7833333333333333,0.59,1,7518.85
7,False,408,catch,"[(1088, 894)]","[(1070, 897)]",[1],[0.36666666666666664],horizontal,"(390.0, 762.0)",,bar_phase,0,7523.107
7,False,409,target,"[(1076, 895)]",[],[1],[0.45],vertical,"(390.0, 262.0)",1.2333333333333334,0.416,1,7525.959
7,False,410,target,"[(1076, 894)]",[],[1],[0.4666666666666667],horizontal,"(890.0, 262.0)",0.7833333333333333,0.429,1,7531.646
7,False,411,target,"[(1127, 895)]",[],[1],[],vertical,"(390.0, 262.0)",,cti_phase,0,7536.249
7,False,412,target,"[(1066, 901)]",[],[1],[0.35],horizontal,"(890.0, 762.0)",0.9833333333333333,0.313,1,7539.295
7,False,413,target,"[(1070, 918)]",[],[1],[0.43333333333333335],vertical,"(890.0, 262.0)",1.15,0.398,1,7552.146
7,False,414,catch,"[(1075, 896)]",[],[1],[0.45],vertical,"(890.0, 262.0)",0.5666666666666667,nan,1,7556.677
7,False,415,target,"[(1103, 891)]",[],[1],[0.5166666666666666],vertical,"(890.0, 262.0)",0.7,0.47,1,7560.961
7,False,416,target,"[(1102, 905)]",[],[1],[0.5666666666666667],horizontal,"(890.0, 762.0)",0.6666666666666666,0.519,1,7565.247
7,False,417,target,"[(1077, 915)]",[],[1],[0.5666666666666667],vertical,"(890.0, 262.0)",0.7333333333333333,0.526,1,7569.486
7,False,418,target,"[(1076, 901)]",[],[1],[0.5],vertical,"(890.0, 762.0)",0.7333333333333333,0.461,1,7574.112
7,False,419,target,"[(1076, 892)]",[],[1],[],vertical,"(390.0, 262.0)",,cti_phase,0,7578.16
7,False,420,target,"[(1109, 874)]",[],[1],[0.5],horizontal,"(390.0, 762.0)",0.6333333333333333,0.468,1,7583.899
8,False,421,target,"[(1076, 916)]",[],[1],[0.45],horizontal,"(890.0, 762.0)",0.95,0.41,1,7587.92
8,False,422,catch,"[(1075, 909)]",[],[1],[0.45],vertical,"(890.0, 262.0)",1.6666666666666667,nan,1,7592.738
8,False,423,catch,"[(1098, 905)]",[],[1],[0.45],vertical,"(390.0, 762.0)",1.4666666666666666,nan,1,7597.821
8,False,424,target,"[(429, 525), (432, 172), (785, 657), (771, 399), (389, 445), (514, 519), (664, 213), (948, 352), (266, 528), (882, 161), (635, 739), (938, 165), (242, 154), (242, 265), (256, 485), (441, 156), (383, 182), (389, 282), (940, 435), (1075, 304), (78, 352), (708, 275), (823, 232), (165, 185), (867, 275), (151, 304), (746, 434), (911, 317), (248, 396), (620, 334), (309, 180), (277, 432), (853, 824), (288, 471), (267, 323), (865, 886), (257, 872), (1003, 275), (694, 204), (102, 456), (950, 271), (620, 425), (923, 318), (407, 682), (475, 265), (638, 366), (627, 552), (582, 473), (625, 915), (1210, 547), (1095, 491), (707, 397), (1124, 566), (1177, 504), (809, 576), (828, 462), (678, 471), (717, 509), (1075, 830)]",[],"[0, 0, 0, 0, 0, 0, 0, 0, 0, 0, 0, 0, 0, 0, 0, 0, 0, 0, 0, 0, 0, 0, 0, 0, 0, 0, 0, 0, 0, 0, 0, 0, 0, 0, 0, 0, 0, 0, 0, 0, 0, 0, 0, 0, 0, 0, 0, 0, 0, 0, 0, 0, 0, 0, 0, 0, 0, 0, 1]",[],vertical,"(390.0, 762.0)",,fix_phase,0,7602.577
8,False,425,target,"[(1143, 516), (688, 516), (688, 562), (1037, 468), (1158, 527), (635, 530), (1167, 531), (1153, 615), (1124, 542), (427, 323), (1125, 914)]",[],"[0, 0, 0, 0, 0, 0, 0, 0, 0, 0, 1]",[0.2833333333333333],vertical,"(890.0, 262.0)",0.8333333333333334,0.251,1,7711.312
8,False,426,target,"[(1071, 900)]",[],[1],[0.85],vertical,"(890.0, 762.0)",1.4833333333333334,"cti_phase,nan",0,8543.114
8,False,427,target,"[(1052, 905)]",[],[1],[],vertical,"(390.0, 262.0)",,cti_phase,0,8548.28
8,False,428,target,"[(1102, 903)]",[],[1],[0.6833333333333333],vertical,"(890.0, 262.0)",1.6,0.636,1,8553.261
8,False,429,target,"[(1075, 904)]",[],[1],[0.85],horizontal,"(390.0, 762.0)",0.5833333333333334,nan,0,8559.546
8,False,430,target,"[(1075, 905)]",[],[1],[0.4],horizontal,"(890.0, 262.0)",1.15,0.367,1,8563.75
8,False,431,target,"[(1075, 901)]",[],[1],[0.48333333333333334],horizontal,"(890.0, 262.0)",1.2666666666666666,0.449,1,8568.22
8,False,432,catch,"[(1075, 888)]",[],[1],[0.45],horizontal,"(890.0, 762.0)",0.6833333333333333,nan,1,8573.096
8,False,433,target,"[(1085, 905)]",[],[1],[0.85],vertical,"(390.0, 762.0)",1.25,nan,0,8577.081
8,False,434,catch,"[(1077, 913)]",[],[1],[0.45],horizontal,"(390.0, 262.0)",1.0666666666666667,nan,1,8611.982
8,False,435,target,"[(1082, 911)]",[],[1],[0.85],vertical,"(390.0, 762.0)",0.7666666666666666,nan,0,8623.133
8,False,436,target,"[(902, 708), (1128, 838)]",[],"[0, 1]",[0.36666666666666664],vertical,"(890.0, 762.0)",0.7166666666666667,0.333,1,8639.05
8,False,437,target,"[(787, 137), (457, 557), (443, 270), (433, 285), (17, 282), (350, 122), (359, 230), (354, 242), (359, 275), (49, 241), (286, 245), (1206, 241), (1255, 251), (1066, 864)]",[],"[0, 0, 0, 0, 0, 0, 0, 0, 0, 0, 0, 0, 0, 1]",[0.65],horizontal,"(890.0, 262.0)",0.85,0.602,1,9450.321
8,False,438,target,"[(1163, 815)]","[(1162, 826)]",[1],[0.03333333333333333],horizontal,"(890.0, 262.0)",,bar_phase,0,9669.733
8,False,439,target,"[(1199, 943)]",[],[1],[],horizontal,"(390.0, 262.0)",,fix_phase,0,9674.469
8,False,440,target,"[(1148, 831)]",[],[1],[],vertical,"(890.0, 262.0)",,fix_phase,0,9676.444
8,False,441,target,"[(1216, 878)]",[],[1],[],horizontal,"(390.0, 262.0)",,fix_phase,0,9678.66
8,False,442,target,"[(1202, 939)]","[(1202, 939)]",[1],[0.3],vertical,"(390.0, 262.0)",,bar_phase,0,9680.56
8,False,443,catch,"[(1162, 910)]",[],[1],[],vertical,"(890.0, 262.0)",,fix_phase,0,9690.234
8,False,444,target,"[(964, 912), (1197, 932)]","[(1192, 924)]","[0, 1]",[0.08333333333333333],horizontal,"(390.0, 762.0)",,bar_phase,0,9694.029
8,False,445,target,"[(1230, 991), (998, 767), (945, 910), (1081, 883)]",[],"[0, 0, 0, 1]",[0.1],vertical,"(890.0, 262.0)",1.6166666666666667,0.068,1,9711.607
8,False,446,target,"[(1067, 894)]",[],[1],[0.5166666666666666],vertical,"(390.0, 762.0)",0.7666666666666666,0.48,1,10057.203
8,False,447,target,"[(1094, 891)]",[],[1],[],horizontal,"(890.0, 262.0)",,cti_phase,0,10061.732
8,False,448,catch,"[(1090, 896)]",[],[1],[0.45],horizontal,"(390.0, 762.0)",0.5833333333333334,nan,1,10065.918
8,False,449,target,"[(1093, 904)]",[],[1],[0.48333333333333334],horizontal,"(890.0, 262.0)",0.6,0.442,1,10070.126
8,False,450,target,"[(1084, 865)]",[],[1],[0.3],vertical,"(890.0, 262.0)",1.2666666666666666,0.268,1,10074.6
8,False,451,target,"[(1104, 898)]",[],[1],[0.2833333333333333],vertical,"(390.0, 762.0)",0.8333333333333334,0.246,1,10085.999
8,False,452,catch,"[(1081, 877)]",[],[1],[0.45],horizontal,"(390.0, 262.0)",0.6,nan,1,10090.431
8,False,453,catch,"[(1090, 893)]",[],[1],[0.2833333333333333],vertical,"(890.0, 762.0)",1.25,0.245,0,10094.403
8,False,454,target,"[(1078, 863)]",[],[1],[0.6333333333333333],vertical,"(390.0, 262.0)",0.8,0.588,1,10098.964
8,False,455,target,"[(1100, 876)]","[(1092, 887)]",[1],[0.06666666666666667],horizontal,"(390.0, 762.0)",,bar_phase,0,10103.469
8,False,456,target,"[(1085, 888)]",[],[1],[0.26666666666666666],horizontal,"(390.0, 262.0)",0.8833333333333333,0.235,1,10105.861
8,False,457,catch,"[(1114, 906)]",[],[1],[],horizontal,"(890.0, 762.0)",,cti_phase,0,10110.404
8,False,458,catch,"[(1071, 902)]",[],[1],[0.45],vertical,"(890.0, 762.0)",0.9666666666666667,nan,1,10114.033
8,False,459,catch,"[(1090, 897)]",[],[1],[],horizontal,"(390.0, 262.0)",,cti_phase,0,10118.813
8,False,460,catch,"[(1103, 891)]",[],[1],[],horizontal,"(390.0, 262.0)",,cti_phase,0,10123.33
8,False,461,catch,"[(1090, 886)]",[],[1],[],vertical,"(390.0, 762.0)",,cti_phase,0,10128.526
8,False,462,catch,"[(1095, 891)]","[(1102, 888)]",[1],[0.06666666666666667],horizontal,"(390.0, 762.0)",,bar_phase,0,10135.725
8,False,463,catch,"[(1105, 853)]",[],[1],[],vertical,"(390.0, 762.0)",,cti_phase,0,10139.352
8,False,464,catch,"[(1089, 887)]",[],[1],[],vertical,"(390.0, 262.0)",,cti_phase,0,10155.74
8,False,465,catch,"[(1095, 869)]",[],[1],[0.45],horizontal,"(390.0, 262.0)",0.5,nan,1,10161.004
8,False,466,target,"[(1110, 875)]",[],[1],[0.4666666666666667],horizontal,"(390.0, 762.0)",0.8166666666666667,0.427,1,10164.865
8,False,467,target,"[(1096, 896)]",[],[1],[0.5666666666666667],vertical,"(890.0, 762.0)",0.7333333333333333,0.53,1,10168.801
8,False,468,target,"[(1093, 898)]",[],[1],[0.5],vertical,"(890.0, 262.0)",0.5833333333333334,0.457,1,10173.056
8,False,469,target,"[(1098, 890)]",[],[1],[0.13333333333333333],horizontal,"(390.0, 762.0)",1.0833333333333333,0.102,1,10176.876
8,False,470,target,"[(1095, 902)]",[],[1],[],vertical,"(390.0, 262.0)",,cti_phase,0,10180.881
8,False,471,target,"[(1095, 896)]",[],[1],[0.4666666666666667],vertical,"(890.0, 762.0)",0.8666666666666667,0.428,1,10185.41
8,False,472,target,"[(1080, 909)]",[],[1],[0.85],horizontal,"(890.0, 762.0)",1.5833333333333333,"cti_phase,nan",0,10189.523
8,False,473,target,"[(1090, 844)]",[],[1],[0.48333333333333334],horizontal,"(890.0, 762.0)",1.15,0.441,1,10194.951
8,False,474,catch,"[(1098, 891)]",[],[1],[0.45],horizontal,"(890.0, 262.0)",0.8333333333333334,nan,1,10199.918
8,False,475,target,"[(1098, 880)]",[],[1],[],horizontal,"(390.0, 262.0)",,cti_phase,0,10204.025
8,False,476,target,"[(1095, 889)]",[],[1],[0.45],horizontal,"(390.0, 762.0)",0.85,0.415,1,10209.527
8,False,477,target,"[(1095, 903)]",[],[1],[0.15],vertical,"(390.0, 762.0)",1.1833333333333333,0.12,1,10213.914
8,False,478,target,"[(1087, 896)]",[],[1],[0.45],horizontal,"(890.0, 762.0)",1.3,0.407,1,10218.347
8,False,479,target,"[(1100, 905)]",[],[1],[0.3],horizontal,"(390.0, 762.0)",1.2833333333333332,0.272,1,10223.198
8,False,480,target,"[(1100, 899)]",[],[1],[0.5333333333333333],vertical,"(890.0, 262.0)",0.7,0.492,1,10228.167
9,False,481,target,"[(1109, 893)]",[],[1],[],horizontal,"(890.0, 262.0)",,cti_phase,0,10232.918
9,False,482,catch,"[(1110, 888)]",[],[1],[0.45],vertical,"(390.0, 262.0)",1.0666666666666667,nan,1,10237.735
9,False,483,target,"[(1097, 895)]",[],[1],[0.2],horizontal,"(890.0, 262.0)",1.5333333333333332,0.165,1,10242.553
9,False,484,target,"[(1134, 881)]",[],[1],[],horizontal,"(390.0, 762.0)",,cti_phase,0,10248.595
9,False,485,target,"[(1108, 863)]",[],[1],[0.5333333333333333],vertical,"(390.0, 762.0)",0.5666666666666667,0.499,1,10253.303
9,False,486,catch,"[(1101, 891)]",[],[1],[0.45],vertical,"(390.0, 762.0)",0.7666666666666666,nan,1,10257.672
9,False,487,catch,"[(1076, 891)]",[],[1],[0.45],vertical,"(890.0, 262.0)",0.5166666666666666,nan,1,10262.336
9,False,488,target,"[(1102, 891)]",[],[1],[],horizontal,"(390.0, 762.0)",,cti_phase,0,10266.346
9,False,489,target,"[(1104, 863)]",[],[1],[0.2833333333333333],horizontal,"(890.0, 262.0)",1.3833333333333333,0.247,1,10271.033
9,False,490,target,"[(1100, 887)]",[],[1],[0.45],horizontal,"(890.0, 262.0)",0.8833333333333333,0.406,1,10275.653
9,False,491,target,"[(1095, 896)]",[],[1],[0.05],horizontal,"(390.0, 262.0)",1.2833333333333332,0.02,1,10280.185
9,False,492,target,"[(1084, 895)]",[],[1],[0.6],vertical,"(890.0, 762.0)",0.5833333333333334,0.565,1,10284.283
9,False,493,target,"[(1090, 886)]",[],[1],[],horizontal,"(390.0, 262.0)",,cti_phase,0,10288.931
9,False,494,target,"[(1073, 883)]",[],[1],[0.48333333333333334],vertical,"(390.0, 262.0)",0.75,0.445,1,10293.019
9,False,495,catch,"[(1078, 891)]",[],[1],[0.3833333333333333],vertical,"(890.0, 262.0)",1.0,0.348,0,10298.36
9,False,496,target,"[(1102, 867)]",[],[1],[0.48333333333333334],horizontal,"(390.0, 762.0)",0.7166666666666667,0.441,1,10302.701
9,False,497,target,"[(1090, 900)]",[],[1],[0.2],vertical,"(890.0, 262.0)",1.4166666666666667,0.169,1,10307.193
9,False,498,catch,"[(1085, 886)]",[],[1],[0.45],horizontal,"(890.0, 262.0)",1.0333333333333332,nan,1,10312.116
9,False,499,target,"[(1076, 896)]",[],[1],[],vertical,"(390.0, 262.0)",,cti_phase,0,10316.858
9,False,500,catch,"[(1077, 861)]",[],[1],[0.45],vertical,"(890.0, 262.0)",0.55,nan,1,10322.294
9,False,501,target,"[(1076, 872)]",[],[1],[0.85],vertical,"(890.0, 762.0)",1.3,nan,0,10326.621
9,False,502,target,"[(833, 313), (903, 494), (853, 79), (853, 905), (959, 919), (843, 891), (854, 924), (902, 924), (834, 962), (877, 850), (861, 870), (793, 303), (882, 876), (895, 928), (859, 444), (872, 878), (869, 901), (1012, 916)]",[],"[0, 0, 0, 0, 0, 0, 0, 0, 0, 0, 0, 0, 0, 0, 0, 0, 0, 1]",[],horizontal,"(390.0, 762.0)",,fix_phase,0,10332.15
9,False,503,target,"[(957, 867), (1091, 890)]",[],"[0, 1]",[],horizontal,"(890.0, 762.0)",,fix_phase,0,10346.748
9,False,504,target,"[(979, 924), (1027, 870)]",[],"[0, 1]",[0.23333333333333334],horizontal,"(890.0, 262.0)",0.55,0.2,1,10348.849
9,False,505,target,"[(906, 495), (887, 509), (871, 499), (587, 958), (858, 490), (875, 970), (1225, 958), (940, 251), (906, 194), (790, 213), (945, 275), (664, 385), (417, 232), (954, 394), (950, 243), (964, 251), (940, 496), (848, 384), (863, 199), (867, 415), (993, 392), (906, 385), (973, 643), (891, 392), (1051, 645), (994, 658), (1065, 394), (998, 328), (814, 396), (697, 547), (826, 389), (820, 394), (664, 405), (722, 309), (979, 380), (640, 406), (819, 557), (1062, 218), (830, 757), (1073, 903)]",[],"[0, 0, 0, 0, 0, 0, 0, 0, 0, 0, 0, 0, 0, 0, 0, 0, 0, 0, 0, 0, 0, 0, 0, 0, 0, 0, 0, 0, 0, 0, 0, 0, 0, 0, 0, 0, 0, 0, 0, 1]",[0.4666666666666667],horizontal,"(390.0, 262.0)",0.5666666666666667,0.43,1,10352.856
9,False,506,target,"[(1060, 896)]",[],[1],[],vertical,"(890.0, 762.0)",,cti_phase,0,10397.364
9,False,507,target,"[(1094, 884)]",[],[1],[0.25],horizontal,"(890.0, 262.0)",1.6166666666666667,0.213,1,10402.227
9,False,508,target,"[(1093, 881)]",[],[1],[0.5333333333333333],vertical,"(390.0, 262.0)",1.1333333333333333,0.495,1,10407.063
9,False,509,target,"[(1096, 898)]",[],[1],[0.1],vertical,"(890.0, 262.0)",1.45,0.067,1,10413.702
9,False,510,target,"[(1077, 890)]",[],[1],[],horizontal,"(390.0, 262.0)",,cti_phase,0,10418.35
9,False,511,catch,"[(1093, 905)]",[],[1],[],vertical,"(390.0, 762.0)",,cti_phase,0,10422.019
9,False,512,target,"[(983, 864), (1090, 870)]",[],"[0, 1]",[0.43333333333333335],horizontal,"(890.0, 262.0)",1.2666666666666666,0.394,1,10425.976
9,False,513,target,"[(1104, 909)]",[],[1],[0.7833333333333333],horizontal,"(390.0, 262.0)",0.7,0.74,1,10432.778
9,False,514,catch,"[(1098, 886)]","[(1051, 892)]",[1],[0.5166666666666666],vertical,"(890.0, 762.0)",,bar_phase,0,10437.405
9,False,515,target,"[(1081, 251), (970, 423), (1095, 862)]",[],"[0, 0, 1]",[0.85],horizontal,"(390.0, 262.0)",1.2333333333333334,nan,0,10440.443
9,False,516,target,"[(1099, 873)]",[],[1],[0.55],vertical,"(390.0, 262.0)",1.0833333333333333,0.512,1,10449.444
9,False,517,target,"[(1085, 901)]",[],[1],[0.5166666666666666],vertical,"(390.0, 262.0)",0.5666666666666667,0.474,1,10454.022
9,False,518,target,"[(1075, 902)]",[],[1],[],horizontal,"(390.0, 762.0)",,cti_phase,0,10458.221
9,False,519,catch,"[(649, 733), (1108, 889)]",[],"[0, 1]",[],horizontal,"(390.0, 262.0)",,cti_phase,0,10462.778
9,False,520,target,"[(1103, 870)]",[],[1],[0.85],horizontal,"(890.0, 262.0)",1.55,nan,0,10470.088
9,False,521,target,"[(1093, 864)]",[],[1],[0.5333333333333333],horizontal,"(390.0, 762.0)",0.5333333333333333,0.491,1,10475.868
9,False,522,target,"[(1101, 904)]",[],[1],[0.85],horizontal,"(890.0, 762.0)",1.6166666666666667,nan,0,10480.048
9,False,523,target,"[(1113, 861)]",[],[1],[0.4666666666666667],horizontal,"(890.0, 262.0)",1.4,0.428,1,10485.452
9,False,524,target,"[(1081, 885)]",[],[1],[0.6333333333333333],horizontal,"(390.0, 262.0)",0.8666666666666667,0.591,1,10490.527
9,False,525,target,"[(1094, 855)]",[],[1],[0.85],vertical,"(390.0, 262.0)",0.95,nan,0,10495.575
9,False,526,target,"[(1092, 852)]",[],[1],[0.45],vertical,"(890.0, 762.0)",1.5666666666666667,0.41,1,10500.846
9,False,527,target,"[(1094, 888)]",[],[1],[0.85],horizontal,"(390.0, 762.0)",0.5666666666666667,nan,0,10507.504
9,False,528,catch,"[(1095, 861)]",[],[1],[0.45],horizontal,"(890.0, 762.0)",1.1833333333333333,nan,1,10512.052
9,False,529,catch,"[(1095, 895)]",[],[1],[],horizontal,"(390.0, 262.0)",,cti_phase,0,10516.868
9,False,530,target,"[(1101, 862)]",[],[1],[0.48333333333333334],horizontal,"(890.0, 262.0)",1.4666666666666666,0.444,1,10520.254
9,False,531,target,"[(1085, 899)]",[],[1],[0.6833333333333333],vertical,"(390.0, 262.0)",0.6333333333333333,0.64,1,10525.187
9,False,532,target,"[(1092, 871)]","[(1056, 875)]",[1],[0.36666666666666664],vertical,"(390.0, 262.0)",,bar_phase,0,10529.593
9,False,533,target,"[(1090, 890)]",[],[1],[0.6333333333333333],horizontal,"(890.0, 762.0)",0.7666666666666666,0.591,1,10532.367
9,False,534,target,"[(1095, 905)]",[],[1],[0.55],vertical,"(890.0, 262.0)",0.5666666666666667,0.505,1,10536.966
9,False,535,catch,"[(1101, 896)]","[(1056, 899)]",[1],[0.15],horizontal,"(890.0, 762.0)",,bar_phase,0,10541.317
9,False,536,target,"[(1105, 875)]",[],[1],[0.15],vertical,"(390.0, 762.0)",1.5,0.116,1,10543.831
9,False,537,target,"[(1085, 894)]",[],[1],[0.85],horizontal,"(890.0, 762.0)",0.5,nan,0,10549.453
9,False,538,target,"[(1066, 872)]",[],[1],[0.48333333333333334],vertical,"(890.0, 762.0)",0.7333333333333333,0.439,1,10553.698
9,False,539,target,"[(1095, 886)]",[],[1],[],vertical,"(390.0, 762.0)",,cti_phase,0,10567.21
9,False,540,target,"[(1063, 884)]",[],[1],[0.5],horizontal,"(890.0, 762.0)",0.5833333333333334,0.459,1,10572.043
10,False,541,target,"[(1071, 896)]",[],[1],[],horizontal,"(390.0, 762.0)",,cti_phase,0,10576.036
10,False,542,target,"[(1103, 888)]",[],[1],[0.85],horizontal,"(390.0, 262.0)",0.7666666666666666,nan,0,10580.221
10,False,543,target,"[(1086, 877)]",[],[1],[],vertical,"(390.0, 262.0)",,cti_phase,0,10584.54
10,False,544,target,"[(1003, 876), (1089, 889)]",[],"[0, 1]",[0.4166666666666667],vertical,"(390.0, 262.0)",1.0,0.374,1,10591.63
10,False,545,target,"[(1090, 904)]",[],[1],[0.5166666666666666],vertical,"(890.0, 262.0)",0.7,0.482,1,10603.684
10,False,546,target,"[(1095, 886)]",[],[1],[],vertical,"(890.0, 762.0)",,fix_phase,0,10608.029
10,False,547,target,"[(1134, 852)]",[],[1],[0.5166666666666666],vertical,"(890.0, 262.0)",1.4333333333333333,0.477,1,10610.336
10,False,548,catch,"[(1085, 902)]",[],[1],[],vertical,"(390.0, 262.0)",,cti_phase,0,10615.654
10,False,549,target,"[(1104, 881)]",[],[1],[0.5],vertical,"(890.0, 762.0)",0.9833333333333333,0.459,1,10620.088
10,False,550,target,"[(1094, 870)]",[],[1],[0.2833333333333333],vertical,"(390.0, 262.0)",1.6333333333333333,0.247,1,10624.899
10,False,551,target,"[(1088, 901)]",[],[1],[0.5333333333333333],vertical,"(390.0, 262.0)",0.8333333333333334,0.493,1,10630.167
10,False,552,target,"[(1100, 900)]",[],[1],[0.5],horizontal,"(390.0, 262.0)",0.5333333333333333,0.463,1,10634.363
10,False,553,target,"[(1090, 880)]",[],[1],[0.85],vertical,"(890.0, 262.0)",0.85,nan,0,10638.803
10,False,554,target,"[(1087, 872)]",[],[1],[0.05],horizontal,"(890.0, 762.0)",1.0833333333333333,0.019,1,10643.248
10,False,555,catch,"[(1129, 868)]",[],[1],[0.4],horizontal,"(890.0, 262.0)",1.5833333333333333,0.363,0,10647.249
10,False,556,target,"[(1100, 857)]",[],[1],[0.48333333333333334],horizontal,"(390.0, 762.0)",1.3,0.444,1,10652.84
10,False,557,catch,"[(1072, 891)]",[],[1],[0.45],horizontal,"(890.0, 762.0)",1.2333333333333334,nan,1,10657.698
10,False,558,catch,"[(1083, 883)]",[],[1],[0.13333333333333333],vertical,"(390.0, 262.0)",1.5333333333333332,0.102,0,10662.648
10,False,559,target,"[(1112, 871)]",[],[1],[0.3333333333333333],vertical,"(390.0, 262.0)",1.6333333333333333,0.295,1,10667.14
10,False,560,target,"[(1088, 869)]",[],[1],[0.6666666666666666],vertical,"(890.0, 762.0)",1.05,0.62,1,10671.968
10,False,561,catch,"[(997, 891), (1104, 890)]",[],"[0, 1]",[0.45],vertical,"(890.0, 762.0)",1.2666666666666666,nan,1,10676.802
10,False,562,target,"[(1082, 872)]",[],[1],[0.5166666666666666],horizontal,"(890.0, 762.0)",1.4333333333333333,0.477,1,10688.667
10,False,563,target,"[(1109, 874)]",[],[1],[0.85],vertical,"(390.0, 762.0)",0.85,nan,0,10693.75
10,False,564,target,"[(1103, 871)]","[(1051, 877)]",[1],[0.1],vertical,"(390.0, 762.0)",,bar_phase,0,10698.432
10,False,565,target,"[(1107, 854)]",[],[1],[0.2833333333333333],horizontal,"(390.0, 262.0)",1.5,0.248,1,10700.725
10,False,566,catch,"[(1172, 909)]",[],[1],[0.45],horizontal,"(390.0, 762.0)",0.7,nan,1,10707.047
10,False,567,target,"[(1099, 888)]",[],[1],[0.5333333333333333],vertical,"(890.0, 262.0)",1.2666666666666666,0.49,1,10711.57
10,False,568,catch,"[(1076, 907)]",[],[1],[0.2],vertical,"(890.0, 762.0)",1.5333333333333332,0.165,0,10716.552
10,False,569,target,"[(1086, 864)]",[],[1],[0.8333333333333334],horizontal,"(890.0, 762.0)",1.25,0.788,1,10721.63
10,False,570,target,"[(1098, 876)]",[],[1],[],vertical,"(890.0, 762.0)",,cti_phase,0,10727.102
10,False,571,target,"[(1085, 875)]",[],[1],[],vertical,"(890.0, 262.0)",,cti_phase,0,10730.357
10,False,572,catch,"[(1095, 881)]",[],[1],[0.18333333333333332],horizontal,"(890.0, 262.0)",1.0166666666666666,0.152,0,10735.249
10,False,573,target,"[(1137, 867)]","[(1063, 870)]",[1],[0.45],horizontal,"(890.0, 762.0)",,bar_phase,0,10739.419
10,False,574,target,"[(1109, 874)]",[],[1],[0.5166666666666666],vertical,"(390.0, 762.0)",1.0333333333333332,0.475,1,10742.285
10,False,575,target,"[(1100, 896)]",[],[1],[0.4666666666666667],horizontal,"(890.0, 262.0)",1.1166666666666667,0.427,1,10746.637
10,False,576,target,"[(1081, 897)]",[],[1],[0.06666666666666667],vertical,"(390.0, 262.0)",1.4833333333333334,0.039,1,10751.273
10,False,577,target,"[(1114, 893)]",[],[1],[0.85],horizontal,"(890.0, 762.0)",0.8666666666666667,nan,0,10756.099
10,False,578,target,"[(1081, 867)]",[],[1],[0.5333333333333333],vertical,"(890.0, 762.0)",1.0,0.489,1,10761.274
10,False,579,target,"[(1081, 880)]",[],[1],[0.5333333333333333],vertical,"(890.0, 762.0)",0.7166666666666667,0.49,1,10769.449
10,False,580,target,"[(1067, 886)]",[],[1],[0.7666666666666666],horizontal,"(890.0, 262.0)",0.5166666666666666,0.719,1,10774.163
10,False,581,target,"[(1082, 897)]",[],[1],[0.3333333333333333],vertical,"(390.0, 262.0)",1.3666666666666667,0.292,1,10778.041
10,False,582,catch,"[(1066, 910)]",[],[1],[],horizontal,"(390.0, 262.0)",,cti_phase,0,10782.841
10,False,583,target,"[(1075, 884)]",[],[1],[0.7],vertical,"(390.0, 762.0)",0.8666666666666667,0.656,1,10786.838
10,False,584,catch,"[(1075, 892)]",[],[1],[0.45],horizontal,"(390.0, 762.0)",0.9666666666666667,nan,1,10791.255
10,False,585,target,"[(1096, 925)]",[],[1],[0.5833333333333334],horizontal,"(890.0, 762.0)",0.7833333333333333,0.539,1,10795.944
10,False,586,target,"[(1086, 901)]",[],[1],[0.5166666666666666],vertical,"(890.0, 762.0)",0.5333333333333333,0.476,1,10838.139
10,False,587,catch,"[(1106, 875)]",[],[1],[0.45],vertical,"(890.0, 762.0)",1.3833333333333333,nan,1,10842.231
10,False,588,target,"[(1099, 897)]",[],[1],[0.43333333333333335],vertical,"(890.0, 762.0)",1.4666666666666666,0.387,1,10847.137
10,False,589,target,"[(1072, 906)]",[],[1],[0.5166666666666666],vertical,"(390.0, 762.0)",1.4166666666666667,0.475,1,10852.442
10,False,590,target,"[(1080, 898)]",[],[1],[0.5333333333333333],horizontal,"(390.0, 262.0)",1.3833333333333333,0.487,1,10857.527
10,False,591,target,"[(1078, 885)]",[],[1],[0.48333333333333334],horizontal,"(890.0, 262.0)",0.7166666666666667,0.444,1,10862.214
10,False,592,target,"[(1091, 873)]",[],[1],[],horizontal,"(390.0, 262.0)",,cti_phase,0,10866.355
10,False,593,target,"[(1090, 876)]",[],[1],[0.5333333333333333],vertical,"(390.0, 762.0)",1.45,0.494,1,10871.091
10,False,594,target,"[(1085, 885)]",[],[1],[0.5166666666666666],vertical,"(890.0, 762.0)",0.7,0.474,1,10875.957
10,False,595,target,"[(1099, 891)]",[],[1],[0.23333333333333334],vertical,"(390.0, 762.0)",1.5333333333333332,0.202,1,10880.109
10,False,596,catch,"[(1095, 887)]",[],[1],[0.3],vertical,"(390.0, 262.0)",1.6333333333333333,0.262,0,10884.946
10,False,597,target,"[(1086, 896)]",[],[1],[0.5333333333333333],vertical,"(890.0, 262.0)",0.6333333333333333,0.493,1,10890.226
10,False,598,target,"[(1094, 905)]",[],[1],[0.36666666666666664],vertical,"(890.0, 762.0)",1.5166666666666666,0.327,1,10898.576
10,False,599,target,"[(1081, 896)]",[],[1],[0.48333333333333334],horizontal,"(390.0, 262.0)",0.95,0.442,1,10903.302
10,False,600,target,"[(1099, 887)]",[],[1],[],vertical,"(390.0, 762.0)",,cti_phase,0,10907.933
11,False,601,target,"[(1117, 881)]",[],[1],[0.5166666666666666],vertical,"(390.0, 762.0)",1.4666666666666666,0.474,1,10912.933
11,False,602,target,"[(1085, 890)]",[],[1],[0.55],horizontal,"(390.0, 262.0)",0.9333333333333333,0.511,1,10918.302
11,False,603,target,"[(1085, 902)]",[],[1],[0.3833333333333333],horizontal,"(890.0, 262.0)",1.6,0.345,1,10922.565
11,False,604,target,"[(1097, 890)]",[],[1],[0.5333333333333333],vertical,"(390.0, 762.0)",0.7666666666666666,0.491,1,10927.749
11,False,605,target,"[(1090, 893)]",[],[1],[0.43333333333333335],vertical,"(890.0, 262.0)",1.65,0.391,1,10931.913
11,False,606,target,"[(1086, 896)]",[],[1],[0.4666666666666667],vertical,"(890.0, 262.0)",1.2333333333333334,0.425,1,10937.231
11,False,607,target,"[(1074, 881)]",[],[1],[0.55],horizontal,"(390.0, 762.0)",0.8833333333333333,0.512,1,10942.258
11,False,608,target,"[(1081, 888)]",[],[1],[0.4666666666666667],horizontal,"(390.0, 762.0)",1.1833333333333333,0.431,1,10946.714
11,False,609,target,"[(1085, 885)]",[],[1],[],horizontal,"(890.0, 262.0)",,cti_phase,0,10951.614
11,False,610,target,"[(1093, 893)]",[],[1],[0.5166666666666666],horizontal,"(890.0, 762.0)",0.7,0.483,1,10956.335
11,False,611,target,"[(1076, 893)]",[],[1],[0.5166666666666666],horizontal,"(390.0, 762.0)",1.1,0.471,1,10960.748
11,False,612,catch,"[(1076, 891)]",[],[1],[0.45],horizontal,"(890.0, 262.0)",1.5666666666666667,nan,1,10965.748
11,False,613,target,"[(1098, 863)]",[],[1],[0.85],vertical,"(390.0, 262.0)",0.55,nan,0,10972.79
11,False,614,target,"[(1088, 882)]",[],[1],[0.6833333333333333],horizontal,"(890.0, 262.0)",1.4166666666666667,0.638,1,11008.136
11,False,615,target,"[(1084, 901)]",[],[1],[0.5166666666666666],horizontal,"(890.0, 762.0)",1.0166666666666666,0.474,1,11018.803
11,False,616,target,"[(1082, 886)]",[],[1],[0.5166666666666666],vertical,"(890.0, 262.0)",0.9833333333333333,0.475,1,11023.331
11,False,617,catch,"[(1081, 899)]",[],[1],[0.45],horizontal,"(890.0, 762.0)",1.1333333333333333,nan,1,11028.086
11,False,618,target,"[(1094, 876)]",[],[1],[],horizontal,"(390.0, 762.0)",,cti_phase,0,11032.631
11,False,619,target,"[(1085, 890)]",[],[1],[0.5333333333333333],horizontal,"(890.0, 762.0)",1.3,0.494,1,11037.162
11,False,620,target,"[(1106, 884)]",[],[1],[0.55],horizontal,"(390.0, 262.0)",0.7666666666666666,0.507,1,11041.928
11,False,621,target,"[(1081, 895)]",[],[1],[0.5833333333333334],horizontal,"(890.0, 262.0)",1.4333333333333333,0.549,1,11046.434
11,False,622,catch,"[(1066, 891)]",[],[1],[0.45],horizontal,"(890.0, 262.0)",0.7166666666666667,nan,1,11051.519
11,False,623,target,"[(209, 605), (979, 561), (211, 483), (1082, 863)]","[(1068, 871)]","[0, 0, 0, 1]",[0.03333333333333333],horizontal,"(390.0, 762.0)",,bar_phase,0,11055.938
11,False,624,target,"[(1113, 483), (792, 485), (495, 664), (480, 491), (1112, 891)]",[],"[0, 0, 0, 0, 1]",[],horizontal,"(890.0, 262.0)",,fix_phase,0,11060.016
11,False,625,catch,"[(1123, 858)]","[(1067, 887)]",[1],[0.13333333333333333],horizontal,"(890.0, 762.0)",,bar_phase,0,11066.482
11,False,626,target,"[(790, 948), (1076, 891)]",[],"[0, 1]",[],vertical,"(890.0, 262.0)",,cti_phase,0,11068.919
11,False,627,catch,"[(1128, 869)]",[],[1],[],horizontal,"(890.0, 262.0)",,cti_phase,0,11072.447
11,False,628,target,"[(1094, 877)]",[],[1],[0.06666666666666667],vertical,"(890.0, 762.0)",1.45,0.036,1,11075.974
11,False,629,target,"[(1103, 891)]",[],[1],[0.36666666666666664],vertical,"(890.0, 262.0)",0.55,0.33,1,11080.692
11,False,630,target,"[(1100, 885)]",[],[1],[0.48333333333333334],horizontal,"(890.0, 762.0)",0.7,0.445,1,11084.859
11,False,631,target,"[(1109, 905)]",[],[1],[0.45],horizontal,"(390.0, 262.0)",1.05,0.416,1,11089.42
11,False,632,target,"[(1108, 873)]",[],[1],[0.85],horizontal,"(890.0, 762.0)",0.5,nan,0,11093.954
11,False,633,catch,"[(766, 519), (1059, 891)]","[(1046, 887)]","[0, 1]",[0.8833333333333333],horizontal,"(390.0, 762.0)",,bar_phase,0,11098.265
11,False,634,target,"[(1101, 882)]","[(1084, 884)]",[1],[0.03333333333333333],horizontal,"(390.0, 762.0)",,bar_phase,0,11103.467
11,False,635,target,"[(1119, 863)]",[],[1],[0.4666666666666667],vertical,"(390.0, 762.0)",1.05,0.427,1,11106.356
11,False,636,target,"[(1092, 872)]",[],[1],[0.4166666666666667],vertical,"(890.0, 262.0)",1.2833333333333332,0.375,1,11111.13
11,False,637,target,"[(1085, 872)]",[],[1],[0.5166666666666666],vertical,"(390.0, 762.0)",0.9833333333333333,0.474,1,11115.971
11,False,638,target,"[(1074, 887)]",[],[1],[0.5166666666666666],horizontal,"(890.0, 262.0)",1.25,0.475,1,11120.281
11,False,639,target,"[(1082, 868)]",[],[1],[0.5],horizontal,"(890.0, 762.0)",1.3833333333333333,0.459,1,11125.382
11,False,640,catch,"[(1078, 896)]",[],[1],[0.45],vertical,"(890.0, 762.0)",1.25,nan,1,11130.441
11,False,641,target,"[(1091, 886)]",[],[1],[0.5166666666666666],horizontal,"(390.0, 262.0)",0.85,0.479,1,11135.45
11,False,642,target,"[(1114, 896)]",[],[1],[0.48333333333333334],vertical,"(390.0, 262.0)",1.4666666666666666,0.444,1,11139.893
11,False,643,target,"[(1114, 891)]",[],[1],[0.6],vertical,"(890.0, 762.0)",1.2,0.56,1,11144.95
11,False,644,target,"[(1104, 892)]",[],[1],[0.7],vertical,"(390.0, 262.0)",0.9666666666666667,0.653,1,11149.864
11,False,645,catch,"[(1101, 886)]",[],[1],[0.45],horizontal,"(890.0, 262.0)",0.9666666666666667,nan,1,11154.716
11,False,646,target,"[(1119, 881)]",[],[1],[0.85],vertical,"(390.0, 762.0)",1.2666666666666666,nan,0,11159.347
11,False,647,target,"[(1100, 863)]",[],[1],[0.85],vertical,"(890.0, 762.0)",1.2666666666666666,nan,0,11164.598
11,False,648,catch,"[(1118, 855)]",[],[1],[0.45],vertical,"(390.0, 762.0)",0.9333333333333333,nan,1,11169.612
11,False,649,catch,"[(1099, 868)]",[],[1],"[0.45, 0.45]",vertical,"(890.0, 262.0)",1.5666666666666667,"0.417,nan",1,11176.278
11,False,650,target,"[(1114, 904)]",[],[1],[0.5333333333333333],vertical,"(390.0, 762.0)",1.3666666666666667,0.496,1,11181.767
11,False,651,catch,"[(1124, 898)]",[],[1],[0.45],horizontal,"(390.0, 762.0)",1.2,nan,1,11186.464
11,False,652,target,"[(1088, 886)]",[],[1],[0.55],horizontal,"(890.0, 762.0)",1.3333333333333333,0.511,1,11191.399
11,False,653,target,"[(1085, 883)]",[],[1],[0.25],horizontal,"(390.0, 762.0)",1.1,0.218,1,11196.32
11,False,654,target,"[(1071, 896)]",[],[1],[0.85],vertical,"(890.0, 762.0)",0.7666666666666666,nan,0,11200.614
11,False,655,catch,"[(1100, 883)]",[],[1],[0.45],vertical,"(890.0, 262.0)",1.55,nan,1,11206.484
11,False,656,target,"[(649, 645), (1047, 915)]",[],"[0, 1]",[0.85],vertical,"(890.0, 762.0)",1.2666666666666666,"cti_phase,nan",0,11211.27
11,False,657,target,"[(1101, 872)]",[],[1],[0.85],horizontal,"(390.0, 762.0)",1.25,nan,0,11216.638
11,False,658,catch,"[(1084, 880)]",[],[1],[0.45],horizontal,"(890.0, 762.0)",0.6166666666666667,nan,1,11221.258
11,False,659,catch,"[(547, 705), (612, 247), (673, 786), (606, 833), (761, 597), (601, 265), (798, 225), (729, 304), (1017, 313), (749, 622), (714, 356), (617, 789), (926, 651), (897, 290), (654, 261), (666, 605), (583, 285), (509, 590), (703, 394), (429, 285), (344, 299), (378, 814), (640, 242), (683, 752), (558, 256), (21, 857), (427, 690), (1068, 905)]","[(1047, 900)]","[0, 0, 0, 0, 0, 0, 0, 0, 0, 0, 0, 0, 0, 0, 0, 0, 0, 0, 0, 0, 0, 0, 0, 0, 0, 0, 0, 1]",[0.5666666666666667],horizontal,"(390.0, 762.0)",,bar_phase,0,11225.584
11,False,660,target,"[(1065, 905)]",[],[1],[],horizontal,"(390.0, 262.0)",,cti_phase,0,11255.319
12,False,661,target,"[(640, 238), (1066, 889)]","[(1046, 889)]","[0, 1]",[0.6666666666666666],vertical,"(390.0, 762.0)",,bar_phase,0,11259.137
12,False,662,target,"[(1030, 897)]",[],[1],[],horizontal,"(390.0, 762.0)",,fix_phase,0,11262.354
12,False,663,catch,"[(436, 853), (809, 299), (1066, 871)]",[],"[0, 0, 1]",[0.45],vertical,"(390.0, 762.0)",0.5666666666666667,nan,1,11264.727
12,False,664,target,"[(1075, 901)]",[],[1],[],vertical,"(390.0, 762.0)",,cti_phase,0,11272.731
12,False,665,catch,"[(1093, 876)]",[],[1],[],vertical,"(390.0, 262.0)",,cti_phase,0,11276.939
12,False,666,catch,"[(1092, 874)]",[],[1],[0.2833333333333333],horizontal,"(390.0, 762.0)",0.85,0.248,0,11281.102
12,False,667,target,"[(867, 871), (1110, 859)]",[],"[0, 1]",[0.6666666666666666],horizontal,"(390.0, 762.0)",1.0833333333333333,0.629,1,11285.961
12,False,668,target,"[(1083, 893)]",[],[1],[0.5],vertical,"(890.0, 262.0)",0.8,0.464,1,11294.849
12,False,669,catch,"[(1093, 898)]",[],[1],[0.45],horizontal,"(890.0, 762.0)",1.2666666666666666,nan,1,11299.635
12,False,670,catch,"[(1106, 897)]",[],[1],[0.45],vertical,"(890.0, 262.0)",0.7,nan,1,11304.209
12,False,671,target,"[(640, 890), (1097, 849)]",[],"[0, 1]",[],vertical,"(390.0, 762.0)",,cti_phase,0,11308.644
12,False,672,target,"[(1090, 874)]",[],[1],[0.85],vertical,"(390.0, 262.0)",1.0166666666666666,nan,0,11314.802
12,False,673,target,"[(1082, 891)]",[],[1],[0.85],vertical,"(890.0, 762.0)",0.7166666666666667,nan,0,11319.914
12,False,674,target,"[(1085, 866)]",[],[1],[0.85],vertical,"(390.0, 762.0)",1.5666666666666667,nan,0,11324.949
12,False,675,target,"[(1117, 858)]",[],[1],[0.5333333333333333],vertical,"(890.0, 262.0)",0.65,0.49,1,11330.189
12,False,676,catch,"[(1082, 895)]",[],[1],[0.45],horizontal,"(890.0, 262.0)",1.15,nan,1,11338.282
12,False,677,target,"[(1104, 903)]",[],[1],[0.85],vertical,"(890.0, 762.0)",1.3166666666666667,nan,0,11343.019
12,False,678,target,"[(1114, 875)]",[],[1],[0.6],horizontal,"(390.0, 762.0)",0.55,0.553,1,11349.242
12,False,679,catch,"[(1085, 867)]",[],[1],[0.45],vertical,"(390.0, 262.0)",0.65,nan,1,11354.492
12,False,680,target,"[(1117, 456), (1086, 875)]",[],"[0, 1]",[0.5333333333333333],vertical,"(890.0, 762.0)",1.6166666666666667,0.493,1,11358.8
12,False,681,target,"[(1095, 886)]",[],[1],[0.55],horizontal,"(890.0, 762.0)",1.0666666666666667,0.52,1,11382.468
12,False,682,target,"[(1100, 891)]",[],[1],[0.48333333333333334],horizontal,"(890.0, 262.0)",1.45,0.446,1,11386.804
12,False,683,target,"[(1090, 875)]",[],[1],[0.5],horizontal,"(890.0, 762.0)",0.75,0.458,1,11392.016
12,False,684,target,"[(1090, 889)]",[],[1],[0.85],horizontal,"(390.0, 762.0)",0.95,nan,0,11396.462
12,False,685,target,"[(1112, 861)]",[],[1],[0.5],horizontal,"(890.0, 762.0)",0.7666666666666666,0.46,1,11401.113
12,False,686,target,"[(1083, 884)]",[],[1],[0.5666666666666667],vertical,"(390.0, 262.0)",1.4,0.521,1,11407.248
12,False,687,target,"[(1081, 896)]",[],[1],[0.5166666666666666],vertical,"(890.0, 262.0)",0.8166666666666667,0.478,1,11412.354
12,False,688,target,"[(1068, 882)]",[],[1],[0.5666666666666667],horizontal,"(390.0, 762.0)",0.85,0.528,1,11416.317
12,False,689,catch,"[(1083, 896)]",[],[1],[0.45],vertical,"(890.0, 762.0)",1.1,nan,1,11420.945
12,False,690,target,"[(1078, 904)]",[],[1],[0.85],horizontal,"(890.0, 762.0)",1.3,nan,0,11425.595
12,False,691,target,"[(1109, 868)]",[],[1],[0.5833333333333334],horizontal,"(890.0, 262.0)",0.6833333333333333,0.546,1,11431.425
12,False,692,catch,"[(1085, 881)]",[],[1],[0.45],horizontal,"(390.0, 262.0)",0.8166666666666667,nan,1,11435.415
12,False,693,target,"[(1109, 897)]",[],[1],[0.5],vertical,"(890.0, 762.0)",0.6,0.458,1,11440.0
12,False,694,target,"[(1087, 891)]",[],[1],[0.4666666666666667],vertical,"(890.0, 262.0)",1.1,0.434,1,11444.319
12,False,695,target,"[(1100, 889)]",[],[1],[0.85],vertical,"(390.0, 262.0)",1.1666666666666667,nan,0,11449.334
12,False,696,catch,"[(1177, 878)]",[],[1],[0.45],vertical,"(890.0, 762.0)",0.8,nan,1,11454.616
12,False,697,target,"[(1103, 885)]",[],[1],[0.5833333333333334],vertical,"(390.0, 762.0)",0.6166666666666667,0.541,1,11458.971
12,False,698,target,"[(1082, 901)]",[],[1],[0.7166666666666667],vertical,"(390.0, 262.0)",0.7666666666666666,0.668,1,11463.121
12,False,699,target,"[(935, 491), (1115, 877)]",[],"[0, 1]",[0.8166666666666667],horizontal,"(390.0, 262.0)",0.55,0.774,1,11467.64
12,False,700,target,"[(1112, 885)]",[],[1],[0.85],vertical,"(390.0, 262.0)",1.1166666666666667,nan,0,11481.834
12,False,701,target,"[(1090, 864)]",[],[1],[0.85],horizontal,"(890.0, 262.0)",1.5166666666666666,nan,0,11486.939
12,False,702,target,"[(1055, 879)]",[],[1],[0.5666666666666667],vertical,"(390.0, 262.0)",1.2833333333333332,0.524,1,11492.332
12,False,703,target,"[(1108, 888)]",[],[1],[0.5333333333333333],vertical,"(390.0, 762.0)",0.65,0.492,1,11501.701
12,False,704,target,"[(1109, 866)]",[],[1],[],vertical,"(890.0, 762.0)",,cti_phase,0,11505.736
12,False,705,target,"[(1114, 885)]",[],[1],[0.2833333333333333],horizontal,"(890.0, 762.0)",1.5666666666666667,0.251,1,11510.196
12,False,706,target,"[(1111, 866)]",[],[1],[0.5],horizontal,"(890.0, 262.0)",1.2333333333333334,0.459,1,11515.348
12,False,707,target,"[(1082, 890)]",[],[1],[0.85],horizontal,"(890.0, 262.0)",0.7833333333333333,nan,0,11520.217
12,False,708,target,"[(1088, 862)]","[(1077, 871)]",[1],[0.3833333333333333],horizontal,"(390.0, 262.0)",,bar_phase,0,11524.802
12,False,709,target,"[(1119, 867)]",[],[1],[],horizontal,"(390.0, 762.0)",,fix_phase,0,11527.671
12,False,710,target,"[(1121, 864)]",[],[1],[0.5],horizontal,"(390.0, 262.0)",0.6333333333333333,0.461,1,11529.957
12,False,711,catch,"[(1104, 898)]",[],[1],[0.45],horizontal,"(390.0, 762.0)",1.0,nan,1,11534.252
12,False,712,target,"[(1116, 863)]",[],[1],[],vertical,"(890.0, 262.0)",,fix_phase,0,11538.72
12,False,713,target,"[(1085, 861)]",[],[1],[0.48333333333333334],horizontal,"(390.0, 262.0)",1.2666666666666666,0.445,1,11541.097
12,False,714,target,"[(1081, 888)]",[],[1],[0.85],vertical,"(390.0, 262.0)",1.6,nan,0,11558.154
12,False,715,target,"[(1114, 885)]",[],[1],[0.48333333333333334],horizontal,"(890.0, 762.0)",1.5833333333333333,0.443,1,11563.554
12,False,716,target,"[(1119, 898)]",[],[1],[0.48333333333333334],horizontal,"(390.0, 762.0)",1.55,0.442,1,11568.954
12,False,717,target,"[(1084, 884)]",[],[1],[0.85],vertical,"(890.0, 762.0)",1.6833333333333333,nan,0,11574.169
12,False,718,target,"[(1111, 881)]",[],[1],[0.5],vertical,"(890.0, 262.0)",1.2666666666666666,0.46,1,11580.047
12,False,719,target,"[(1100, 890)]",[],[1],[0.5166666666666666],vertical,"(890.0, 762.0)",0.8333333333333334,0.476,1,11584.735
12,False,720,catch,"[(1114, 890)]",[],[1],[0.45],horizontal,"(390.0, 262.0)",1.2333333333333334,nan,1,11589.399
13,False,721,target,"[(1102, 881)]",[],[1],[0.5],vertical,"(890.0, 762.0)",1.2,0.459,1,11594.331
13,False,722,catch,"[(1128, 890)]",[],[1],[0.45],vertical,"(890.0, 762.0)",1.1666666666666667,nan,1,11599.313
13,False,723,target,"[(1109, 863)]",[],[1],[0.55],vertical,"(890.0, 762.0)",0.7666666666666666,0.505,1,11604.351
13,False,724,target,"[(1090, 872)]",[],[1],[0.5666666666666667],vertical,"(390.0, 262.0)",1.0,0.523,1,11609.386
13,False,725,target,"[(1081, 879)]",[],[1],[0.85],vertical,"(890.0, 262.0)",0.9333333333333333,nan,0,11614.576
13,False,726,target,"[(1112, 861)]",[],[1],[0.5166666666666666],horizontal,"(890.0, 762.0)",0.8,0.473,1,11619.799
13,False,727,catch,"[(1089, 900)]",[],[1],[0.45],horizontal,"(390.0, 762.0)",1.1,nan,1,11623.962
13,False,728,target,"[(1110, 875)]",[],[1],[0.48333333333333334],horizontal,"(390.0, 262.0)",1.3333333333333333,0.441,1,11628.585
13,False,729,target,"[(1085, 865)]",[],[1],[0.35],horizontal,"(890.0, 762.0)",1.4,0.314,1,11633.803
13,False,730,target,"[(1086, 866)]",[],[1],[0.5],vertical,"(890.0, 762.0)",0.8666666666666667,0.458,1,11638.588
13,False,731,target,"[(1090, 896)]",[],[1],[0.85],vertical,"(890.0, 262.0)",0.6166666666666667,nan,0,11643.204
13,False,732,target,"[(1090, 862)]",[],[1],[],vertical,"(890.0, 262.0)",,cti_phase,0,11647.976
13,False,733,target,"[(1119, 872)]",[],[1],[0.5666666666666667],vertical,"(890.0, 262.0)",0.8833333333333333,0.524,1,11652.386
13,False,734,target,"[(1086, 872)]",[],[1],[0.5],horizontal,"(390.0, 262.0)",1.3166666666666667,0.463,1,11656.884
13,False,735,catch,"[(1090, 891)]",[],[1],[0.45],horizontal,"(390.0, 762.0)",0.8833333333333333,nan,1,11661.781
13,False,736,catch,"[(870, 886), (1081, 899)]",[],"[0, 1]",[0.45],vertical,"(390.0, 262.0)",0.65,nan,1,11666.515
13,False,737,target,"[(475, 593), (475, 666), (480, 638), (977, 538), (156, 636), (156, 533), (10, 590), (443, 628), (985, 609), (1075, 536), (470, 905), (505, 499), (1064, 880)]",[],"[0, 0, 0, 0, 0, 0, 0, 0, 0, 0, 0, 0, 1]",[],horizontal,"(390.0, 762.0)",,fix_phase,0,11684.756
13,False,738,target,"[(514, 585), (467, 536), (387, 700), (480, 648), (514, 595), (996, 879), (945, 936), (514, 261), (286, 650), (983, 637), (39, 653), (504, 612), (509, 664), (974, 529), (483, 659), (511, 538), (921, 666), (417, 671), (969, 705), (393, 671), (499, 681), (1056, 672), (1003, 934), (1075, 933)]",[],"[0, 0, 0, 0, 0, 0, 0, 0, 0, 0, 0, 0, 0, 0, 0, 0, 0, 0, 0, 0, 0, 0, 0, 1]",[],horizontal,"(390.0, 262.0)",,fix_phase,0,11693.29
13,False,739,target,"[(1071, 886)]",[],[1],[],vertical,"(390.0, 262.0)",,fix_phase,0,11728.558
13,False,740,target,"[(1104, 880)]",[],[1],[0.48333333333333334],horizontal,"(390.0, 262.0)",1.15,0.441,1,11730.294
13,False,741,target,"[(1061, 919)]",[],[1],[0.48333333333333334],horizontal,"(890.0, 262.0)",1.1833333333333333,0.44,1,11735.05
13,False,742,target,"[(1075, 897)]",[],[1],[0.48333333333333334],horizontal,"(890.0, 262.0)",1.6333333333333333,0.442,1,11740.038
13,False,743,target,"[(1075, 891)]",[],[1],[0.5833333333333334],vertical,"(890.0, 762.0)",1.2166666666666666,0.537,1,11744.84
13,False,744,catch,"[(1032, 892)]",[],[1],[],horizontal,"(890.0, 762.0)",,cti_phase,0,11749.711
13,False,745,target,"[(1092, 868)]",[],[1],[0.75],vertical,"(390.0, 762.0)",1.0666666666666667,0.706,1,11753.156
13,False,746,catch,"[(1075, 865)]",[],[1],[0.45],horizontal,"(890.0, 262.0)",0.9666666666666667,nan,1,11758.45
13,False,747,target,"[(1085, 888)]",[],[1],[0.7166666666666667],horizontal,"(890.0, 762.0)",1.5,0.674,1,11763.042
13,False,748,target,"[(1071, 872)]",[],[1],[0.48333333333333334],vertical,"(390.0, 262.0)",1.25,0.439,1,11768.526
13,False,749,target,"[(1061, 887)]",[],[1],[0.75],horizontal,"(390.0, 262.0)",0.9333333333333333,0.706,1,11773.579
13,False,750,target,"[(727, 890), (1074, 877)]",[],"[0, 1]",[0.5833333333333334],horizontal,"(890.0, 762.0)",1.2,0.546,1,11778.187
13,False,751,target,"[(1071, 868)]",[],[1],[0.85],vertical,"(890.0, 762.0)",1.05,nan,0,11786.839
13,False,752,target,"[(1106, 861)]",[],[1],[0.65],vertical,"(390.0, 262.0)",0.5666666666666667,0.603,1,11791.888
13,False,753,target,"[(1066, 877)]",[],[1],[0.13333333333333333],vertical,"(890.0, 262.0)",1.55,0.1,1,11798.04
13,False,754,target,"[(659, 609), (1096, 856)]",[],"[0, 1]",[0.85],horizontal,"(390.0, 762.0)",0.6666666666666666,nan,0,11802.809
13,False,755,target,"[(999, 891), (1094, 841)]",[],"[0, 1]",[0.55],horizontal,"(890.0, 262.0)",1.1,0.507,1,11808.985
13,False,756,catch,"[(1090, 893)]",[],[1],[0.45],vertical,"(390.0, 262.0)",1.6333333333333333,nan,1,11815.295
13,False,757,catch,"[(722, 893), (1036, 891)]",[],"[0, 1]",[],horizontal,"(390.0, 262.0)",,cti_phase,0,11820.828
13,False,758,target,"[(1093, 859)]",[],[1],[0.21666666666666667],vertical,"(390.0, 262.0)",1.6166666666666667,0.185,1,11825.031
13,False,759,catch,"[(1092, 871)]",[],[1],[0.45],vertical,"(390.0, 762.0)",0.7666666666666666,nan,1,11830.256
13,False,760,target,"[(587, 918), (654, 595), (28, 238), (63, 216), (266, 355), (489, 182), (751, 194), (97, 370), (495, 409), (484, 108), (434, 228), (1051, 357), (480, 265), (1090, 218), (757, 347), (407, 185), (5, 218), (502, 123), (511, 237), (8, 128), (504, 270), (751, 294), (497, 299), (430, 223), (491, 161), (489, 262), (567, 218), (577, 356), (654, 389), (587, 877), (489, 872), (785, 925), (146, 297), (495, 246), (785, 310), (490, 317), (141, 423), (790, 238), (501, 242), (451, 213), (525, 247), (432, 315), (509, 331), (1090, 385), (456, 180), (708, 709), (587, 308), (596, 409), (412, 356), (630, 270), (882, 347), (1074, 900)]",[],"[0, 0, 0, 0, 0, 0, 0, 0, 0, 0, 0, 0, 0, 0, 0, 0, 0, 0, 0, 0, 0, 0, 0, 0, 0, 0, 0, 0, 0, 0, 0, 0, 0, 0, 0, 0, 0, 0, 0, 0, 0, 0, 0, 0, 0, 0, 0, 0, 0, 0, 0, 1]",[0.3833333333333333],horizontal,"(390.0, 762.0)",1.2833333333333332,0.346,1,11834.648
13,False,761,target,"[(1089, 885)]",[],[1],[0.4666666666666667],vertical,"(890.0, 762.0)",1.6833333333333333,0.427,1,11890.636
13,False,762,target,"[(440, 843), (1087, 902)]",[],"[0, 1]",[0.85],vertical,"(390.0, 762.0)",0.5333333333333333,nan,0,11896.185
13,False,763,target,"[(1078, 869)]",[],[1],[0.85],vertical,"(890.0, 262.0)",1.1833333333333333,nan,0,11903.486
13,False,764,target,"[(1081, 413), (1081, 852)]","[(1081, 863)]","[0, 1]",[0.21666666666666667],vertical,"(390.0, 762.0)",,bar_phase,0,11910.583
13,False,765,catch,"[(1088, 856)]",[],[1],[0.45],vertical,"(390.0, 262.0)",1.65,nan,1,11915.175
13,False,766,target,"[(1103, 854)]",[],[1],[0.5],horizontal,"(390.0, 762.0)",1.1166666666666667,0.457,1,11922.387
13,False,767,target,"[(1086, 883)]",[],[1],[0.75],vertical,"(390.0, 262.0)",0.6,0.704,1,11926.755
13,False,768,target,"[(1082, 883)]",[],[1],[0.5666666666666667],vertical,"(890.0, 262.0)",0.75,0.525,1,11931.382
13,False,769,catch,"[(1091, 885)]",[],[1],[0.11666666666666667],horizontal,"(890.0, 262.0)",1.6,0.086,0,11935.97
13,False,770,catch,"[(1085, 861)]",[],[1],[0.45],horizontal,"(390.0, 262.0)",0.9,nan,1,11940.89
13,False,771,target,"[(1129, 880)]",[],[1],[],horizontal,"(390.0, 762.0)",,cti_phase,0,11946.66
13,False,772,target,"[(1117, 859)]",[],[1],[0.5666666666666667],vertical,"(390.0, 262.0)",0.8833333333333333,0.525,1,11951.649
13,False,773,target,"[(1104, 897)]",[],[1],[0.48333333333333334],vertical,"(890.0, 262.0)",0.6166666666666667,0.443,1,11956.257
13,False,774,target,"[(1134, 889)]",[],[1],[0.5],vertical,"(890.0, 762.0)",0.7333333333333333,0.459,1,11960.219
13,False,775,catch,"[(1090, 901)]",[],[1],[0.45],horizontal,"(890.0, 762.0)",1.45,nan,1,11964.739
13,False,776,catch,"[(1089, 885)]",[],[1],[0.45],horizontal,"(890.0, 762.0)",1.05,nan,1,11969.486
13,False,777,target,"[(1085, 880)]",[],[1],[0.5166666666666666],vertical,"(390.0, 762.0)",0.6666666666666666,0.476,1,11982.01
13,False,778,target,"[(1095, 871)]",[],[1],[],vertical,"(390.0, 762.0)",,cti_phase,0,11986.3
13,False,779,target,"[(1095, 867)]",[],[1],[0.3],horizontal,"(390.0, 262.0)",0.95,0.272,1,11989.955
13,False,780,target,"[(1114, 882)]",[],[1],[0.5],vertical,"(390.0, 262.0)",0.9833333333333333,0.463,1,11994.548
14,False,781,target,"[(1102, 876)]",[],[1],[0.25],horizontal,"(390.0, 262.0)",1.0833333333333333,0.218,1,11998.986
14,False,782,target,"[(1119, 889)]",[],[1],[0.21666666666666667],horizontal,"(390.0, 262.0)",1.3,0.184,1,12003.721
14,False,783,target,"[(1095, 881)]",[],[1],[0.5166666666666666],vertical,"(890.0, 262.0)",1.1666666666666667,0.474,1,12008.812
14,False,784,catch,"[(1090, 876)]",[],[1],[0.45],horizontal,"(890.0, 762.0)",0.5333333333333333,nan,1,12013.631
14,False,785,catch,"[(1087, 875)]",[],[1],[],horizontal,"(390.0, 762.0)",,cti_phase,0,12018.153
14,False,786,target,"[(1119, 876)]",[],[1],[0.5],vertical,"(890.0, 262.0)",1.1666666666666667,0.461,1,12022.911
14,False,787,target,"[(1111, 886)]",[],[1],[0.5333333333333333],vertical,"(890.0, 762.0)",0.6833333333333333,0.495,1,12027.588
14,False,788,catch,"[(1095, 876)]",[],[1],[0.45],vertical,"(890.0, 262.0)",1.15,nan,1,12031.917
14,False,789,target,"[(1103, 886)]",[],[1],[0.48333333333333334],vertical,"(890.0, 262.0)",0.6666666666666666,0.443,1,12036.422
14,False,790,target,"[(1090, 872)]",[],[1],[0.13333333333333333],horizontal,"(390.0, 762.0)",1.35,0.101,1,12040.784
14,False,791,target,"[(1085, 887)]",[],[1],[],vertical,"(390.0, 762.0)",,cti_phase,0,12045.698
14,False,792,target,"[(1095, 863)]",[],[1],[0.5166666666666666],vertical,"(390.0, 262.0)",0.8166666666666667,0.472,1,12050.06
14,False,793,target,"[(1118, 876)]",[],[1],[0.4],vertical,"(390.0, 762.0)",1.45,0.36,1,12054.753
14,False,794,target,"[(1090, 887)]",[],[1],[0.6166666666666667],horizontal,"(890.0, 762.0)",0.9833333333333333,0.576,1,12059.822
14,False,795,target,"[(1104, 882)]",[],[1],[0.5],horizontal,"(890.0, 762.0)",1.3833333333333333,0.456,1,12064.682
14,False,796,target,"[(1086, 883)]",[],[1],[0.26666666666666666],horizontal,"(390.0, 262.0)",1.3666666666666667,0.23,1,12069.339
14,False,797,target,"[(1093, 875)]",[],[1],[0.5],vertical,"(390.0, 262.0)",0.6166666666666667,0.458,1,12074.171
14,False,798,target,"[(1095, 877)]",[],[1],[0.35],horizontal,"(390.0, 762.0)",1.4,0.31,1,12078.403
14,False,799,catch,"[(1085, 891)]",[],[1],[0.45],vertical,"(890.0, 762.0)",1.3833333333333333,nan,1,12083.236
14,False,800,target,"[(1085, 867)]",[],[1],[0.5],horizontal,"(890.0, 262.0)",1.3833333333333333,0.461,1,12088.504
14,False,801,target,"[(1117, 882)]",[],[1],[0.36666666666666664],horizontal,"(890.0, 262.0)",1.4333333333333333,0.326,1,12093.603
14,False,802,catch,"[(1105, 878)]",[],[1],[0.45],vertical,"(890.0, 762.0)",1.25,nan,1,12098.116
14,False,803,catch,"[(1109, 890)]",[],[1],[0.35],vertical,"(890.0, 762.0)",1.55,0.317,0,12102.78
14,False,804,target,"[(1122, 877)]",[],[1],[0.48333333333333334],vertical,"(890.0, 262.0)",0.9166666666666666,0.45,1,12108.125
14,False,805,target,"[(1076, 882)]",[],[1],[0.5166666666666666],vertical,"(890.0, 262.0)",1.1166666666666667,0.477,1,12112.722
14,False,806,target,"[(1107, 881)]",[],[1],[0.5333333333333333],horizontal,"(890.0, 262.0)",0.6333333333333333,0.495,1,12117.538
14,False,807,target,"[(1083, 878)]",[],[1],[0.5],horizontal,"(390.0, 262.0)",1.1166666666666667,0.46,1,12121.841
14,False,808,target,"[(1094, 881)]",[],[1],[0.4166666666666667],vertical,"(890.0, 762.0)",1.4,0.375,1,12126.514
14,False,809,target,"[(1091, 878)]",[],[1],[0.18333333333333332],vertical,"(890.0, 262.0)",1.6666666666666667,0.148,1,12131.596
14,False,810,catch,"[(1121, 901)]",[],[1],[0.45],horizontal,"(890.0, 262.0)",0.55,nan,1,12136.706
14,False,811,catch,"[(1114, 876)]",[],[1],[0.45],horizontal,"(890.0, 262.0)",1.0333333333333332,nan,1,12140.589
14,False,812,target,"[(1103, 898)]",[],[1],[0.5],horizontal,"(390.0, 262.0)",0.95,0.459,1,12145.326
14,False,813,target,"[(1100, 897)]",[],[1],[0.6166666666666667],vertical,"(890.0, 762.0)",0.9333333333333333,0.571,1,12149.732
14,False,814,catch,"[(1094, 896)]",[],[1],[0.31666666666666665],vertical,"(390.0, 762.0)",1.1166666666666667,0.283,0,12154.286
14,False,815,catch,"[(1092, 867)]",[],[1],[0.45],vertical,"(890.0, 262.0)",1.1833333333333333,nan,1,12158.873
14,False,816,target,"[(1081, 886)]",[],[1],[0.45],horizontal,"(890.0, 762.0)",1.3333333333333333,0.412,1,12163.588
14,False,817,target,"[(1074, 898)]",[],[1],[0.5],vertical,"(390.0, 262.0)",1.2333333333333334,0.459,1,12168.909
14,False,818,target,"[(1122, 902)]",[],[1],[0.11666666666666667],vertical,"(390.0, 762.0)",1.2333333333333334,0.084,1,12173.539
14,False,819,catch,"[(1071, 873)]",[],[1],[0.45],vertical,"(390.0, 262.0)",1.05,nan,1,12178.281
14,False,820,target,"[(1115, 876)]",[],[1],[0.6],vertical,"(890.0, 762.0)",1.05,0.556,1,12182.922
14,False,821,target,"[(1119, 891)]",[],[1],[0.5166666666666666],vertical,"(890.0, 762.0)",0.9833333333333333,0.479,1,12188.141
14,False,822,target,"[(1090, 908)]",[],[1],[0.45],horizontal,"(890.0, 762.0)",1.4333333333333333,0.411,1,12192.941
14,False,823,target,"[(1085, 895)]",[],[1],[0.5833333333333334],vertical,"(890.0, 262.0)",1.05,0.545,1,12198.244
14,False,824,catch,"[(1115, 896)]",[],[1],[],horizontal,"(890.0, 762.0)",,cti_phase,0,12203.191
14,False,825,target,"[(1119, 878)]",[],[1],[0.5333333333333333],horizontal,"(890.0, 762.0)",0.9166666666666666,0.495,1,12207.638
14,False,826,target,"[(1096, 896)]",[],[1],[0.5166666666666666],vertical,"(890.0, 762.0)",0.9666666666666667,0.478,1,12211.832
14,False,827,target,"[(1095, 886)]",[],[1],[0.3333333333333333],horizontal,"(890.0, 762.0)",1.3,0.296,1,12216.633
14,False,828,target,"[(1090, 900)]",[],[1],[0.5166666666666666],vertical,"(890.0, 762.0)",0.7166666666666667,0.48,1,12221.422
