block,trial,trial_type,taps_start_loc_during_fix,taps_end_loc_during_fix,taps_on_lever_during_fix,taps_on_lever_s_during_fix,bar_orientation,target_xy,cti,rt,acc,time,pulses,fa_rate_recent100,p_catch
0,1,catch,"[(1038, 854)]",[],[1],[],vertical,"(890.0, 262.0)",1.6,nan,1,0.05,1,0,0.1
0,2,target,"[(1041, 806)]",[],[1],[0.55],vertical,"(890.0, 762.0)",1.45,0.505,1,2317.057,1,0,0.1
0,3,target,"[(1059, 786)]",[],[1],[0.18333333333333332],horizontal,"(890.0, 262.0)",1.533333333,0.153,0,2331.705,0,0,0.1
0,4,target,"[(1033, 769)]",[],[1],[0.85],horizontal,"(890.0, 762.0)",1.3,nan,0,2336.379,0,0,0.1
0,5,target,"[(1039, 815)]",[],[1],[0.5333333333333333],horizontal,"(890.0, 762.0)",0.983333333,0.5,1,2341.436,1,0,0.1
0,6,target,"[(1055, 787)]",[],[1],[0.6166666666666667],vertical,"(390.0, 762.0)",0.716666667,0.571,1,2347.557,1,0,0.1
0,7,target,"[(1068, 789)]",[],[1],[0.3333333333333333],horizontal,"(390.0, 262.0)",1.133333333,0.293,1,2352.676,1,0,0.1
0,8,catch,"[(1056, 789)]",[],[1],[0.03333333333333333],horizontal,"(390.0, 262.0)",1.6,"0.019,nan",0,2357.673,0,0.125,0.1
0,9,target,"[(1052, 784)]",[],[1],[0.5666666666666667],horizontal,"(890.0, 262.0)",0.833333333,0.527,1,2362.312,1,0.111111111,0.1
0,10,target,"[(1051, 784)]",[],[1],[0.5166666666666666],vertical,"(890.0, 262.0)",1.3,0.472,1,2366.801,1,0.1,0.1
0,11,target,"[(1055, 782)]",[],[1],[0.3833333333333333],vertical,"(390.0, 262.0)",1.483333333,0.352,1,2371.971,1,0.090909091,0.1
0,12,target,"[(1045, 752), (1051, 790)]",[],"[0, 1]",[0.36666666666666664],vertical,"(890.0, 762.0)",1.416666667,0.329,1,2377.209,2,0.083333333,0.1
0,13,target,"[(1052, 772)]",[],[1],[0.6],vertical,"(890.0, 262.0)",1.033333333,0.552,1,2384.442,2,0.076923077,0.1
0,14,target,"[(1052, 770)]",[],[1],[0.35],vertical,"(390.0, 762.0)",1.3,0.306,1,2389.835,2,0.071428571,0.1
0,15,catch,"[(1057, 770)]",[],[1],[],vertical,"(890.0, 762.0)",,"('cti', 1.572),nan",0,2395.264,0,0.133333333,0.1
0,16,target,"[(1039, 788)]",[],[1],[0.4166666666666667],vertical,"(390.0, 262.0)",1.1,0.379,1,2399.968,1,0.125,0.1
0,17,target,"[(1054, 762)]",[],[1],[0.4666666666666667],horizontal,"(390.0, 262.0)",1.033333333,0.427,1,2405.018,1,0.117647059,0.1
0,18,target,"[(1070, 777)]",[],[1],[0.35],horizontal,"(390.0, 762.0)",1.416666667,0.311,1,2410.034,1,0.111111111,0.1
0,19,target,"[(1063, 791)]",[],[1],[0.5166666666666666],horizontal,"(390.0, 762.0)",0.966666667,0.475,1,2415.501,2,0.105263158,0.1
0,20,target,"[(1037, 780)]",[],[1],[0.45],horizontal,"(390.0, 262.0)",0.883333333,0.411,1,2420.901,2,0.1,0.1
0,21,target,"[(1069, 799)]",[],[1],[0.43333333333333335],horizontal,"(890.0, 762.0)",1.083333333,0.393,1,2426.043,2,0.095238095,0.1
0,22,target,"[(1069, 796)]",[],[1],[0.43333333333333335],horizontal,"(890.0, 262.0)",0.916666667,0.395,1,2431.704,2,0.090909091,0.1
0,23,catch,"[(1054, 782)]",[],[1],[],vertical,"(390.0, 262.0)",1.6,nan,1,2437.059,3,0.086956522,0.1
0,24,target,"[(1055, 794)]",[],[1],[],horizontal,"(890.0, 262.0)",,"('cti', 1.298)",0,2443.151,0,0.125,0.1
0,25,catch,"[(1033, 790)]",[],[1],[],vertical,"(390.0, 262.0)",,"('cti', 1.443),nan",0,2447.736,0,0.16,0.1
0,26,target,"[(1056, 781)]",[],[1],[0.5666666666666667],vertical,"(890.0, 262.0)",0.383333333,0.523,1,2452.448,1,0.153846154,0.1
0,27,target,"[(1056, 772)]",[],[1],[0.85],horizontal,"(890.0, 262.0)",0.483333333,nan,0,2456.701,0,0.148148148,0.1
0,28,target,"[(1054, 789)]",[],[1],[0.5166666666666666],vertical,"(890.0, 262.0)",0.466666667,0.478,1,2460.666,1,0.142857143,0.1
0,29,target,"[(1056, 772)]",[],[1],[0.5166666666666666],vertical,"(890.0, 262.0)",0.666666667,0.481,1,2465.499,1,0.137931034,0.1
0,30,target,"[(1057, 783)]",[],[1],[0.5],horizontal,"(390.0, 762.0)",1.2,0.455,1,2470.09,1,0.133333333,0.1
0,31,target,"[(1066, 799)]",[],[1],[0.31666666666666665],horizontal,"(890.0, 262.0)",1.516666667,0.281,1,2475.535,2,0.129032258,0.1
0,32,target,"[(1055, 769)]",[],[1],[0.4666666666666667],vertical,"(390.0, 762.0)",0.866666667,0.428,1,2481.573,2,0.125,0.1
0,33,target,"[(1057, 771)]",[],[1],[0.5333333333333333],horizontal,"(890.0, 262.0)",0.366666667,0.494,1,2486.679,2,0.121212121,0.1
0,34,target,"[(1058, 779)]",[],[1],[0.85],vertical,"(390.0, 762.0)",0.35,nan,0,2491.683,0,0.117647059,0.1
0,35,target,"[(1037, 792)]",[],[1],[0.5],vertical,"(890.0, 762.0)",0.7,0.46,1,2496.397,1,0.114285714,0.1
0,36,target,"[(1052, 825)]",[],[1],[0.85],vertical,"(390.0, 262.0)",1.116666667,nan,0,2501.384,0,0.111111111,0.1
0,37,target,"[(1032, 789)]",[],[1],[0.85],horizontal,"(390.0, 262.0)",0.85,nan,0,4012.106,0,0.108108108,0.1
0,38,catch,"[(1029, 844)]",[],[1],[],vertical,"(890.0, 262.0)",1.6,nan,1,4021.573,1,0.105263158,0.1
0,39,target,"[(1043, 816)]",[],[1],[0.4666666666666667],horizontal,"(390.0, 762.0)",1.25,0.436,1,4028.264,1,0.102564103,0.1
0,40,target,"[(1051, 800)]",[],[1],[0.85],horizontal,"(390.0, 762.0)",0.483333333,nan,0,4066.487,0,0.1,0.1
0,41,target,"[(1015, 816)]",[],[1],[0.85],horizontal,"(890.0, 762.0)",1.016666667,nan,0,4070.956,0,0.097560976,0.1
0,42,target,"[(1057, 809)]",[],[1],[0.85],vertical,"(890.0, 762.0)",1.083333333,nan,0,4077.159,0,0.095238095,0.1
0,43,target,"[(1030, 790)]",[],[1],[0.85],vertical,"(890.0, 762.0)",1.033333333,nan,0,4082.186,0,0.093023256,0.1
0,44,target,"[(1065, 852)]",[],[1],[0.7],vertical,"(390.0, 262.0)",1,0.656,1,4097.329,1,0.090909091,0.1
0,45,target,"[(1045, 799)]",[],[1],[0.85],vertical,"(890.0, 762.0)",0.95,nan,0,4448.174,0,0.088888889,0.1
0,46,target,"[(1025, 815)]",[],[1],[0.5166666666666666],vertical,"(890.0, 762.0)",0.65,0.477,1,4453.282,1,0.086956522,0.1
0,47,target,"[(1066, 796)]",[],[1],[0.6],vertical,"(890.0, 762.0)",1.15,0.556,1,4459.858,1,0.085106383,0.1
0,48,target,"[(1053, 787)]",[],[1],[0.6],vertical,"(890.0, 262.0)",1.466666667,0.556,1,4465.124,1,0.083333333,0.1
0,49,catch,"[(1043, 794)]",[],[1],[],horizontal,"(390.0, 762.0)",1.6,nan,1,4470.54,2,0.081632653,0.1
0,50,target,"[(1063, 831)]",[],[1],[0.6],vertical,"(890.0, 762.0)",0.566666667,0.555,1,4475.925,2,0.08,0.25
0,51,target,"[(1068, 798)]",[],[1],[0.6333333333333333],vertical,"(390.0, 762.0)",0.7,0.602,1,4481.642,2,0.08,0.25
0,52,catch,"[(1069, 800)]",[],[1],[],horizontal,"(390.0, 262.0)",1.6,nan,1,4487.26,2,0.08,0.25
0,53,target,"[(1063, 775)]",[],[1],[0.85],horizontal,"(890.0, 262.0)",1.1,nan,0,4492.808,0,0.08,0.25
0,54,target,"[(1032, 807)]",[],[1],[0.5833333333333334],horizontal,"(890.0, 762.0)",0.583333333,0.541,1,4498.258,1,0.08,0.25
0,55,target,"[(1054, 782)]",[],[1],[0.5666666666666667],horizontal,"(390.0, 762.0)",0.5,0.522,1,4503.417,1,0.08,0.25
0,56,target,"[(1060, 782)]",[],[1],[0.5666666666666667],vertical,"(890.0, 762.0)",0.516666667,0.524,1,4508.347,1,0.08,0.25
0,57,target,"[(1052, 807)]",[],[1],[0.7],vertical,"(890.0, 762.0)",1,0.649,1,4512.823,2,0.08,0.25
0,58,target,"[(1047, 775)]",[],[1],[],horizontal,"(890.0, 262.0)",,"('cti', 0.997)",0,4518.753,0,0.08,0.25
0,59,target,"[(1069, 800)]",[],[1],[0.5166666666666666],horizontal,"(890.0, 262.0)",0.8,0.472,1,4523.04,1,0.08,0.25
0,60,target,"[(1053, 820)]",[],[1],[0.5],vertical,"(390.0, 762.0)",0.683333333,0.464,1,4528.104,1,0.08,0.25
0,61,catch,"[(1060, 792)]",[],[1],[],horizontal,"(390.0, 762.0)",,"('cti', 1.511),nan",0,4533.148,0,0.1,0.25
0,62,target,"[(1055, 811)]",[],[1],[0.6333333333333333],horizontal,"(890.0, 762.0)",1.15,0.587,1,4538.104,1,0.1,0.25
0,63,target,"[(1057, 792)]",[],[1],[0.5666666666666667],horizontal,"(390.0, 262.0)",0.75,0.521,1,4543.258,1,0.1,0.25
0,64,target,"[(1033, 768)]",[],[1],[0.25],horizontal,"(890.0, 262.0)",0.8,0.216,1,4547.975,1,0.1,0.25
0,65,target,"[(1054, 773)]",[],[1],[0.3833333333333333],horizontal,"(390.0, 262.0)",1.466666667,0.343,1,4552.709,2,0.08,0.25
0,66,target,"[(1037, 774)]",[],[1],[0.36666666666666664],vertical,"(390.0, 762.0)",1.5,0.324,1,4558.934,2,0.08,0.25
0,67,target,"[(1073, 804)]",[],[1],[0.5333333333333333],vertical,"(390.0, 762.0)",0.616666667,0.496,1,4564.381,2,0.08,0.25
0,68,target,"[(1057, 799)]",[],[1],[0.48333333333333334],horizontal,"(390.0, 762.0)",1.1,0.44,1,4569.907,2,0.08,0.25
0,69,target,"[(1056, 782)]",[],[1],[0.6333333333333333],horizontal,"(390.0, 762.0)",0.416666667,0.587,1,4575.39,3,0.08,0.25
0,70,catch,"[(1030, 774)]",[],[1],[0.03333333333333333],vertical,"(390.0, 762.0)",1.6,"0.02,nan",0,4580.642,0,0.1,0.25
0,71,target,"[(1053, 790)]",[],[1],[0.6],horizontal,"(890.0, 262.0)",0.916666667,0.556,1,4585.058,1,0.1,0.25
0,72,target,"[(1054, 781)]",[],[1],[0.5666666666666667],horizontal,"(390.0, 762.0)",0.816666667,0.521,1,4590.347,1,0.1,0.25
0,73,target,"[(1045, 789)]",[],[1],[0.85],horizontal,"(890.0, 762.0)",0.95,nan,0,4594.822,0,0.1,0.25
0,74,target,"[(1053, 803)]",[],[1],[0.6],vertical,"(390.0, 762.0)",0.683333333,0.551,1,4599.53,1,0.08,0.25
0,75,target,"[(1049, 768)]",[],[1],[0.5166666666666666],vertical,"(390.0, 762.0)",0.6,0.479,1,4604.566,1,0.06,0.15
0,76,target,"[(1072, 805)]",[],[1],[0.48333333333333334],vertical,"(390.0, 262.0)",0.633333333,0.443,1,4609.204,1,0.06,0.15
0,77,catch,"[(1060, 782)]",[],[1],[],horizontal,"(390.0, 762.0)",1.6,nan,1,4613.942,2,0.06,0.15
0,78,target,"[(1073, 808)]",[],[1],[0.5],horizontal,"(390.0, 262.0)",1.15,0.458,1,4619.258,2,0.06,0.15
0,79,catch,"[(1065, 811)]",[],[1],[],horizontal,"(890.0, 762.0)",1.6,nan,1,4624.941,2,0.06,0.15
0,80,target,"[(1052, 799)]",[],[1],[0.43333333333333335],horizontal,"(890.0, 262.0)",1.366666667,0.391,1,4630.393,2,0.06,0.15
0,81,target,"[(1037, 802)]",[],[1],[0.5666666666666667],vertical,"(390.0, 262.0)",0.766666667,0.533,1,4636.484,3,0.06,0.15
0,82,target,"[(1061, 788)]",[],[1],[0.5833333333333334],horizontal,"(890.0, 762.0)",0.95,0.543,1,4642.459,3,0.06,0.15
0,83,target,"[(1034, 778)]",[],[1],[0.85],horizontal,"(890.0, 762.0)",0.483333333,nan,0,4648.012,0,0.06,0.15
0,84,target,"[(1033, 812)]",[],[1],[0.85],vertical,"(390.0, 762.0)",0.883333333,nan,0,4652.225,0,0.06,0.15
0,85,target,"[(1033, 798)]",[],[1],[0.55],horizontal,"(890.0, 762.0)",1.216666667,0.511,1,4657.191,1,0.06,0.15
0,86,target,"[(1052, 770)]",[],[1],[0.5333333333333333],horizontal,"(890.0, 762.0)",1.05,0.498,1,4662.31,1,0.06,0.15
0,87,target,"[(1034, 776)]",[],[1],[0.5666666666666667],horizontal,"(390.0, 262.0)",0.716666667,0.517,1,4667.547,1,0.06,0.15
0,88,target,"[(1054, 804)]",[],[1],[0.6],vertical,"(390.0, 762.0)",1.066666667,0.565,1,4672.009,2,0.06,0.15
0,89,target,"[(1054, 795)]",[],[1],[0.6166666666666667],horizontal,"(890.0, 762.0)",0.516666667,0.572,1,4677.974,2,0.06,0.15
0,90,target,"[(1038, 798)]",[],[1],[0.45],horizontal,"(890.0, 262.0)",1.333333333,0.41,1,4682.994,2,0.06,0.15
0,91,target,"[(1054, 786)]",[],[1],[0.5],horizontal,"(390.0, 262.0)",0.783333333,0.458,1,4688.875,2,0.06,0.15
0,92,target,"[(1069, 811)]",[],[1],[0.5],vertical,"(890.0, 762.0)",0.416666667,0.462,1,4693.991,3,0.06,0.15
0,93,target,"[(1033, 782)]",[],[1],[0.6166666666666667],horizontal,"(390.0, 262.0)",0.883333333,0.569,1,4699.109,3,0.06,0.15
0,94,target,"[(1041, 780)]",[],[1],[0.6666666666666666],vertical,"(890.0, 262.0)",0.4,0.623,1,4704.498,3,0.06,0.15
0,95,target,"[(1055, 787)]",[],[1],[0.45],vertical,"(890.0, 262.0)",0.666666667,0.405,1,4709.659,3,0.06,0.15
0,96,target,"[(1034, 787)]",[],[1],[0.65],horizontal,"(390.0, 262.0)",0.35,0.603,1,4714.674,3,0.06,0.15
0,97,target,"[(1036, 761)]",[],[1],[0.6],horizontal,"(890.0, 762.0)",0.7,0.559,1,4719.925,3,0.06,0.15
0,98,target,"[(1044, 770)]",[],[1],[0.6666666666666666],horizontal,"(890.0, 762.0)",1.033333333,0.629,1,4725.674,3,0.06,0.15
0,99,target,"[(1033, 781)]",[],[1],[0.6166666666666667],vertical,"(390.0, 762.0)",0.916666667,0.573,1,4731.398,3,0.06,0.15
0,100,target,"[(1022, 784)]",[],[1],[0.5],horizontal,"(390.0, 762.0)",0.933333333,0.457,1,4737.458,3,0.06,0.15
0,101,target,"[(1052, 794)]",[],[1],[0.48333333333333334],horizontal,"(390.0, 262.0)",1.25,0.447,1,4743.267,3,0.06,0.15
0,102,target,"[(1029, 757)]",[],[1],[0.1],horizontal,"(890.0, 262.0)",1.5,0.066,0,4749.158,0,0.06,0.15
0,103,target,"[(1033, 804)]",[],[1],[0.4666666666666667],vertical,"(890.0, 262.0)",1.033333333,0.434,1,4753.723,1,0.06,0.15
0,104,target,"[(1053, 795)]",[],[1],[0.5],vertical,"(890.0, 762.0)",1.5,0.462,1,4758.525,1,0.06,0.15
0,105,catch,"[(1053, 783)]",[],[1],[],horizontal,"(890.0, 262.0)",1.6,nan,1,4763.817,1,0.06,0.15
0,106,target,"[(1053, 820)]",[],[1],[0.6833333333333333],vertical,"(390.0, 762.0)",0.783333333,0.64,1,4768.692,2,0.06,0.15
0,107,target,"[(1050, 779)]",[],[1],[0.48333333333333334],vertical,"(890.0, 262.0)",1.083333333,0.442,1,4774.497,2,0.06,0.15
0,108,target,"[(1050, 805)]",[],[1],[0.6666666666666666],vertical,"(890.0, 762.0)",0.883333333,0.637,1,4779.754,2,0.04,0.15
0,109,target,"[(1052, 796)]",[],[1],[0.6166666666666667],horizontal,"(390.0, 262.0)",0.65,0.578,1,4785.533,2,0.04,0.15
0,110,target,"[(1033, 802)]",[],[1],[0.6166666666666667],horizontal,"(890.0, 762.0)",0.366666667,0.573,1,4791.122,3,0.04,0.15
0,111,target,"[(1029, 786)]",[],[1],[0.5333333333333333],horizontal,"(390.0, 262.0)",0.5,0.49,1,4796.565,3,0.02,0.15
0,112,target,"[(1034, 774)]",[],[1],[0.3333333333333333],vertical,"(890.0, 762.0)",1.283333333,0.294,1,4801.841,3,0.02,0.15
0,113,target,"[(1037, 785)]",[],[1],[0.2],horizontal,"(890.0, 262.0)",1.45,0.167,0,4807.524,0,0.02,0.15
0,114,target,"[(1029, 803)]",[],[1],[0.26666666666666666],vertical,"(390.0, 262.0)",1.383333333,0.233,1,4812.275,1,0.02,0.15
0,115,target,"[(1041, 781)]",[],[1],[0.5333333333333333],vertical,"(390.0, 262.0)",1.016666667,0.496,1,4817.728,1,0.02,0.15
0,116,target,"[(1055, 785)]",[],[1],[0.6833333333333333],horizontal,"(390.0, 262.0)",1,0.642,1,4822.675,1,0.02,0.15
0,117,target,"[(1057, 792)]",[],[1],[0.48333333333333334],horizontal,"(890.0, 262.0)",0.583333333,0.446,1,4828.126,2,0.02,0.15
0,118,target,"[(1037, 779)]",[],[1],[0.48333333333333334],vertical,"(890.0, 762.0)",1.266666667,0.444,1,4833.349,2,0.02,0.15
0,119,target,"[(1032, 787)]",[],[1],[0.6333333333333333],vertical,"(890.0, 262.0)",0.366666667,0.601,1,4839.344,2,0.02,0.15
0,120,catch,"[(1036, 824)]",[],[1],[],vertical,"(890.0, 262.0)",,"('cti', 1.389),nan",0,4843.892,0,0.02,0.15
0,121,target,"[(1033, 796)]",[],[1],[0.5],vertical,"(890.0, 262.0)",1.283333333,0.458,1,4848.509,1,0.02,0.15
0,122,target,"[(1036, 773)]",[],[1],[0.45],horizontal,"(890.0, 762.0)",1.266666667,0.41,1,4853.538,1,0.02,0.15
0,123,target,"[(1033, 776)]",[],[1],[0.5333333333333333],horizontal,"(890.0, 762.0)",1.383333333,0.492,1,4859.042,1,0.02,0.15
0,124,target,"[(1065, 786)]",[],[1],[0.5666666666666667],vertical,"(390.0, 262.0)",1.233333333,0.53,1,4864.055,2,0.02,0.15
0,125,target,"[(1059, 804)]",[],[1],[0.18333333333333332],vertical,"(890.0, 262.0)",1.483333333,0.148,0,4869.609,0,0.02,0.15
0,126,target,"[(1041, 811)]",[],[1],[0.6666666666666666],vertical,"(890.0, 762.0)",0.916666667,0.623,1,4874.325,1,0.02,0.15
0,127,target,"[(1033, 775)]",[],[1],[0.6833333333333333],horizontal,"(890.0, 762.0)",1.1,0.644,1,4879.709,1,0.02,0.15
0,128,target,"[(1049, 810)]",[],[1],[0.85],vertical,"(390.0, 762.0)",0.383333333,nan,0,4884.909,0,0.02,0.15
0,129,target,"[(1035, 801)]",[],[1],[0.5166666666666666],vertical,"(890.0, 762.0)",0.916666667,0.475,1,4889.326,1,0.02,0.15
0,130,target,"[(1050, 799)]",[],[1],[0.48333333333333334],horizontal,"(390.0, 262.0)",0.583333333,0.444,1,4893.959,1,0.02,0.15
0,131,target,"[(1054, 806)]",[],[1],[0.5333333333333333],horizontal,"(890.0, 262.0)",0.7,0.49,1,4898.887,1,0.02,0.15
0,132,catch,"[(1044, 804)]",[],[1],[],horizontal,"(890.0, 262.0)",1.6,nan,1,4903.472,2,0.02,0.15
0,133,target,"[(1052, 808)]",[],[1],[0.55],horizontal,"(390.0, 262.0)",1.15,0.508,1,4909.055,2,0.02,0.15
0,134,catch,"[(1044, 786)]",[],[1],[],vertical,"(390.0, 762.0)",1.6,nan,1,4914.842,2,0.02,0.15
0,135,target,"[(1037, 794)]",[],[1],[0.5333333333333333],vertical,"(890.0, 262.0)",0.7,0.496,1,4920.581,2,0.02,0.15
0,136,target,"[(1050, 776)]",[],[1],[0.4666666666666667],vertical,"(390.0, 262.0)",1.25,0.434,1,4925.693,3,0.02,0.15
0,137,target,"[(1033, 789)]",[],[1],[0.5166666666666666],vertical,"(390.0, 262.0)",1.116666667,0.484,1,4931.501,3,0.02,0.15
0,138,target,"[(1029, 776)]",[],[1],[0.5],horizontal,"(890.0, 762.0)",1.133333333,0.459,1,4937.172,3,0.02,0.15
0,139,catch,"[(1056, 791)]",[],[1],[],horizontal,"(390.0, 262.0)",,"('cti', 1.559),nan",0,4943.342,0,0.04,0.15
0,140,target,"[(1029, 791)]",[],[1],[0.5833333333333334],horizontal,"(890.0, 262.0)",1.133333333,0.543,1,4947.853,1,0.04,0.15
0,141,target,"[(1037, 787)]",[],[1],[0.6333333333333333],vertical,"(390.0, 262.0)",0.833333333,0.589,1,4952.983,1,0.04,0.15
0,142,catch,"[(1034, 778)]",[],[1],[],vertical,"(390.0, 262.0)",1.6,nan,1,4958.118,1,0.04,0.15
0,143,catch,"[(1045, 784)]",[],[1],[],horizontal,"(890.0, 262.0)",1.6,nan,1,4963.602,2,0.04,0.15
0,144,target,"[(1049, 797)]",[],[1],[0.6],vertical,"(890.0, 762.0)",0.766666667,0.563,1,4969.209,2,0.04,0.15
0,145,target,"[(1051, 798)]",[],[1],[0.5333333333333333],horizontal,"(390.0, 762.0)",0.766666667,0.495,1,4974.509,2,0.04,0.15
0,146,target,"[(1053, 803)]",[],[1],[0.65],vertical,"(890.0, 762.0)",1.1,0.607,1,4979.548,2,0.04,0.15
0,147,target,"[(1029, 802)]",[],[1],[0.5666666666666667],vertical,"(890.0, 262.0)",1.366666667,0.523,1,4985.193,3,0.04,0.15
0,148,target,"[(1017, 779)]",[],[1],[0.8166666666666667],horizontal,"(890.0, 762.0)",0.45,0.775,1,4991.076,3,0.04,0.15
0,149,target,"[(1038, 790)]",[],[1],[0.5833333333333334],vertical,"(890.0, 262.0)",1.166666667,0.541,1,4996.714,3,0.04,0.15
0,150,catch,"[(1036, 788)]",[],[1],[],horizontal,"(890.0, 762.0)",1.6,nan,1,5002.79,3,0.04,0.15
0,151,target,"[(1033, 799)]",[],[1],[0.5166666666666666],horizontal,"(890.0, 262.0)",0.733333333,0.477,1,5009.159,3,0.04,0.15
0,152,target,"[(1057, 793)]",[],[1],[0.55],horizontal,"(890.0, 262.0)",1.383333333,0.508,1,5015.137,3,0.04,0.15
0,153,target,"[(1050, 788)]",[],[1],[0.2833333333333333],vertical,"(390.0, 262.0)",1.316666667,0.252,1,5021.17,3,0.04,0.15
0,154,target,"[(1033, 776)]",[],[1],[0.85],horizontal,"(390.0, 762.0)",0.433333333,nan,0,5027.29,0,0.04,0.15
0,155,target,"[(1017, 798)]",[],[1],[0.5833333333333334],vertical,"(890.0, 262.0)",0.366666667,0.54,1,5031.233,1,0.04,0.15
0,156,target,"[(1034, 787)]",[],[1],[0.43333333333333335],horizontal,"(390.0, 762.0)",1.3,0.393,1,5035.883,1,0.04,0.15
0,157,catch,"[(1037, 791)]",[],[1],[],horizontal,"(890.0, 762.0)",,"('cti', 1.534),nan",0,5041.43,0,0.06,0.15
0,158,target,"[(1029, 796)]",[],[1],[0.6],horizontal,"(890.0, 762.0)",0.766666667,0.559,1,5046.101,1,0.06,0.15
0,159,target,"[(1041, 780)]",[],[1],[0.5666666666666667],vertical,"(390.0, 762.0)",1.25,0.526,1,5051.043,1,0.06,0.15
0,160,catch,"[(1043, 802)]",[],[1],[],vertical,"(890.0, 762.0)",1.6,nan,1,5055.979,1,0.06,0.15
0,161,target,"[(1043, 796)]",[],[1],[0.6333333333333333],vertical,"(390.0, 262.0)",0.716666667,0.591,1,5061.1,2,0.06,0.15
0,162,target,"[(1052, 795)]",[],[1],[0.35],horizontal,"(390.0, 762.0)",1.366666667,0.308,1,5066.393,2,0.06,0.15
0,163,target,"[(1022, 798)]",[],[1],[0.55],vertical,"(890.0, 262.0)",1.183333333,0.506,1,5071.91,2,0.06,0.15
0,164,target,"[(1029, 803)]",[],[1],[0.55],vertical,"(890.0, 262.0)",0.633333333,0.508,1,5077.704,2,0.06,0.15
0,165,target,"[(1052, 811)]",[],[1],[0.6166666666666667],vertical,"(390.0, 762.0)",1.116666667,0.584,1,5083.041,3,0.06,0.15
0,166,target,"[(1024, 784)]",[],[1],[0.85],horizontal,"(390.0, 762.0)",0.416666667,nan,0,5089.04,0,0.06,0.15
0,167,target,"[(1022, 821)]",[],[1],[0.6666666666666666],vertical,"(890.0, 762.0)",1.033333333,0.624,1,5093.568,1,0.06,0.15
0,168,target,"[(1019, 776)]",[],[1],[0.6],vertical,"(890.0, 762.0)",0.6,0.554,1,5100.893,1,0.06,0.15
0,169,target,"[(1026, 807)]",[],[1],[0.55],vertical,"(890.0, 762.0)",1.4,0.508,1,5105.283,1,0.06,0.15
0,170,target,"[(1025, 801)]",[],[1],[0.65],vertical,"(890.0, 262.0)",0.566666667,0.612,1,5110.807,2,0.04,0.15
0,171,target,"[(1038, 806)]",[],[1],[0.48333333333333334],vertical,"(390.0, 262.0)",1.266666667,0.441,1,5116.38,2,0.04,0.15
0,172,target,"[(1033, 802)]",[],[1],[0.6166666666666667],horizontal,"(390.0, 762.0)",0.566666667,0.576,1,5121.958,2,0.04,0.15
0,173,target,"[(1038, 797)]",[],[1],[0.6],vertical,"(890.0, 762.0)",1.383333333,0.557,1,5127.443,2,0.04,0.15
0,174,catch,"[(1029, 802)]",[],[1],[],horizontal,"(390.0, 762.0)",1.6,nan,1,5133.215,3,0.04,0.15
0,175,target,"[(1041, 781)]",[],[1],[0.55],horizontal,"(390.0, 762.0)",0.5,0.507,1,5139.056,3,0.04,0.15
0,176,target,"[(1045, 782)]",[],[1],[0.45],vertical,"(890.0, 262.0)",1.416666667,0.409,1,5144.623,3,0.04,0.15
0,177,catch,"[(1041, 793)]",[],[1],[],horizontal,"(890.0, 262.0)",1.6,nan,1,5150.471,3,0.04,0.15
0,178,target,"[(1033, 793)]",[],[1],[0.85],vertical,"(890.0, 262.0)",0.633333333,nan,0,5156.015,0,0.04,0.15
0,179,target,"[(1027, 811)]",[],[1],[0.7166666666666667],vertical,"(390.0, 762.0)",0.633333333,0.673,1,5160.46,1,0.04,0.15
0,180,target,"[(1041, 790)]",[],[1],[0.5333333333333333],vertical,"(890.0, 262.0)",1.15,0.488,1,5166.86,1,0.04,0.15
0,181,target,"[(1039, 776)]",[],[1],[0.7333333333333333],horizontal,"(890.0, 762.0)",0.95,0.685,1,5171.727,1,0.04,0.15
0,182,target,"[(1072, 803)]",[],[1],[0.3333333333333333],horizontal,"(890.0, 262.0)",1.333333333,0.296,1,5176.585,2,0.04,0.15
0,183,target,"[(1035, 789)]",[],[1],[0.5],vertical,"(890.0, 262.0)",1.266666667,0.457,1,5182.176,2,0.04,0.15
0,184,catch,"[(1050, 798)]",[],[1],[],vertical,"(890.0, 762.0)",1.6,"('cti', 1.591),nan",0,5187.693,0,0.06,0.15
0,185,target,"[(1033, 804)]",[],[1],[0.5166666666666666],horizontal,"(890.0, 762.0)",0.75,0.479,1,5192.877,1,0.06,0.15
0,186,target,"[(1035, 796)]",[],[1],[0.6333333333333333],vertical,"(890.0, 262.0)",0.833333333,0.59,1,5197.582,1,0.06,0.15
0,187,target,"[(1051, 790)]",[],[1],[0.5333333333333333],horizontal,"(890.0, 262.0)",0.583333333,0.502,1,5202.759,1,0.06,0.15
0,188,target,"[(1060, 802)]",[],[1],[0.5833333333333334],vertical,"(890.0, 262.0)",0.65,0.545,1,5207.085,2,0.06,0.15
0,189,target,"[(1041, 798)]",[],[1],[0.6666666666666666],horizontal,"(890.0, 762.0)",1.533333333,0.622,1,5212.559,2,0.04,0.15
0,190,target,"[(1045, 792)]",[],[1],[0.4],vertical,"(890.0, 262.0)",1.516666667,0.361,1,5218.22,2,0.04,0.15
0,191,catch,"[(1021, 803)]",[],[1],[],vertical,"(890.0, 762.0)",1.6,nan,1,5224.098,2,0.04,0.15
0,192,target,"[(1057, 801)]",[],[1],[0.65],horizontal,"(890.0, 262.0)",0.683333333,0.611,1,5230.877,3,0.04,0.15
0,193,target,"[(1022, 793)]",[],[1],[0.5166666666666666],horizontal,"(890.0, 762.0)",1.25,0.473,1,5236.403,3,0.04,0.15
0,194,target,"[(1055, 795)]",[],[1],[0.36666666666666664],horizontal,"(390.0, 762.0)",1.216666667,0.326,1,5242.175,3,0.04,0.15
0,195,target,"[(1040, 782)]",[],[1],[0.5333333333333333],horizontal,"(890.0, 262.0)",0.7,0.494,1,5248.008,3,0.04,0.15
0,196,target,"[(1052, 800)]",[],[1],[0.6],vertical,"(890.0, 262.0)",0.466666667,0.558,1,5253.281,3,0.04,0.15
0,197,target,"[(1036, 779)]",[],[1],[0.5],horizontal,"(390.0, 762.0)",0.783333333,0.463,1,5258.625,3,0.04,0.15
0,198,target,"[(1055, 815)]",[],[1],[0.5],horizontal,"(890.0, 762.0)",0.7,0.461,1,5264.076,3,0.04,0.15
0,199,target,"[(1045, 799)]",[],[1],[0.5333333333333333],horizontal,"(390.0, 262.0)",0.866666667,0.492,1,5270.1,3,0.04,0.15
0,200,target,"[(1056, 803)]",[],[1],[0.5],vertical,"(390.0, 262.0)",0.65,0.46,1,5275.891,3,0.04,0.15
0,201,target,"[(1033, 794)]",[],[1],[0.4],vertical,"(890.0, 762.0)",1.266666667,0.364,1,5281.221,3,0.04,0.15
0,202,target,"[(1056, 798)]",[],[1],[0.48333333333333334],horizontal,"(890.0, 262.0)",0.833333333,0.445,1,5287.284,3,0.04,0.15
0,203,target,"[(1052, 804)]",[],[1],[0.5333333333333333],horizontal,"(890.0, 762.0)",0.366666667,0.494,1,5292.676,3,0.04,0.15
0,204,target,"[(1052, 794)]",[],[1],[0.5166666666666666],horizontal,"(390.0, 762.0)",0.766666667,0.477,1,5298.366,3,0.04,0.15
0,205,target,"[(1031, 785)]",[],[1],[0.85],horizontal,"(890.0, 762.0)",0.616666667,nan,0,5304.061,0,0.04,0.15
0,206,catch,"[(1037, 816)]",[],[1],[],vertical,"(890.0, 762.0)",1.6,nan,1,5308.07,1,0.04,0.15
0,207,target,"[(1025, 796)]",[],[1],[0.43333333333333335],vertical,"(390.0, 762.0)",1.45,0.399,1,5312.994,1,0.02,0.15
0,208,target,"[(1053, 787)]",[],[1],[0.5166666666666666],vertical,"(890.0, 762.0)",0.716666667,0.475,1,5317.841,1,0.02,0.15
0,209,target,"[(1031, 822)]",[],[1],[0.36666666666666664],vertical,"(890.0, 762.0)",1.466666667,0.33,1,5323.22,2,0.02,0.15
0,210,target,"[(1026, 795)]",[],[1],[0.55],vertical,"(390.0, 762.0)",0.9,0.509,1,5329.811,2,0.02,0.15
0,211,target,"[(1052, 773)]",[],[1],[0.85],vertical,"(890.0, 762.0)",0.55,nan,0,5335.044,0,0.02,0.15
0,212,target,"[(1036, 805)]",[],[1],[0.5333333333333333],vertical,"(390.0, 762.0)",0.883333333,0.498,1,5339.511,1,0.02,0.15
0,213,target,"[(1067, 787)]",[],[1],[0.5],vertical,"(390.0, 762.0)",0.833333333,0.464,1,5344.532,1,0.02,0.15
0,214,target,"[(1052, 796)]",[],[1],[0.5833333333333334],horizontal,"(890.0, 762.0)",0.833333333,0.546,1,5349.578,1,0.02,0.15
0,215,target,"[(1032, 801)]",[],[1],[0.35],horizontal,"(890.0, 762.0)",1.5,0.314,1,5354.082,2,0.02,0.15
0,216,target,"[(1038, 797)]",[],[1],[0.4666666666666667],horizontal,"(890.0, 762.0)",1.233333333,0.434,1,5359.75,2,0.02,0.15
0,217,target,"[(1043, 786)]",[],[1],[0.5166666666666666],horizontal,"(890.0, 262.0)",0.733333333,0.477,1,5365.287,2,0.02,0.15
0,218,target,"[(1018, 798)]",[],[1],[0.7166666666666667],horizontal,"(390.0, 262.0)",0.45,0.673,1,5370.242,2,0.02,0.15
0,219,target,"[(1053, 811)]",[],[1],[0.2],horizontal,"(390.0, 762.0)",1.316666667,0.171,0,5375.403,0,0.02,0.15
0,220,target,"[(1033, 785)]",[],[1],[0.5833333333333334],vertical,"(890.0, 262.0)",1.05,0.539,1,5380.161,1,0.02,0.15
0,221,target,"[(1032, 796)]",[],[1],[0.3],vertical,"(890.0, 762.0)",1.266666667,0.262,1,5385.474,1,0.02,0.15
0,222,target,"[(1030, 779)]",[],[1],[0.5833333333333334],horizontal,"(390.0, 762.0)",1.266666667,0.54,1,5390.953,1,0.02,0.15
0,223,target,"[(1041, 783)]",[],[1],[0.2833333333333333],horizontal,"(890.0, 262.0)",1.483333333,0.246,1,5396.027,2,0.02,0.15
0,224,target,"[(1054, 798)]",[],[1],[0.55],horizontal,"(390.0, 762.0)",0.933333333,0.513,1,5401.628,2,0.02,0.15
0,225,catch,"[(1051, 794)]",[],[1],[],horizontal,"(390.0, 262.0)",1.6,nan,1,5407.26,2,0.02,0.15
0,226,catch,"[(1037, 806)]",[],[1],[],vertical,"(890.0, 262.0)",1.6,nan,1,5412.589,2,0.02,0.15
0,227,target,"[(1054, 799)]",[],[1],[0.5666666666666667],horizontal,"(390.0, 262.0)",0.583333333,0.525,1,5418.325,3,0.02,0.15
0,228,target,"[(1029, 814)]",[],[1],[0.55],horizontal,"(390.0, 262.0)",0.966666667,0.507,1,5423.646,3,0.02,0.15
0,229,target,"[(1055, 806)]",[],[1],[0.5],horizontal,"(390.0, 262.0)",0.6,0.464,1,5429.662,3,0.02,0.15
0,230,target,"[(1056, 793)]",[],[1],[0.21666666666666667],vertical,"(390.0, 762.0)",1.4,0.182,0,5435.444,0,0.02,0.15
0,231,target,"[(1017, 802)]",[],[1],[0.4166666666666667],horizontal,"(390.0, 762.0)",0.666666667,0.384,1,5440.061,1,0.02,0.15
0,232,target,"[(1022, 778)]",[],[1],[0.5],horizontal,"(390.0, 262.0)",1.183333333,0.459,1,5445.076,1,0.02,0.15
0,233,target,"[(1037, 799)]",[],[1],[0.6],vertical,"(390.0, 262.0)",0.4,0.555,1,5450.244,1,0.02,0.15
0,234,target,"[(1058, 799)]",[],[1],[0.5666666666666667],horizontal,"(390.0, 262.0)",0.35,0.533,1,5454.655,2,0,0.15
0,235,target,"[(1048, 768)]",[],[1],[0.5666666666666667],horizontal,"(890.0, 262.0)",0.65,0.535,1,5459.504,2,0,0.15
0,236,target,"[(1053, 807)]",[],[1],[0.7166666666666667],vertical,"(390.0, 762.0)",1.133333333,0.667,1,5464.545,2,0,0.15
0,237,target,"[(1060, 795)]",[],[1],[0.3833333333333333],vertical,"(390.0, 762.0)",1.183333333,0.351,1,5470.011,2,0,0.15
0,238,target,"[(1026, 789)]",[],[1],[0.16666666666666666],vertical,"(390.0, 262.0)",1.5,0.132,0,5475.706,0,0,0.15
0,239,target,"[(1034, 804)]",[],[1],[0.55],horizontal,"(890.0, 762.0)",1,0.511,1,5480.031,1,0,0.15
0,240,target,"[(1036, 803)]",[],[1],[0.5333333333333333],horizontal,"(890.0, 762.0)",0.516666667,0.503,1,5484.652,1,0,0.15
0,241,target,"[(1027, 819)]",[],[1],[0.5333333333333333],vertical,"(890.0, 262.0)",1.2,0.488,1,5488.922,1,0,0.15
0,242,target,"[(1045, 805)]",[],[1],[0.5],horizontal,"(890.0, 262.0)",0.6,0.46,1,5494.142,2,0,0.15
0,243,target,"[(1033, 799)]",[],[1],[0.48333333333333334],vertical,"(390.0, 262.0)",0.966666667,0.442,1,5499.394,2,0,0.15
0,244,catch,"[(1029, 778)]",[],[1],[],horizontal,"(890.0, 762.0)",,"('cti', 1.487),nan",0,5504.458,0,0.02,0.15
0,245,target,"[(1029, 803)]",[],[1],[0.13333333333333333],vertical,"(890.0, 762.0)",1.5,0.099,0,5509.303,0,0.02,0.15
0,246,target,"[(1017, 815)]",[],[1],[0.65],horizontal,"(390.0, 262.0)",1.083333333,0.618,1,5514.266,1,0.02,0.15
0,247,target,"[(1058, 784)]",[],[1],[0.5333333333333333],vertical,"(890.0, 262.0)",1.283333333,0.493,1,5519.459,1,0.02,0.15
0,248,target,"[(1063, 772)]",[],[1],[0.6],horizontal,"(390.0, 762.0)",0.4,0.556,1,5524.984,1,0.02,0.15
0,249,target,"[(1057, 819)]",[],[1],[0.6666666666666666],horizontal,"(890.0, 762.0)",0.783333333,0.625,1,5529.595,2,0.02,0.15
0,250,target,"[(1055, 791)]",[],[1],[0.5333333333333333],vertical,"(890.0, 262.0)",0.866666667,0.49,1,5535.006,2,0.02,0.15
0,251,target,"[(1032, 812)]",[],[1],[0.85],horizontal,"(390.0, 262.0)",0.85,nan,0,5540.594,0,0.02,0.15
0,252,target,"[(1021, 819)]",[],[1],[0.55],horizontal,"(890.0, 762.0)",0.966666667,0.507,1,5545.228,1,0.02,0.15
0,253,target,"[(1060, 791)]",[],[1],[0.5666666666666667],vertical,"(890.0, 762.0)",0.466666667,0.523,1,5550.084,1,0.02,0.15
0,254,target,"[(1061, 798)]",[],[1],[0.35],horizontal,"(390.0, 262.0)",1.533333333,0.317,1,5554.301,1,0.02,0.15
0,255,target,"[(1052, 792)]",[],[1],[0.43333333333333335],horizontal,"(890.0, 762.0)",1.383333333,0.391,1,5559.662,2,0.02,0.15
0,256,target,"[(1017, 779)]",[],[1],[0.6166666666666667],horizontal,"(890.0, 762.0)",0.533333333,0.57,1,5565.493,2,0.02,0.15
0,257,catch,"[(1029, 784)]",[],[1],[],vertical,"(390.0, 762.0)",1.6,nan,1,5570.694,2,0.02,0.15
0,258,target,"[(1051, 801)]",[],[1],[0.23333333333333334],vertical,"(390.0, 762.0)",1.483333333,0.196,0,5576.394,0,0.02,0.15
0,259,target,"[(1026, 798)]",[],[1],[0.85],horizontal,"(890.0, 762.0)",1.083333333,nan,0,5581.294,0,0.02,0.15
0,260,target,"[(1012, 808)]",[],[1],[0.5166666666666666],vertical,"(390.0, 262.0)",0.666666667,0.474,1,5585.928,1,0.02,0.15
0,261,catch,"[(1032, 796)]",[],[1],[],vertical,"(890.0, 762.0)",1.6,nan,1,5595.727,1,0.02,0.15
0,262,catch,"[(1021, 791)]",[],[1],[],vertical,"(890.0, 762.0)",1.6,nan,1,5600.877,1,0.02,0.15
0,263,target,"[(1032, 792)]",[],[1],[0.55],horizontal,"(890.0, 262.0)",0.766666667,0.504,1,5605.854,2,0.02,0.15
0,264,target,"[(1033, 801)]",[],[1],[0.25],horizontal,"(390.0, 762.0)",1.383333333,0.214,1,5610.676,2,0.02,0.15
0,265,target,"[(1032, 791)]",[],[1],[0.4666666666666667],vertical,"(390.0, 262.0)",1.35,0.426,1,5616.139,2,0.02,0.15
0,266,target,"[(1057, 792)]",[],[1],[0.65],vertical,"(390.0, 262.0)",0.716666667,0.608,1,5621.494,2,0.02,0.15
0,267,target,"[(1032, 801)]",[],[1],[0.5166666666666666],vertical,"(890.0, 262.0)",0.633333333,0.476,1,5626.614,3,0.02,0.15
0,268,target,"[(1017, 800)]",[],[1],[0.5833333333333334],horizontal,"(390.0, 762.0)",0.616666667,0.544,1,5632.154,3,0.02,0.15
0,269,target,"[(1037, 790)]",[],[1],[0.4166666666666667],horizontal,"(890.0, 262.0)",1.35,0.378,1,5637.512,3,0.02,0.15
0,270,target,"[(1057, 799)]",[],[1],[0.5333333333333333],vertical,"(390.0, 762.0)",1.2,0.493,1,5643.505,3,0.02,0.15
0,271,target,"[(1029, 796)]",[],[1],[0.48333333333333334],vertical,"(890.0, 762.0)",1.233333333,0.439,1,5649.594,3,0.02,0.15
0,272,target,"[(1051, 796)]",[],[1],[0.48333333333333334],horizontal,"(390.0, 262.0)",1,0.451,1,5655.278,3,0.02,0.15
0,273,target,"[(1025, 782)]",[],[1],[0.5833333333333334],horizontal,"(890.0, 262.0)",0.683333333,0.541,1,5660.744,3,0.02,0.15
0,274,target,"[(1033, 791)]",[],[1],[0.5833333333333334],vertical,"(890.0, 262.0)",1.116666667,0.549,1,5666.528,3,0.02,0.15
0,275,target,"[(1057, 800)]",[],[1],[0.5833333333333334],horizontal,"(390.0, 762.0)",0.583333333,0.541,1,5672.481,3,0.02,0.15
0,276,target,"[(1029, 802)]",[],[1],[0.5],vertical,"(890.0, 762.0)",1.233333333,0.456,1,5678.095,3,0.02,0.15
0,277,target,"[(1022, 797)]",[],[1],[0.18333333333333332],vertical,"(390.0, 262.0)",1.466666667,0.151,0,5684.262,0,0.02,0.15
0,278,target,"[(1030, 805)]",[],[1],[0.55],vertical,"(390.0, 262.0)",0.516666667,0.506,1,5688.918,1,0.02,0.15
0,279,target,"[(1031, 782)]",[],[1],[0.5833333333333334],horizontal,"(890.0, 762.0)",1.1,0.537,1,5693.654,1,0.02,0.15
0,280,target,"[(1057, 786)]",[],[1],[0.6666666666666666],vertical,"(390.0, 762.0)",0.533333333,0.617,1,5698.853,1,0.02,0.15
0,281,target,"[(1057, 812)]",[],[1],[0.6666666666666666],horizontal,"(890.0, 262.0)",1.116666667,0.625,1,5703.611,2,0.02,0.15
0,282,target,"[(1054, 792)]",[],[1],[0.26666666666666666],vertical,"(390.0, 762.0)",1.4,0.228,1,5709.561,2,0.02,0.15
0,283,target,"[(1057, 802)]",[],[1],[0.55],horizontal,"(890.0, 762.0)",0.983333333,0.503,1,5715.243,2,0.02,0.15
0,284,target,"[(1038, 798)]",[],[1],[0.5333333333333333],horizontal,"(890.0, 262.0)",0.633333333,0.491,1,5720.591,2,0.02,0.15
0,285,target,"[(1033, 809)]",[],[1],[0.85],horizontal,"(390.0, 762.0)",0.733333333,nan,0,5725.577,0,0.02,0.15
0,286,target,"[(1026, 799)]",[],[1],[0.5333333333333333],vertical,"(890.0, 262.0)",1.016666667,0.492,1,5730.38,1,0.02,0.15
0,287,target,"[(1040, 796)]",[],[1],[0.6166666666666667],vertical,"(390.0, 762.0)",0.583333333,0.57,1,5735.251,1,0.02,0.15
0,288,target,"[(1022, 776)]",[],[1],[0.25],horizontal,"(890.0, 762.0)",1.433333333,0.215,1,5739.929,1,0.02,0.15
0,289,target,"[(1031, 801)]",[],[1],[0.3833333333333333],horizontal,"(390.0, 762.0)",1.45,0.345,1,5744.909,2,0.02,0.15
0,290,target,"[(1057, 807)]",[],[1],[0.6166666666666667],vertical,"(390.0, 762.0)",0.65,0.57,1,5750.994,2,0.02,0.15
0,291,target,"[(1033, 807)]",[],[1],[0.5666666666666667],horizontal,"(390.0, 762.0)",0.966666667,0.523,1,5756.24,2,0.02,0.15
0,292,target,"[(1029, 779)]",[],[1],[0.3833333333333333],horizontal,"(390.0, 262.0)",1.483333333,0.344,1,5762.167,2,0.02,0.15
0,293,target,"[(1030, 794)]",[],[1],[0.6166666666666667],horizontal,"(390.0, 262.0)",0.716666667,0.575,1,5767.546,3,0.02,0.15
0,294,target,"[(1046, 790)]",[],[1],[0.5333333333333333],vertical,"(390.0, 762.0)",0.933333333,0.486,1,5773.286,3,0,0.15
0,295,target,"[(1027, 801)]",[],[1],[0.6333333333333333],horizontal,"(390.0, 762.0)",0.95,0.589,1,5778.667,3,0,0.15
0,296,target,"[(1033, 798)]",[],[1],[0.5],horizontal,"(390.0, 762.0)",1.133333333,0.464,1,5784.545,3,0,0.15
0,297,catch,"[(1032, 784)]",[],[1],[],horizontal,"(390.0, 762.0)",1.6,nan,1,5790.876,3,0,0.15
0,298,target,"[(1033, 791)]",[],[1],[0.55],horizontal,"(390.0, 262.0)",0.933333333,0.506,1,5796.792,3,0,0.15
0,299,target,"[(1036, 792)]",[],[1],[0.16666666666666666],horizontal,"(890.0, 262.0)",1.466666667,0.133,0,5802.223,0,0,0.15
0,300,target,"[(1038, 805)]",[],[1],[0.6166666666666667],vertical,"(890.0, 262.0)",1.116666667,0.576,1,5807.257,1,0,0.15
0,301,target,"[(1033, 778)]",[],[1],[0.5166666666666666],horizontal,"(890.0, 262.0)",0.833333333,0.474,1,5812.045,1,0,0.15
0,302,target,"[(1057, 793)]",[],[1],[0.5666666666666667],vertical,"(890.0, 762.0)",0.933333333,0.525,1,5816.8,1,0,0.15
0,303,target,"[(1057, 800)]",[],[1],[0.55],vertical,"(390.0, 762.0)",0.366666667,0.507,1,5821.514,2,0,0.15
0,304,target,"[(1030, 792)]",[],[1],[0.23333333333333334],vertical,"(390.0, 762.0)",1.516666667,0.197,0,5826.26,0,0,0.15
0,305,target,"[(1025, 806)]",[],[1],[0.3833333333333333],horizontal,"(890.0, 262.0)",1.466666667,0.344,1,5831.244,1,0,0.15
0,306,catch,"[(1058, 794)]",[],[1],[],horizontal,"(890.0, 762.0)",1.6,nan,1,5836.519,1,0,0.15
0,307,target,"[(1058, 803)]",[],[1],[0.55],horizontal,"(390.0, 762.0)",1.183333333,0.51,1,5841.879,1,0,0.15
0,308,target,"[(1029, 814)]",[],[1],[0.25],vertical,"(390.0, 262.0)",1.466666667,0.215,1,5847.462,2,0,0.15
0,309,target,"[(1058, 794)]",[],[1],[0.45],horizontal,"(390.0, 262.0)",1.416666667,0.409,1,5853.544,2,0,0.15
0,310,target,"[(1037, 807)]",[],[1],[0.43333333333333335],vertical,"(890.0, 262.0)",1.3,0.394,1,5859.114,2,0,0.15
0,311,target,"[(1053, 792)]",[],[1],[0.25],vertical,"(890.0, 762.0)",1.433333333,0.216,1,5865.16,2,0,0.15
0,312,target,"[(1029, 785)]",[],[1],[0.5833333333333334],vertical,"(890.0, 762.0)",1.35,0.54,1,5870.862,3,0,0.15
0,313,target,"[(1033, 790)]",[],[1],[0.5833333333333334],vertical,"(890.0, 762.0)",1.266666667,0.537,1,5877.203,3,0,0.15
0,314,catch,"[(1058, 793)]",[],[1],[],horizontal,"(890.0, 262.0)",,"('cti', 1.553),nan",0,5883.528,0,0.02,0.15
0,315,target,"[(1013, 806)]",[],[1],[0.6833333333333333],horizontal,"(390.0, 762.0)",0.866666667,0.637,1,5888.212,1,0.02,0.15
0,316,target,"[(1048, 798)]",[],[1],[0.48333333333333334],vertical,"(390.0, 262.0)",0.783333333,0.442,1,5893.325,1,0.02,0.15
0,317,target,"[(1037, 783)]",[],[1],[0.5],vertical,"(890.0, 262.0)",1.266666667,0.46,1,5898.212,1,0.02,0.15
0,318,catch,"[(1036, 807)]",[],[1],[],vertical,"(390.0, 762.0)",1.6,nan,1,5903.395,2,0.02,0.15
0,319,catch,"[(1057, 783)]",[],[1],[],vertical,"(890.0, 262.0)",1.6,nan,1,5908.756,2,0.02,0.15
0,320,target,"[(1040, 804)]",[],[1],[0.4666666666666667],horizontal,"(390.0, 762.0)",1.3,0.427,1,5914.389,2,0.02,0.15
0,321,target,"[(1033, 801)]",[],[1],[0.48333333333333334],vertical,"(390.0, 762.0)",1.366666667,0.442,1,5920.019,2,0.02,0.15
0,322,target,"[(1055, 794)]",[],[1],[0.4166666666666667],vertical,"(390.0, 762.0)",1.266666667,0.375,1,5926.043,3,0.02,0.15
0,323,target,"[(1037, 781)]",[],[1],[0.55],vertical,"(390.0, 262.0)",0.933333333,0.51,1,5932.512,3,0.02,0.15
0,324,catch,"[(1033, 779)]",[],[1],[],vertical,"(890.0, 762.0)",1.6,nan,1,5938.053,3,0.02,0.15
0,325,target,"[(1055, 801)]",[],[1],[0.5],horizontal,"(390.0, 262.0)",1.3,0.455,1,5943.824,3,0.02,0.15
0,326,target,"[(1021, 830)]",[],[1],[0.5833333333333334],vertical,"(390.0, 762.0)",0.966666667,0.543,1,5950.194,3,0.02,0.15
0,327,target,"[(1033, 785)]",[],[1],[0.5333333333333333],horizontal,"(390.0, 762.0)",1.233333333,0.493,1,5956.179,3,0.02,0.15
0,328,catch,"[(1028, 791)]",[],[1],[],vertical,"(390.0, 262.0)",1.6,"('cti', 1.578),nan",0,5962.129,0,0.04,0.15
0,329,catch,"[(1014, 794)]",[],[1],[],horizontal,"(890.0, 762.0)",1.6,nan,1,5966.836,1,0.04,0.15
0,330,target,"[(1032, 808)]",[],[1],[0.31666666666666665],vertical,"(390.0, 262.0)",1.233333333,0.275,1,5972.684,1,0.04,0.15
0,331,catch,"[(1051, 791)]",[],[1],[],horizontal,"(890.0, 762.0)",1.6,nan,1,5978.095,1,0.04,0.15
0,332,catch,"[(1044, 806)]",[],[1],[],vertical,"(390.0, 762.0)",1.6,nan,1,5983.628,2,0.04,0.15
0,333,catch,"[(1055, 781)]",[],[1],[],vertical,"(390.0, 262.0)",,"('cti', 1.573),nan",0,5989.556,0,0.06,0.15
0,334,target,"[(1037, 796)]",[],[1],[0.5666666666666667],horizontal,"(390.0, 762.0)",0.716666667,0.532,1,5994.329,1,0.06,0.15
0,335,target,"[(1055, 800)]",[],[1],[0.55],horizontal,"(390.0, 762.0)",0.783333333,0.511,1,5998.846,1,0.06,0.15
0,336,target,"[(1017, 799)]",[],[1],[0.6333333333333333],horizontal,"(890.0, 762.0)",0.55,0.585,1,6003.291,1,0.06,0.15
0,337,target,"[(1030, 797)]",[],[1],[0.5833333333333334],vertical,"(390.0, 262.0)",1.016666667,0.539,1,6008.368,2,0.06,0.15
0,338,catch,"[(1049, 786)]",[],[1],[],vertical,"(390.0, 762.0)",1.6,nan,1,6014.112,2,0.06,0.15
0,339,target,"[(1035, 782)]",[],[1],[0.6166666666666667],vertical,"(390.0, 262.0)",1.233333333,0.575,1,6019.891,2,0.06,0.15
0,340,target,"[(1043, 800)]",[],[1],[0.5666666666666667],horizontal,"(890.0, 762.0)",1.133333333,0.528,1,6025.903,2,0.06,0.15
0,341,target,"[(1052, 798)]",[],[1],[0.7],horizontal,"(890.0, 762.0)",0.483333333,0.653,1,6031.678,3,0.06,0.15
0,342,target,"[(1039, 790)]",[],[1],[0.6],vertical,"(890.0, 262.0)",0.7,0.559,1,6037.112,3,0.06,0.15
0,343,target,"[(1054, 795)]",[],[1],[0.5666666666666667],vertical,"(890.0, 262.0)",0.916666667,0.535,1,6043.039,3,0.06,0.15
0,344,target,"[(1036, 789)]",[],[1],[0.43333333333333335],vertical,"(890.0, 762.0)",1.2,0.398,1,6048.629,3,0.06,0.15
0,345,target,"[(1037, 796)]",[],[1],[0.48333333333333334],horizontal,"(890.0, 262.0)",0.966666667,0.444,1,6054.552,3,0.06,0.15
0,346,target,"[(1041, 796)]",[],[1],[0.65],horizontal,"(390.0, 262.0)",0.516666667,0.604,1,6060.345,3,0.06,0.15
0,347,target,"[(1033, 798)]",[],[1],[0.5666666666666667],vertical,"(390.0, 762.0)",0.9,0.533,1,6065.825,3,0.06,0.15
0,348,target,"[(1034, 783)]",[],[1],[0.5],vertical,"(890.0, 762.0)",0.75,0.461,1,6071.762,3,0.06,0.15
0,349,target,"[(1037, 803)]",[],[1],[0.43333333333333335],horizontal,"(890.0, 762.0)",1.366666667,0.388,1,6077.469,3,0.06,0.15
0,350,catch,"[(1034, 797)]",[],[1],[],vertical,"(890.0, 262.0)",1.6,nan,1,6083.45,3,0.06,0.15
0,351,target,"[(1037, 800)]",[],[1],[0.5166666666666666],horizontal,"(890.0, 762.0)",0.916666667,0.482,1,6089.223,3,0.06,0.15
0,352,target,"[(1041, 797)]",[],[1],[0.16666666666666666],horizontal,"(390.0, 762.0)",1.516666667,0.135,0,6094.825,0,0.06,0.15
0,353,target,"[(1017, 802)]",[],[1],[0.5166666666666666],horizontal,"(890.0, 262.0)",0.883333333,0.477,1,6099.213,1,0.06,0.15
0,354,target,"[(1051, 806)]",[],[1],[0.85],horizontal,"(390.0, 262.0)",0.4,nan,0,6104.436,0,0.06,0.15
0,355,target,"[(1017, 800)]",[],[1],[0.5833333333333334],vertical,"(390.0, 762.0)",0.483333333,0.537,1,6108.745,1,0.06,0.15
0,356,target,"[(1033, 786)]",[],[1],[0.5333333333333333],horizontal,"(890.0, 762.0)",1.133333333,0.493,1,6113.496,1,0.06,0.15
0,357,catch,"[(1037, 781)]",[],[1],[],horizontal,"(890.0, 262.0)",1.6,nan,1,6118.911,1,0.06,0.15
0,358,target,"[(1037, 815)]",[],[1],[0.85],horizontal,"(390.0, 262.0)",0.433333333,nan,0,6123.785,0,0.06,0.15
0,359,catch,"[(1031, 806)]",[],[1],[],horizontal,"(390.0, 262.0)",1.6,nan,1,6128.012,1,0.06,0.15
0,360,target,"[(1049, 798)]",[],[1],[0.7],horizontal,"(390.0, 262.0)",0.433333333,0.658,1,6135.112,1,0.06,0.15
0,361,target,"[(1037, 796)]",[],[1],[0.36666666666666664],vertical,"(390.0, 262.0)",1.533333333,0.333,1,6139.875,1,0.06,0.15
0,362,target,"[(1057, 798)]",[],[1],[0.4666666666666667],horizontal,"(890.0, 762.0)",1.2,0.424,1,6145.107,2,0.06,0.15
0,363,target,"[(1045, 771)]",[],[1],[0.5333333333333333],horizontal,"(390.0, 762.0)",0.916666667,0.492,1,6150.756,2,0.06,0.15
0,364,target,"[(1035, 796)]",[],[1],[0.48333333333333334],horizontal,"(390.0, 262.0)",0.933333333,0.443,1,6155.996,2,0.04,0.15
0,365,catch,"[(1057, 779)]",[],[1],[],horizontal,"(390.0, 762.0)",,"('cti', 1.145),nan",0,6161.727,0,0.06,0.15
0,366,target,"[(1033, 799)]",[],[1],[0.5333333333333333],vertical,"(390.0, 262.0)",1,0.497,1,6166.162,1,0.06,0.15
0,367,target,"[(1057, 793)]",[],[1],[0.65],vertical,"(890.0, 762.0)",0.516666667,0.611,1,6170.7,1,0.06,0.15
0,368,target,"[(1021, 793)]",[],[1],[],horizontal,"(890.0, 762.0)",,"('cti', 1.112)",0,6175.779,0,0.08,0.25
0,369,target,"[(1034, 822)]",[],[1],[0.55],horizontal,"(390.0, 762.0)",0.683333333,0.514,1,6180.595,1,0.08,0.25
0,370,catch,"[(1049, 796)]",[],[1],[],vertical,"(390.0, 762.0)",1.6,nan,1,6207.397,1,0.08,0.25
0,371,target,"[(1038, 795)]",[],[1],[0.6333333333333333],horizontal,"(890.0, 262.0)",0.733333333,0.594,1,6212.262,1,0.08,0.25
0,372,target,"[(1057, 801)]",[],[1],[0.15],horizontal,"(890.0, 262.0)",1.483333333,0.116,0,6216.897,0,0.08,0.25
0,373,catch,"[(1035, 778)]",[],[1],[],vertical,"(890.0, 762.0)",1.6,nan,1,6221.554,1,0.08,0.25
0,374,target,"[(1038, 784)]",[],[1],[0.48333333333333334],vertical,"(890.0, 262.0)",1.316666667,0.44,1,6226.592,1,0.08,0.25
0,375,target,"[(1029, 802)]",[],[1],[0.5166666666666666],vertical,"(890.0, 262.0)",1.316666667,0.476,1,6231.98,1,0.08,0.25
0,376,target,"[(1057, 785)]",[],[1],[0.5833333333333334],vertical,"(390.0, 262.0)",1.333333333,0.539,1,6237.603,2,0.08,0.25
0,377,target,"[(1057, 786)]",[],[1],[0.4666666666666667],horizontal,"(890.0, 262.0)",0.4,0.425,1,6243.229,2,0.08,0.25
0,378,target,"[(1034, 795)]",[],[1],[0.4666666666666667],vertical,"(890.0, 262.0)",0.933333333,0.427,1,6247.968,2,0.06,0.15
0,379,target,"[(1053, 795)]",[],[1],[0.43333333333333335],horizontal,"(890.0, 762.0)",1.45,0.396,1,6253.363,2,0.06,0.15
0,380,catch,"[(1052, 786)]",[],[1],[],horizontal,"(390.0, 762.0)",1.6,nan,1,6259.108,3,0.06,0.15
0,381,catch,"[(1059, 800)]",[],[1],[],vertical,"(390.0, 762.0)",1.6,nan,1,6265.373,3,0.06,0.15
0,382,target,"[(1037, 792)]",[],[1],[0.48333333333333334],vertical,"(890.0, 262.0)",1.3,0.453,1,6271.596,3,0.06,0.15
0,383,target,"[(1054, 791)]",[],[1],[0.6833333333333333],vertical,"(890.0, 262.0)",0.433333333,0.643,1,6277.687,3,0.04,0.15
0,384,target,"[(1041, 788)]",[],[1],[0.5333333333333333],vertical,"(890.0, 262.0)",0.6,0.506,1,6282.84,3,0.04,0.15
0,385,target,"[(1037, 796)]",[],[1],[0.45],horizontal,"(390.0, 262.0)",1.266666667,0.418,1,6288.384,3,0.04,0.15
0,386,catch,"[(1066, 792)]",[],[1],[],vertical,"(390.0, 762.0)",,"('cti', 1.581),nan",0,6294.397,0,0.06,0.15
0,387,target,"[(1033, 805)]",[],[1],[0.5666666666666667],horizontal,"(390.0, 762.0)",0.75,0.528,1,6299.212,1,0.06,0.15
0,388,target,"[(1033, 796)]",[],[1],[0.55],vertical,"(890.0, 262.0)",1.3,0.511,1,6304.747,1,0.06,0.15
0,389,target,"[(1032, 767)]",[],[1],[0.45],vertical,"(390.0, 262.0)",1.183333333,0.414,1,6309.63,1,0.06,0.15
0,390,target,"[(1057, 796)]",[],[1],[0.7333333333333333],vertical,"(390.0, 762.0)",0.5,0.703,1,6314.896,2,0.06,0.15
0,391,target,"[(1038, 787)]",[],[1],[0.23333333333333334],vertical,"(390.0, 262.0)",1.366666667,0.198,0,6319.863,0,0.06,0.15
0,392,target,"[(1017, 803)]",[],[1],[0.6833333333333333],vertical,"(890.0, 762.0)",0.883333333,0.644,1,6324.796,1,0.06,0.15
0,393,target,"[(1016, 858)]",[],[1],[0.55],vertical,"(890.0, 262.0)",1.15,0.508,1,6330.413,1,0.06,0.15
0,394,catch,"[(1057, 782)]",[],[1],[0.03333333333333333],vertical,"(390.0, 762.0)",1.6,"0.02,nan",0,6339.246,0,0.08,0.25
0,395,catch,"[(1017, 786)]",[],[1],[],horizontal,"(890.0, 262.0)",1.6,nan,1,6344.197,1,0.08,0.25
0,396,catch,"[(1057, 787)]",[],[1],[],vertical,"(890.0, 262.0)",1.6,nan,1,6349.386,1,0.08,0.25
0,397,catch,"[(1033, 795)]",[],[1],[],horizontal,"(390.0, 262.0)",1.6,nan,1,6354.297,1,0.08,0.25
0,398,target,"[(1053, 792)]",[],[1],[0.4166666666666667],vertical,"(390.0, 762.0)",1.033333333,0.382,1,6359.097,2,0.08,0.25
0,399,catch,"[(1037, 782)]",[],[1],[],vertical,"(390.0, 262.0)",1.6,nan,1,6364.29,2,0.08,0.25
0,400,target,"[(1045, 806)]",[],[1],[0.5],vertical,"(890.0, 262.0)",0.616666667,0.457,1,6369.808,2,0.08,0.25
0,401,catch,"[(1049, 806)]",[],[1],[],horizontal,"(890.0, 262.0)",1.6,nan,1,6374.8,2,0.08,0.25
0,402,target,"[(1049, 803)]",[],[1],[0.5],vertical,"(890.0, 262.0)",0.6,0.458,1,6380.085,3,0.08,0.25
0,403,target,"[(1037, 792)]",[],[1],[0.55],vertical,"(390.0, 762.0)",1.166666667,0.517,1,6385.292,3,0.08,0.25
0,404,target,"[(1035, 780)]",[],[1],[0.85],horizontal,"(390.0, 762.0)",0.583333333,nan,0,6391.647,0,0.08,0.25
0,405,catch,"[(1014, 801)]",[],[1],[],horizontal,"(890.0, 762.0)",1.6,nan,1,6396.095,1,0.08,0.25
0,406,target,"[(1052, 791)]",[],[1],[0.21666666666666667],horizontal,"(890.0, 262.0)",0.883333333,0.18,0,6401.254,0,0.08,0.25
0,407,catch,"[(1034, 800)]",[],[1],[],horizontal,"(890.0, 762.0)",1.6,nan,1,6405.229,1,0.08,0.25
0,408,target,"[(1036, 796)]",[],[1],[0.5],horizontal,"(390.0, 262.0)",0.966666667,0.464,1,6410.246,1,0.08,0.25
0,409,target,"[(1033, 774)]",[],[1],[0.6166666666666667],horizontal,"(890.0, 762.0)",0.616666667,0.571,1,6415.148,1,0.08,0.25
0,410,target,"[(1036, 791)]",[],[1],[0.55],horizontal,"(390.0, 762.0)",1.05,0.508,1,6420.065,2,0.08,0.25
0,411,catch,"[(1047, 791)]",[],[1],[],horizontal,"(890.0, 762.0)",1.6,nan,1,6425.546,2,0.08,0.25
0,412,target,"[(1033, 791)]",[],[1],[0.23333333333333334],horizontal,"(890.0, 762.0)",1.5,0.197,0,6431.147,0,0.08,0.25
0,413,target,"[(1017, 803)]",[],[1],[0.5],vertical,"(390.0, 262.0)",1.033333333,0.459,1,6435.763,1,0.08,0.25
0,414,target,"[(1037, 807)]",[],[1],[0.6],vertical,"(390.0, 762.0)",0.6,0.561,1,6440.948,1,0.08,0.25
0,415,target,"[(1033, 777)]",[],[1],[0.6166666666666667],vertical,"(390.0, 762.0)",1.516666667,0.573,1,6445.643,1,0.06,0.15
0,416,target,"[(1057, 806)]",[],[1],[0.6],vertical,"(390.0, 762.0)",1.1,0.56,1,6450.803,2,0.06,0.15
0,417,target,"[(1021, 772)]",[],[1],[0.43333333333333335],horizontal,"(890.0, 262.0)",1.316666667,0.404,1,6456.697,2,0.06,0.15
0,418,target,"[(1049, 791)]",[],[1],[0.6666666666666666],vertical,"(890.0, 262.0)",1.15,0.628,1,6462.48,2,0.04,0.15
0,419,target,"[(1043, 820)]",[],[1],[0.55],horizontal,"(390.0, 262.0)",1.266666667,0.511,1,6468.241,2,0.04,0.15
0,420,target,"[(1045, 815)]",[],[1],[0.5166666666666666],vertical,"(390.0, 762.0)",0.95,0.483,1,6473.963,3,0.04,0.15
0,421,catch,"[(1035, 791)]",[],[1],[],vertical,"(890.0, 762.0)",1.6,nan,1,6479.83,3,0.04,0.15
0,422,target,"[(1033, 792)]",[],[1],[0.5],vertical,"(390.0, 262.0)",0.35,0.468,1,6485.997,3,0.04,0.15
0,423,target,"[(1029, 773)]",[],[1],[0.5333333333333333],vertical,"(890.0, 762.0)",0.983333333,0.493,1,6490.795,3,0.04,0.15
0,424,target,"[(1038, 792)]",[],[1],[0.45],horizontal,"(890.0, 762.0)",1.266666667,0.414,1,6496.614,3,0.04,0.15
0,425,target,"[(1030, 778)]",[],[1],[0.6333333333333333],vertical,"(390.0, 262.0)",0.65,0.592,1,6502.463,3,0.04,0.15
0,426,target,"[(1022, 794)]",[],[1],[0.48333333333333334],horizontal,"(890.0, 262.0)",0.85,0.444,1,6507.78,3,0.04,0.15
0,427,catch,"[(1033, 797)]",[],[1],[0.03333333333333333],horizontal,"(390.0, 762.0)",1.6,"0.019,nan",0,6513.584,0,0.06,0.15
0,428,target,"[(1032, 791)]",[],[1],[0.65],vertical,"(890.0, 262.0)",0.85,0.61,1,6518.531,1,0.06,0.15
0,429,target,"[(1033, 795)]",[],[1],[0.6333333333333333],vertical,"(890.0, 262.0)",0.433333333,0.589,1,6523.74,1,0.06,0.15
0,430,target,"[(1054, 818)]",[],[1],[0.5333333333333333],horizontal,"(390.0, 262.0)",0.85,0.493,1,6528.473,1,0.06,0.15
0,431,target,"[(1033, 794)]",[],[1],[0.5166666666666666],horizontal,"(890.0, 262.0)",0.8,0.474,1,6533.98,2,0.06,0.15
0,432,target,"[(1052, 782)]",[],[1],[0.55],vertical,"(390.0, 262.0)",1.316666667,0.508,1,6539.012,2,0.06,0.15
0,433,target,"[(1030, 790)]",[],[1],[0.5],vertical,"(390.0, 262.0)",0.933333333,0.461,1,6544.489,2,0.06,0.15
0,434,target,"[(1032, 781)]",[],[1],[0.3],horizontal,"(390.0, 262.0)",1.216666667,0.271,1,6550.046,2,0.06,0.15
0,435,target,"[(1041, 787)]",[],[1],[0.48333333333333334],horizontal,"(890.0, 262.0)",1.416666667,0.442,1,6555.847,3,0.06,0.15
0,436,target,"[(1057, 774)]",[],[1],[0.5166666666666666],vertical,"(890.0, 262.0)",0.55,0.478,1,6562.417,3,0.04,0.15
0,437,target,"[(1033, 788)]",[],[1],[0.3333333333333333],horizontal,"(890.0, 262.0)",1.466666667,0.295,1,6568.004,3,0.04,0.15
0,438,target,"[(1052, 796)]",[],[1],[0.5333333333333333],vertical,"(390.0, 262.0)",0.55,0.495,1,6573.897,3,0.04,0.15
0,439,target,"[(1036, 794)]",[],[1],[0.4666666666666667],vertical,"(890.0, 762.0)",1.166666667,0.435,1,6579.231,3,0.04,0.15
0,440,target,"[(1037, 812)]",[],[1],[0.5333333333333333],horizontal,"(390.0, 262.0)",1.016666667,0.491,1,6585.494,3,0.04,0.15
0,441,target,"[(1056, 799)]",[],[1],[0.6166666666666667],vertical,"(390.0, 262.0)",0.616666667,0.58,1,6591.181,3,0.04,0.15
0,442,target,"[(1029, 786)]",[],[1],[0.4166666666666667],horizontal,"(890.0, 762.0)",1.083333333,0.376,1,6596.548,3,0.04,0.15
0,443,target,"[(1021, 779)]",[],[1],[0.6833333333333333],vertical,"(890.0, 762.0)",0.833333333,0.643,1,6602.593,3,0.04,0.15
0,444,target,"[(1037, 785)]",[],[1],[0.5833333333333334],horizontal,"(390.0, 262.0)",0.366666667,0.544,1,6608.198,3,0.02,0.15
0,445,target,"[(1033, 799)]",[],[1],[0.65],horizontal,"(890.0, 762.0)",0.45,0.605,1,6613.681,3,0.02,0.15
0,446,target,"[(1055, 773)]",[],[1],[0.6833333333333333],vertical,"(390.0, 762.0)",0.633333333,0.642,1,6619.232,3,0.02,0.15
0,447,catch,"[(1035, 778)]",[],[1],[],horizontal,"(890.0, 262.0)",1.6,nan,1,6624.865,3,0.02,0.15
0,448,catch,"[(1039, 792)]",[],[1],[],vertical,"(390.0, 762.0)",1.6,nan,1,6630.598,3,0.02,0.15
0,449,target,"[(1055, 802)]",[],[1],[0.6166666666666667],vertical,"(890.0, 762.0)",0.483333333,0.574,1,6636.807,3,0.02,0.15
0,450,target,"[(1038, 800)]",[],[1],[0.3833333333333333],horizontal,"(390.0, 762.0)",1.15,0.349,1,6642.398,3,0.02,0.15
0,451,target,"[(1030, 776)]",[],[1],[0.6166666666666667],vertical,"(390.0, 762.0)",0.366666667,0.567,1,6648.365,3,0.02,0.15
0,452,target,"[(1022, 780)]",[],[1],[0.5166666666666666],vertical,"(390.0, 262.0)",0.566666667,0.475,1,6653.327,3,0.02,0.15
0,453,target,"[(1034, 799)]",[],[1],[0.5],vertical,"(390.0, 762.0)",0.916666667,0.462,1,6658.757,3,0.02,0.15
0,454,target,"[(1038, 788)]",[],[1],[0.5],vertical,"(890.0, 262.0)",0.916666667,0.46,1,6664.658,3,0.02,0.15
0,455,target,"[(1054, 791)]",[],[1],[0.48333333333333334],vertical,"(890.0, 262.0)",0.633333333,0.444,1,6670.315,3,0.02,0.15
0,456,target,"[(1055, 805)]",[],[1],[0.4],horizontal,"(390.0, 762.0)",1.366666667,0.36,1,6675.798,3,0.02,0.15
0,457,target,"[(1036, 787)]",[],[1],[0.43333333333333335],vertical,"(390.0, 762.0)",1.25,0.398,1,6681.665,3,0.02,0.15
0,458,target,"[(1031, 794)]",[],[1],[0.3],vertical,"(890.0, 262.0)",1.416666667,0.262,1,6687.662,3,0.02,0.15
0,459,target,"[(1044, 780)]",[],[1],[0.5166666666666666],vertical,"(390.0, 262.0)",0.766666667,0.476,1,6693.949,3,0.02,0.15
0,460,catch,"[(1029, 796)]",[],[1],[],horizontal,"(890.0, 262.0)",1.6,nan,1,6699.207,3,0.02,0.15
0,461,target,"[(1035, 800)]",[],[1],[0.5166666666666666],horizontal,"(890.0, 762.0)",1.3,0.473,1,6704.98,3,0.02,0.15
0,462,target,"[(1037, 792)]",[],[1],[0.2],vertical,"(390.0, 262.0)",1.45,0.169,0,6710.684,0,0.02,0.15
0,463,target,"[(1033, 796)]",[],[1],[0.7666666666666666],vertical,"(890.0, 262.0)",1.1,0.723,1,6715.59,1,0.02,0.15
0,464,target,"[(1075, 798)]",[],[1],[0.85],vertical,"(390.0, 762.0)",0.65,nan,0,6721.237,0,0.02,0.15
0,465,target,"[(1021, 796)]",[],[1],[0.5666666666666667],vertical,"(890.0, 762.0)",0.65,0.529,1,6725.598,1,0.02,0.15
0,466,target,"[(1037, 771)]",[],[1],[],horizontal,"(890.0, 762.0)",,"('fix', 0.278)",0,6730.489,0,0.02,0.15
0,467,target,"[(1054, 855)]",[],[1],[0.6833333333333333],vertical,"(390.0, 762.0)",0.666666667,0.634,1,6732.081,1,0.02,0.15
0,468,target,"[(1053, 803)]",[],[1],[0.55],horizontal,"(390.0, 262.0)",0.966666667,0.509,1,6737.025,1,0.02,0.15
0,469,target,"[(1047, 784)]",[],[1],[0.6],horizontal,"(890.0, 762.0)",0.6,0.55,1,6742.058,1,0.02,0.15
0,470,target,"[(1045, 823)]",[],[1],[0.4],horizontal,"(890.0, 762.0)",1.3,0.363,1,6746.779,2,0.02,0.15
0,471,catch,"[(1044, 784)]",[],[1],[],horizontal,"(390.0, 762.0)",1.6,nan,1,6752.548,2,0.02,0.15
0,472,catch,"[(1039, 783)]",[],[1],[],horizontal,"(390.0, 262.0)",1.6,nan,1,6758.344,2,0.02,0.15
0,473,target,"[(1038, 792)]",[],[1],[0.3833333333333333],vertical,"(390.0, 262.0)",1.333333333,0.344,1,6763.932,2,0.02,0.15
0,474,target,"[(1026, 763)]",[],[1],[0.5333333333333333],vertical,"(890.0, 262.0)",0.966666667,0.489,1,6769.579,3,0.02,0.15
0,475,target,"[(1036, 772)]",[],[1],[0.48333333333333334],vertical,"(890.0, 262.0)",0.95,0.445,1,6775.332,3,0.02,0.15
0,476,target,"[(1030, 790)]",[],[1],[0.5333333333333333],vertical,"(390.0, 262.0)",0.383333333,0.492,1,6781.009,3,0.02,0.15
0,477,target,"[(1057, 791)]",[],[1],[0.4666666666666667],vertical,"(390.0, 262.0)",0.75,0.43,1,6786.209,3,0,0.15
0,478,target,"[(1047, 795)]",[],[1],[0.5333333333333333],vertical,"(890.0, 762.0)",0.566666667,0.493,1,6791.853,3,0,0.15
0,479,target,"[(1035, 791)]",[],[1],[0.4666666666666667],vertical,"(390.0, 762.0)",1.283333333,0.426,1,6797.36,3,0,0.15
0,480,target,"[(1034, 775)]",[],[1],[0.6],vertical,"(390.0, 262.0)",0.4,0.55,1,6803.508,3,0,0.15
0,481,target,"[(1040, 786)]",[],[1],[0.5],vertical,"(890.0, 762.0)",0.95,0.456,1,6808.781,3,0,0.15
0,482,target,"[(1033, 787)]",[],[1],[0.45],vertical,"(390.0, 762.0)",1.2,0.406,1,6814.748,3,0,0.15
0,483,catch,"[(1034, 779)]",[],[1],[],horizontal,"(890.0, 762.0)",,"('cti', 1.547),nan",0,6820.414,0,0.02,0.15
0,484,target,"[(1033, 807)]",[],[1],[0.6166666666666667],horizontal,"(890.0, 262.0)",1.35,0.579,1,6824.929,1,0.02,0.15
0,485,target,"[(1033, 786)]",[],[1],[0.5666666666666667],vertical,"(390.0, 762.0)",0.766666667,0.521,1,6830.891,1,0.02,0.15
0,486,catch,"[(1035, 784)]",[],[1],[],horizontal,"(890.0, 762.0)",1.6,nan,1,6835.89,1,0.02,0.15
0,487,target,"[(1063, 790)]",[],[1],[0.6666666666666666],vertical,"(890.0, 262.0)",0.5,0.621,1,6840.937,2,0.02,0.15
0,488,target,"[(1035, 777)]",[],[1],[0.18333333333333332],horizontal,"(390.0, 262.0)",1.45,0.15,0,6845.814,0,0.02,0.15
0,489,catch,"[(1026, 791)]",[],[1],[],vertical,"(390.0, 262.0)",1.6,nan,1,6850.573,1,0.02,0.15
0,490,catch,"[(1052, 773)]",[],[1],[],horizontal,"(890.0, 762.0)",1.6,nan,1,6855.614,1,0.02,0.15
0,491,target,"[(1044, 790)]",[],[1],[0.6666666666666666],vertical,"(390.0, 262.0)",1.033333333,0.62,1,6860.531,1,0.02,0.15
0,492,target,"[(1052, 770)]",[],[1],[0.5333333333333333],vertical,"(390.0, 762.0)",0.883333333,0.486,1,6866.107,2,0.02,0.15
0,493,target,"[(1033, 790)]",[],[1],[0.6],horizontal,"(890.0, 762.0)",0.75,0.555,1,6871.514,2,0.02,0.15
0,494,target,"[(1055, 792)]",[],[1],[0.55],vertical,"(390.0, 762.0)",1.516666667,0.512,1,6877.028,2,0.02,0.15
0,495,target,"[(1058, 792)]",[],[1],[0.5666666666666667],vertical,"(390.0, 262.0)",0.833333333,0.529,1,6882.698,2,0.02,0.15
0,496,target,"[(1043, 774)]",[],[1],[0.6666666666666666],vertical,"(890.0, 262.0)",0.35,0.621,1,6887.599,3,0.02,0.15
0,497,target,"[(1017, 777)]",[],[1],[0.6],horizontal,"(890.0, 762.0)",0.583333333,0.55,1,6892.641,3,0.02,0.15
0,498,target,"[(1037, 790)]",[],[1],[0.6166666666666667],horizontal,"(390.0, 762.0)",0.433333333,0.577,1,6897.903,3,0.02,0.15
0,499,catch,"[(1035, 790)]",[],[1],[],horizontal,"(890.0, 262.0)",,"('cti', 1.077),nan",0,6903.203,0,0.04,0.15
0,500,catch,"[(1013, 787)]",[],[1],[],vertical,"(890.0, 262.0)",1.6,nan,1,6907.088,1,0.04,0.15
0,501,target,"[(1057, 791)]",[],[1],[0.55],vertical,"(890.0, 262.0)",0.716666667,0.508,1,6912.241,1,0.04,0.15
0,502,target,"[(1039, 800)]",[],[1],[0.5166666666666666],vertical,"(890.0, 262.0)",0.816666667,0.47,1,6917.132,1,0.04,0.15
0,503,target,"[(1029, 794)]",[],[1],[0.5666666666666667],horizontal,"(890.0, 762.0)",0.7,0.524,1,6922.364,2,0.04,0.15
0,504,target,"[(1021, 802)]",[],[1],[0.25],vertical,"(890.0, 262.0)",1.45,0.215,1,6927.231,2,0.04,0.15
0,505,target,"[(1033, 789)]",[],[1],[0.6833333333333333],vertical,"(890.0, 262.0)",0.483333333,0.639,1,6932.888,2,0.04,0.15
0,506,target,"[(1030, 789)]",[],[1],[0.5],horizontal,"(890.0, 262.0)",0.566666667,0.463,1,6938.43,2,0.04,0.15
0,507,target,"[(1033, 792)]",[],[1],[0.5333333333333333],horizontal,"(890.0, 762.0)",0.8,0.493,1,6943.644,3,0.04,0.15
0,508,target,"[(1034, 785)]",[],[1],[0.5166666666666666],vertical,"(890.0, 262.0)",1.033333333,0.479,1,6949.772,3,0.04,0.15
0,509,target,"[(1057, 798)]",[],[1],[0.06666666666666667],vertical,"(890.0, 262.0)",1.283333333,0.036,0,6956.014,0,0.04,0.15
0,510,target,"[(1021, 840)]",[],[1],[0.5333333333333333],vertical,"(890.0, 262.0)",0.75,0.49,1,6960.271,1,0.04,0.15
0,511,target,"[(1047, 803)]",[],[1],[0.65],vertical,"(890.0, 262.0)",0.516666667,0.608,1,6971.762,1,0.04,0.15
0,512,catch,"[(1040, 820)]",[],[1],[],horizontal,"(890.0, 262.0)",1.6,nan,1,6976.903,1,0.04,0.15
0,513,target,"[(1034, 808)]",[],[1],[0.48333333333333334],vertical,"(390.0, 262.0)",1.316666667,0.443,1,6982.182,2,0.04,0.15
0,514,target,"[(1057, 791)]",[],[1],[0.48333333333333334],horizontal,"(390.0, 262.0)",1.266666667,0.439,1,6987.998,2,0.04,0.15
0,515,target,"[(1061, 780)]",[],[1],[0.5],vertical,"(890.0, 262.0)",0.383333333,0.463,1,6993.923,2,0.04,0.15
0,516,target,"[(1057, 803)]",[],[1],[0.5833333333333334],vertical,"(890.0, 762.0)",0.583333333,0.541,1,6998.707,2,0.04,0.15
0,517,target,"[(1035, 805)]",[],[1],[0.5333333333333333],vertical,"(890.0, 262.0)",1.183333333,0.49,1,7003.645,3,0.04,0.15
0,518,target,"[(1033, 790)]",[],[1],[0.6],horizontal,"(390.0, 262.0)",0.5,0.56,1,7009.678,3,0.04,0.15
0,519,target,"[(1029, 786)]",[],[1],[0.6166666666666667],vertical,"(390.0, 762.0)",0.65,0.576,1,7015.516,3,0.04,0.15
0,520,target,"[(1058, 786)]",[],[1],[0.6666666666666666],vertical,"(890.0, 262.0)",0.35,0.631,1,7020.998,3,0.04,0.15
0,521,target,"[(1032, 799)]",[],[1],[0.5],horizontal,"(390.0, 262.0)",1,0.462,1,7026.448,3,0.04,0.15
0,522,catch,"[(1025, 798)]",[],[1],[],horizontal,"(890.0, 262.0)",1.6,nan,1,7031.978,3,0.04,0.15
0,523,target,"[(1033, 781)]",[],[1],[0.5833333333333334],horizontal,"(390.0, 762.0)",1.283333333,0.546,1,7037.525,3,0.04,0.15
0,524,target,"[(1044, 796)]",[],[1],[0.5],horizontal,"(890.0, 262.0)",0.85,0.459,1,7043.409,3,0.04,0.15
0,525,target,"[(1031, 816)]",[],[1],[0.5666666666666667],horizontal,"(890.0, 762.0)",1.116666667,0.521,1,7048.998,3,0.04,0.15
0,526,target,"[(1034, 795)]",[],[1],[0.6666666666666666],horizontal,"(890.0, 762.0)",0.466666667,0.623,1,7055.465,3,0.04,0.15
0,527,target,"[(1032, 778)]",[],[1],[0.25],horizontal,"(890.0, 262.0)",1.333333333,0.216,1,7061.166,3,0.04,0.15
0,528,target,"[(1036, 776)]",[],[1],[0.45],vertical,"(390.0, 262.0)",0.65,0.41,1,7067.066,3,0.04,0.15
0,529,target,"[(1055, 791)]",[],[1],[0.5],horizontal,"(390.0, 262.0)",0.516666667,0.459,1,7072.598,3,0.04,0.15
0,530,catch,"[(1029, 783)]",[],[1],[],horizontal,"(890.0, 262.0)",1.6,"('cti', 1.589),nan",0,7078.149,0,0.06,0.15
0,531,target,"[(1029, 791)]",[],[1],[0.7166666666666667],horizontal,"(390.0, 262.0)",0.383333333,0.671,1,7082.866,1,0.06,0.15
0,532,target,"[(1041, 806)]",[],[1],[0.55],horizontal,"(890.0, 762.0)",1.15,0.504,1,7087.831,1,0.06,0.15
0,533,target,"[(1033, 782)]",[],[1],[0.5666666666666667],horizontal,"(390.0, 262.0)",0.683333333,0.525,1,7093.174,1,0.04,0.15
0,534,target,"[(1025, 795)]",[],[1],[0.5666666666666667],vertical,"(890.0, 262.0)",1,0.528,1,7097.916,2,0.04,0.15
0,535,target,"[(1037, 782)]",[],[1],[0.5333333333333333],horizontal,"(890.0, 262.0)",1.25,0.491,1,7103.526,2,0.04,0.15
0,536,catch,"[(1037, 791)]",[],[1],[0.03333333333333333],horizontal,"(390.0, 762.0)",1.6,"0.02,nan",0,7109.025,0,0.06,0.15
0,537,target,"[(1032, 787)]",[],[1],[0.5833333333333334],horizontal,"(890.0, 262.0)",1.116666667,0.544,1,7113.242,1,0.06,0.15
0,538,target,"[(1033, 804)]",[],[1],[0.5166666666666666],vertical,"(890.0, 262.0)",1.116666667,0.476,1,7118.269,1,0.06,0.15
0,539,target,"[(1030, 784)]",[],[1],[0.55],vertical,"(890.0, 762.0)",0.716666667,0.511,1,7123.603,1,0.06,0.15
0,540,target,"[(1032, 786)]",[],[1],[0.55],horizontal,"(890.0, 762.0)",1.133333333,0.512,1,7128.382,2,0.06,0.15
0,541,target,"[(1032, 791)]",[],[1],[0.23333333333333334],vertical,"(390.0, 762.0)",1.45,0.197,0,7134.071,0,0.06,0.15
0,542,target,"[(1021, 796)]",[],[1],[0.55],vertical,"(390.0, 762.0)",0.916666667,0.503,1,7138.7,1,0.06,0.15
0,543,catch,"[(1037, 786)]",[],[1],[],horizontal,"(390.0, 762.0)",1.6,nan,1,7143.732,1,0.06,0.15
0,544,target,"[(1023, 764)]",[],[1],[0.55],horizontal,"(390.0, 262.0)",0.933333333,0.513,1,7148.9,1,0.06,0.15
0,545,target,"[(1026, 769)]",[],[1],[0.6166666666666667],vertical,"(390.0, 762.0)",1.166666667,0.576,1,7154.048,2,0.06,0.15
0,546,catch,"[(1027, 792)]",[],[1],[],horizontal,"(890.0, 762.0)",1.6,nan,1,7159.834,2,0.06,0.15
0,547,target,"[(1042, 786)]",[],[1],[0.5166666666666666],vertical,"(390.0, 262.0)",0.716666667,0.478,1,7165.332,2,0.06,0.15
0,548,target,"[(1025, 801)]",[],[1],[0.6666666666666666],horizontal,"(890.0, 262.0)",0.983333333,0.619,1,7170.093,2,0.06,0.15
0,549,catch,"[(1028, 807)]",[],[1],[],horizontal,"(890.0, 262.0)",1.6,nan,1,7176.095,3,0.04,0.15
0,550,catch,"[(1037, 791)]",[],[1],[],vertical,"(890.0, 262.0)",1.6,nan,1,7182.465,3,0.04,0.15
0,551,target,"[(1031, 807)]",[],[1],[0.1],horizontal,"(390.0, 262.0)",1.083333333,0.069,0,7188.182,0,0.04,0.15
0,552,target,"[(1018, 782)]",[],[1],[0.5333333333333333],vertical,"(890.0, 262.0)",1.233333333,0.492,1,7192.749,1,0.04,0.15
0,553,target,"[(1033, 808)]",[],[1],[0.65],horizontal,"(890.0, 262.0)",0.766666667,0.603,1,7197.616,1,0.04,0.15
0,554,target,"[(1037, 837)]",[],[1],[0.5333333333333333],horizontal,"(390.0, 762.0)",0.9,0.495,1,7202.75,1,0.04,0.15
0,555,target,"[(1045, 801)]",[],[1],[0.6166666666666667],horizontal,"(390.0, 762.0)",0.633333333,0.571,1,7258.709,2,0.04,0.15
0,556,target,"[(1033, 806)]",[],[1],[0.85],horizontal,"(890.0, 762.0)",1.433333333,nan,0,7263.97,0,0.04,0.15
0,557,target,"[(997, 815), (1040, 829)]",[],"[0, 1]",[0.85],horizontal,"(890.0, 262.0)",0.433333333,nan,0,7268.956,0,0.04,0.15
0,558,catch,"[(1040, 796)]",[],[1],[],horizontal,"(890.0, 262.0)",1.6,nan,1,7276.599,1,0.04,0.15
0,559,target,"[(997, 815), (1020, 807)]",[],"[0, 1]",[0.6166666666666667],horizontal,"(390.0, 762.0)",0.883333333,0.574,1,7281.694,1,0.04,0.15
0,560,target,"[(1052, 837)]",[],[1],[0.6333333333333333],horizontal,"(890.0, 262.0)",1.266666667,0.596,1,7292.549,1,0.04,0.15
0,561,target,"[(1035, 806)]",[],[1],[0.3333333333333333],vertical,"(890.0, 762.0)",1.433333333,0.295,1,7307.782,2,0.04,0.15
0,562,target,"[(1033, 796)]",[],[1],[0.6],vertical,"(390.0, 762.0)",0.8,0.556,1,7313.814,2,0.04,0.15
0,563,target,"[(1041, 791)]",[],[1],[0.48333333333333334],horizontal,"(890.0, 762.0)",0.616666667,0.444,1,7318.862,2,0.04,0.15
0,564,target,"[(1047, 791)]",[],[1],[0.5166666666666666],vertical,"(890.0, 762.0)",0.45,0.481,1,7324.129,2,0.04,0.15
0,565,target,"[(1055, 796)]",[],[1],[0.55],vertical,"(890.0, 762.0)",1.35,0.517,1,7329.064,3,0.04,0.15
0,566,target,"[(1052, 794)]",[],[1],[0.23333333333333334],vertical,"(390.0, 262.0)",1.316666667,0.197,0,7335.269,0,0.04,0.15
0,567,target,"[(1021, 796)]",[],[1],[0.6833333333333333],horizontal,"(890.0, 262.0)",1.333333333,0.641,1,7339.966,1,0.04,0.15
0,568,target,"[(1045, 820)]",[],[1],[0.55],vertical,"(890.0, 262.0)",0.366666667,0.512,1,7345.356,1,0.04,0.15
0,569,catch,"[(1037, 796)]",[],[1],[],horizontal,"(890.0, 262.0)",,"('cti', 1.49),nan",0,7350.203,0,0.06,0.15
0,570,target,"[(1040, 794)]",[],[1],[0.5333333333333333],horizontal,"(390.0, 762.0)",1.283333333,0.489,1,7354.786,1,0.06,0.15
0,571,catch,"[(1032, 791)]",[],[1],[],vertical,"(390.0, 762.0)",1.6,nan,1,7359.974,1,0.06,0.15
0,572,target,"[(1044, 804)]",[],[1],[0.4666666666666667],horizontal,"(390.0, 762.0)",1.166666667,0.424,1,7365.322,1,0.06,0.15
0,573,target,"[(1033, 807)]",[],[1],[0.6],horizontal,"(390.0, 262.0)",1.3,0.557,1,7370.817,2,0.06,0.15
0,574,catch,"[(1054, 800)]",[],[1],[],horizontal,"(390.0, 262.0)",1.6,nan,1,7376.999,2,0.06,0.15
0,575,catch,"[(1054, 807)]",[],[1],[],horizontal,"(890.0, 262.0)",1.6,nan,1,7382.298,2,0.06,0.15
0,576,target,"[(1052, 790)]",[],[1],[0.6],horizontal,"(390.0, 262.0)",1.016666667,0.554,1,7387.419,2,0.06,0.15
0,577,target,"[(990, 817), (1029, 826)]",[],"[0, 1]",[0.55],vertical,"(890.0, 262.0)",0.533333333,0.511,1,7392.774,3,0.06,0.15
0,578,target,"[(1033, 792)]",[],[1],[0.48333333333333334],vertical,"(890.0, 262.0)",0.95,0.451,1,7404.801,3,0.06,0.15
0,579,target,"[(1046, 815)]",[],[1],[0.5166666666666666],vertical,"(390.0, 762.0)",0.633333333,0.488,1,7410.943,3,0.06,0.15
0,580,target,"[(1036, 791)]",[],[1],[0.6],vertical,"(390.0, 262.0)",1.133333333,0.565,1,7416.445,3,0.04,0.15
0,581,catch,"[(1034, 796)]",[],[1],[],vertical,"(390.0, 762.0)",,"('cti', 1.5),nan",0,7421.966,0,0.06,0.15
0,582,catch,"[(1017, 835)]",[],[1],[],horizontal,"(890.0, 262.0)",1.6,nan,1,7426.583,1,0.06,0.15
0,583,target,"[(1031, 820)]",[],[1],[0.55],horizontal,"(390.0, 262.0)",0.566666667,0.51,1,7470.741,1,0.06,0.15
0,584,target,"[(1052, 816)]",[],[1],[0.5166666666666666],vertical,"(890.0, 262.0)",1.416666667,0.475,1,7475.351,1,0.06,0.15
0,585,catch,"[(1033, 816)]",[],[1],[],vertical,"(890.0, 762.0)",1.6,nan,1,7480.627,2,0.06,0.15
0,586,target,"[(1024, 798)]",[],[1],[0.5],vertical,"(890.0, 262.0)",0.35,0.46,1,7486.361,2,0.04,0.15
0,587,target,"[(1038, 804)]",[],[1],[0.5166666666666666],vertical,"(390.0, 762.0)",0.716666667,0.48,1,7491.084,2,0.04,0.15
0,588,target,"[(1054, 804)]",[],[1],[0.65],vertical,"(890.0, 762.0)",0.683333333,0.618,1,7496.756,2,0.04,0.15
0,589,target,"[(1064, 796)]",[],[1],[0.2],vertical,"(890.0, 262.0)",1.516666667,0.171,0,7501.95,0,0.04,0.15
0,590,target,"[(1032, 816)]",[],[1],[0.5166666666666666],horizontal,"(890.0, 262.0)",1.333333333,0.484,1,7506.613,1,0.04,0.15
0,591,target,"[(1024, 808)]",[],[1],[0.43333333333333335],horizontal,"(390.0, 762.0)",1.2,0.4,1,7511.674,1,0.04,0.15
0,592,target,"[(1042, 799)]",[],[1],[0.5833333333333334],horizontal,"(390.0, 762.0)",1.083333333,0.543,1,7517.05,1,0.04,0.15
0,593,target,"[(1033, 795)]",[],[1],[0.65],horizontal,"(890.0, 262.0)",0.45,0.619,1,7522.384,2,0.04,0.15
0,594,target,"[(1033, 785)]",[],[1],[0.5],horizontal,"(890.0, 762.0)",1.533333333,0.462,1,7527.312,2,0.04,0.15
0,595,target,"[(1041, 799)]",[],[1],[0.26666666666666666],horizontal,"(390.0, 262.0)",1.35,0.232,1,7533.384,2,0.04,0.15
0,596,target,"[(1036, 799)]",[],[1],[0.6],horizontal,"(890.0, 762.0)",0.616666667,0.559,1,7539.078,2,0.04,0.15
0,597,target,"[(1036, 791)]",[],[1],[0.5166666666666666],vertical,"(890.0, 262.0)",0.883333333,0.483,1,7544.637,3,0.04,0.15
0,598,target,"[(1033, 795)]",[],[1],[0.85],horizontal,"(390.0, 262.0)",0.916666667,nan,0,7550.25,0,0.04,0.15
0,599,target,"[(997, 811), (1041, 799)]",[],"[0, 1]",[0.5],vertical,"(390.0, 262.0)",1.55,0.463,1,7554.743,1,0.04,0.15
0,600,target,"[(1038, 793)]",[],[1],[0.5666666666666667],vertical,"(890.0, 762.0)",0.8,0.522,1,7561.971,1,0.04,0.15
0,601,target,"[(1037, 795)]",[],[1],[0.85],horizontal,"(390.0, 262.0)",0.733333333,nan,0,7566.888,0,0.04,0.15
0,602,target,"[(1033, 801)]",[],[1],[0.5],vertical,"(890.0, 262.0)",0.683333333,0.467,1,7571.353,1,0.04,0.15
0,603,catch,"[(1033, 796)]",[],[1],[],horizontal,"(390.0, 262.0)",1.6,nan,1,7576.435,1,0.04,0.15
0,604,target,"[(1037, 789)]","[(1002, 861)]",[1],[0.36666666666666664],horizontal,"(890.0, 762.0)",,"('bar', 0.379)",0,7581.525,0,0.04,0.15
0,605,target,"[(1037, 805)]",[],[1],[0.55],vertical,"(390.0, 262.0)",1,0.518,1,7584.222,1,0.04,0.15
0,606,target,"[(1055, 800)]",[],[1],[0.55],vertical,"(390.0, 762.0)",1.15,0.512,1,7612.25,1,0.04,0.15
0,607,target,"[(1034, 793)]",[],[1],[0.5166666666666666],vertical,"(890.0, 762.0)",1.15,0.479,1,7617.612,1,0.04,0.15
0,608,target,"[(1052, 806)]",[],[1],[0.3],horizontal,"(890.0, 762.0)",1.35,0.261,1,7622.588,2,0.04,0.15
0,609,target,"[(1054, 792)]",[],[1],[0.25],vertical,"(890.0, 762.0)",1.333333333,0.219,1,7628.387,2,0.04,0.15
0,610,catch,"[(1046, 798)]",[],[1],[],vertical,"(890.0, 762.0)",1.6,nan,1,7634.191,2,0.04,0.15
0,611,target,"[(1052, 808)]",[],[1],[0.48333333333333334],vertical,"(890.0, 262.0)",1.283333333,0.446,1,7639.813,2,0.04,0.15
0,612,target,"[(1033, 808)]",[],[1],[0.5],vertical,"(390.0, 262.0)",0.966666667,0.459,1,7645.635,3,0.04,0.15
0,613,target,"[(1050, 797)]",[],[1],[0.55],vertical,"(890.0, 762.0)",0.416666667,0.516,1,7651.498,3,0.04,0.15
0,614,target,"[(1049, 799)]",[],[1],[0.6166666666666667],horizontal,"(390.0, 262.0)",0.45,0.575,1,7656.583,3,0.04,0.15
0,615,target,"[(1029, 793)]",[],[1],[0.85],vertical,"(390.0, 262.0)",0.35,nan,0,7661.693,0,0.04,0.15
0,616,target,"[(1017, 795)]",[],[1],[0.45],vertical,"(890.0, 262.0)",1.45,0.416,1,7665.565,1,0.04,0.15
0,617,target,"[(1055, 773)]",[],[1],[0.2833333333333333],horizontal,"(890.0, 262.0)",1.4,0.247,1,7671.147,1,0.04,0.15
0,618,catch,"[(1035, 786)]",[],[1],[],vertical,"(390.0, 262.0)",1.6,nan,1,7676.499,1,0.04,0.15
0,619,target,"[(1057, 795)]",[],[1],[0.31666666666666665],horizontal,"(390.0, 762.0)",1.4,0.283,1,7681.833,2,0.02,0.15
0,620,target,"[(1037, 801)]",[],[1],[0.7166666666666667],vertical,"(390.0, 262.0)",0.366666667,0.668,1,7687.784,2,0.02,0.15
0,621,target,"[(1050, 808)]",[],[1],[0.5333333333333333],vertical,"(390.0, 262.0)",1.05,0.493,1,7692.318,2,0.02,0.15
0,622,target,"[(1053, 799)]",[],[1],[0.6],vertical,"(890.0, 262.0)",1.05,0.554,1,7697.609,2,0.02,0.15
0,623,target,"[(1053, 801)]",[],[1],[],vertical,"(890.0, 262.0)",,"('cti', 1.107)",0,7703.502,0,0.04,0.15
0,624,target,"[(1037, 804)]",[],[1],[0.7],horizontal,"(390.0, 762.0)",0.733333333,0.661,1,7707.884,1,0.04,0.15
0,625,target,"[(1039, 794)]",[],[1],[0.5833333333333334],vertical,"(390.0, 262.0)",0.966666667,0.539,1,7712.968,1,0.04,0.15
0,626,target,"[(1033, 802)]",[],[1],[0.4666666666666667],horizontal,"(890.0, 762.0)",1.466666667,0.425,1,7718.158,1,0.04,0.15
0,627,target,"[(1041, 786)]",[],[1],[0.5166666666666666],horizontal,"(890.0, 262.0)",0.466666667,0.484,1,7723.435,2,0.04,0.15
0,628,target,"[(1042, 776)]",[],[1],[0.5],vertical,"(890.0, 762.0)",1.283333333,0.462,1,7728.52,2,0.04,0.15
0,629,catch,"[(1033, 787)]",[],[1],[],vertical,"(390.0, 262.0)",1.6,nan,1,7734.313,2,0.04,0.15
0,630,target,"[(1033, 778)]",[],[1],[0.36666666666666664],horizontal,"(890.0, 262.0)",1.316666667,0.324,1,7739.831,2,0.04,0.15
0,631,catch,"[(1037, 786)]",[],[1],[],horizontal,"(390.0, 762.0)",1.6,nan,1,7745.618,3,0.02,0.15
0,632,target,"[(1058, 791)]",[],[1],[0.6333333333333333],horizontal,"(890.0, 762.0)",0.533333333,0.595,1,7751.972,3,0.02,0.15
0,633,catch,"[(1041, 798)]",[],[1],[],horizontal,"(390.0, 762.0)",,"('cti', 1.28),nan",0,7757.684,0,0.04,0.15
0,634,catch,"[(1037, 802)]",[],[1],[],horizontal,"(890.0, 262.0)",1.6,nan,1,7762.284,1,0.04,0.15
0,635,target,"[(1041, 791)]",[],[1],[0.5833333333333334],vertical,"(890.0, 762.0)",0.8,0.548,1,7767.1,1,0.04,0.15
0,636,target,"[(1033, 816)]",[],[1],[0.6],horizontal,"(390.0, 762.0)",0.65,0.562,1,7772.384,1,0.04,0.15
0,637,catch,"[(1047, 790)]",[],[1],[],vertical,"(890.0, 262.0)",1.6,nan,1,7777.281,2,0.04,0.15
0,638,target,"[(1054, 790)]",[],[1],[0.85],horizontal,"(390.0, 762.0)",0.366666667,nan,0,7783.25,0,0.04,0.15
0,639,catch,"[(1025, 795)]",[],[1],[],horizontal,"(390.0, 262.0)",1.6,nan,1,7787.584,1,0.04,0.15
0,640,target,"[(1056, 796)]",[],[1],[0.5333333333333333],vertical,"(390.0, 262.0)",0.433333333,0.489,1,7792.759,1,0.04,0.15
0,641,target,"[(1038, 790)]",[],[1],[0.35],horizontal,"(390.0, 762.0)",1.366666667,0.317,1,7797.378,1,0.04,0.15
0,642,target,"[(1050, 790)]",[],[1],[0.65],vertical,"(390.0, 262.0)",0.883333333,0.61,1,7802.536,2,0.04,0.15
0,643,target,"[(1057, 792)]",[],[1],[0.4],vertical,"(890.0, 262.0)",1.266666667,0.366,1,7807.985,2,0.04,0.15
0,644,target,"[(1041, 789)]",[],[1],[0.5333333333333333],vertical,"(890.0, 762.0)",1.133333333,0.493,1,7813.123,2,0.04,0.15
0,645,target,"[(1020, 812)]",[],[1],[0.85],vertical,"(390.0, 762.0)",0.35,nan,0,7818.902,0,0.04,0.15
0,646,target,"[(1025, 795)]",[],[1],[0.5166666666666666],vertical,"(890.0, 262.0)",1.216666667,0.483,1,7824.469,1,0.04,0.15
0,647,target,"[(1030, 796)]",[],[1],[0.6333333333333333],horizontal,"(390.0, 762.0)",1.45,0.59,1,7830.078,1,0.04,0.15
0,648,catch,"[(1054, 786)]",[],[1],[],vertical,"(890.0, 262.0)",,"('fix', 0.179),nan",0,7835.916,0,0.06,0.15
0,649,target,"[(1027, 835)]",[],[1],[0.5166666666666666],vertical,"(890.0, 762.0)",0.583333333,0.483,1,7837.487,1,0.06,0.15
0,650,target,"[(1036, 786)]",[],[1],[0.55],vertical,"(890.0, 762.0)",1.116666667,0.513,1,7841.684,1,0.06,0.15
0,651,target,"[(1039, 811)]",[],[1],[0.5],horizontal,"(390.0, 262.0)",1.283333333,0.458,1,7846.802,1,0.06,0.15
0,652,catch,"[(1030, 815)]",[],[1],[],vertical,"(390.0, 762.0)",1.6,nan,1,7852.034,2,0.06,0.15
0,653,target,"[(1045, 796)]",[],[1],[0.5166666666666666],vertical,"(890.0, 762.0)",0.85,0.479,1,7857.935,2,0.06,0.15
0,654,target,"[(1055, 794)]",[],[1],[0.85],horizontal,"(890.0, 762.0)",0.383333333,nan,0,7863.142,0,0.06,0.15
0,655,target,"[(1017, 786)]",[],[1],[0.65],vertical,"(390.0, 762.0)",0.75,0.606,1,7867.418,1,0.06,0.15
0,656,target,"[(1054, 792)]",[],[1],[0.5833333333333334],horizontal,"(890.0, 762.0)",0.566666667,0.544,1,7872.784,1,0.06,0.15
0,657,target,"[(1046, 820)]",[],[1],[0.55],horizontal,"(390.0, 262.0)",1.466666667,0.51,1,7877.337,1,0.06,0.15
0,658,catch,"[(1038, 778)]",[],[1],[],horizontal,"(890.0, 262.0)",,"('cti', 1.253),nan",0,7883.027,0,0.08,0.25
0,659,catch,"[(1022, 818)]",[],[1],[],horizontal,"(890.0, 262.0)",1.6,"('cti', 1.589),nan",0,7887.634,0,0.1,0.25
0,660,target,"[(1023, 791)]",[],[1],[0.5333333333333333],horizontal,"(390.0, 762.0)",0.85,0.491,1,7968.911,1,0.1,0.25
0,661,catch,"[(1047, 792)]",[],[1],[],horizontal,"(890.0, 762.0)",1.6,nan,1,7973.564,1,0.1,0.25
0,662,target,"[(1036, 790)]",[],[1],[0.5],vertical,"(890.0, 262.0)",0.8,0.457,1,7978.579,1,0.1,0.25
0,663,target,"[(1035, 793)]",[],[1],[0.5333333333333333],vertical,"(890.0, 762.0)",0.55,0.488,1,7983.151,2,0.1,0.25
0,664,catch,"[(1052, 786)]",[],[1],[],vertical,"(890.0, 762.0)",,"('cti', 1.481),nan",0,7988.018,0,0.12,0.25
0,665,catch,"[(1037, 792)]",[],[1],[],vertical,"(890.0, 762.0)",1.6,nan,1,7992.739,1,0.12,0.25
0,666,target,"[(1055, 793)]",[],[1],[0.5833333333333334],vertical,"(390.0, 262.0)",0.6,0.539,1,7997.759,1,0.12,0.25
0,667,target,"[(1049, 794)]",[],[1],[0.7],vertical,"(390.0, 262.0)",0.483333333,0.654,1,8002.7,1,0.12,0.25
0,668,target,"[(1055, 800)]",[],[1],[0.5833333333333334],vertical,"(890.0, 762.0)",0.65,0.538,1,8007.393,2,0.12,0.25
0,669,target,"[(1045, 789)]",[],[1],[0.4166666666666667],vertical,"(390.0, 762.0)",1.4,0.381,1,8012.71,2,0.12,0.25
0,670,target,"[(1034, 818)]",[],[1],[0.48333333333333334],horizontal,"(390.0, 262.0)",1.183333333,0.446,1,8018.252,2,0.12,0.25
0,671,target,"[(1034, 786)]",[],[1],[0.65],vertical,"(390.0, 262.0)",0.366666667,0.608,1,8025.968,2,0.12,0.25
0,672,catch,"[(1039, 769)]",[],[1],[],vertical,"(890.0, 762.0)",1.6,nan,1,8031.119,3,0.12,0.25
0,673,target,"[(1061, 782)]",[],[1],[0.2],vertical,"(390.0, 762.0)",1.45,0.17,0,8037.19,0,0.1,0.25
0,674,target,"[(1029, 796)]",[],[1],[0.3333333333333333],horizontal,"(890.0, 762.0)",1.416666667,0.3,1,8041.957,1,0.1,0.25
0,675,target,"[(1054, 773)]",[],[1],[0.43333333333333335],horizontal,"(890.0, 762.0)",1.316666667,0.395,1,8047.336,1,0.1,0.25
0,676,target,"[(1033, 788)]",[],[1],[0.5166666666666666],horizontal,"(390.0, 262.0)",0.983333333,0.478,1,8052.586,1,0.1,0.25
0,677,target,"[(1057, 791)]",[],[1],[0.65],vertical,"(390.0, 262.0)",0.35,0.611,1,8057.36,2,0.1,0.25
0,678,target,"[(1052, 788)]",[],[1],[0.5666666666666667],vertical,"(890.0, 262.0)",1.2,0.524,1,8062.636,2,0.1,0.25
0,679,target,"[(1037, 790)]",[],[1],[0.6666666666666666],vertical,"(890.0, 762.0)",0.916666667,0.622,1,8068.202,2,0.1,0.25
0,680,catch,"[(1054, 815)]",[],[1],[],horizontal,"(390.0, 762.0)",1.6,nan,1,8073.419,2,0.1,0.25
0,681,target,"[(1057, 806)]",[],[1],[0.6],horizontal,"(890.0, 262.0)",1.116666667,0.565,1,8079.103,3,0.1,0.25
0,682,target,"[(1031, 795)]",[],[1],[0.55],vertical,"(890.0, 762.0)",0.416666667,0.505,1,8084.754,3,0.1,0.25
0,683,target,"[(1017, 803)]",[],[1],[0.5833333333333334],horizontal,"(890.0, 262.0)",0.933333333,0.544,1,8090.138,3,0.08,0.25
0,684,target,"[(1033, 794)]",[],[1],[0.48333333333333334],horizontal,"(390.0, 262.0)",1.233333333,0.441,1,8110.478,3,0.08,0.25
0,685,target,"[(1017, 791)]",[],[1],[0.65],vertical,"(390.0, 762.0)",0.716666667,0.609,1,8116.352,3,0.08,0.25
0,686,target,"[(1040, 791)]",[],[1],[0.85],vertical,"(390.0, 262.0)",0.533333333,nan,0,8637.492,0,0.08,0.25
0,687,target,"[(1037, 797)]",[],[1],[0.85],vertical,"(890.0, 262.0)",0.733333333,nan,0,8642.052,0,0.08,0.25
0,688,target,"[(1051, 813)]",[],[1],[0.85],vertical,"(390.0, 262.0)",0.733333333,nan,0,8646.352,0,0.08,0.25
0,689,target,"[(1037, 815)]",[],[1],[0.85],horizontal,"(890.0, 762.0)",1.15,nan,0,8652.52,0,0.08,0.25
0,690,target,"[(1052, 811)]",[],[1],[],horizontal,"(390.0, 262.0)",,"('cti', 1.333)",0,8659.487,0,0.1,0.25
0,691,target,"[(1037, 819)]",[],[1],[0.5166666666666666],vertical,"(390.0, 262.0)",0.366666667,0.481,1,8665.277,1,0.1,0.25
0,692,target,"[(1033, 807)]",[],[1],[0.6333333333333333],vertical,"(890.0, 762.0)",0.966666667,0.6,1,8669.337,1,0.1,0.25
0,693,target,"[(1052, 795)]",[],[1],[0.5166666666666666],horizontal,"(890.0, 762.0)",0.5,0.477,1,8674.222,1,0.1,0.25
0,694,target,"[(1044, 801)]",[],[1],[0.5666666666666667],vertical,"(390.0, 262.0)",0.716666667,0.525,1,8679.085,2,0.1,0.25
0,695,catch,"[(1057, 791)]",[],[1],[],vertical,"(390.0, 262.0)",,"('cti', 1.563),nan",0,8684.118,0,0.12,0.25
0,696,target,"[(1038, 801)]",[],[1],[0.48333333333333334],vertical,"(890.0, 262.0)",0.766666667,0.445,1,8688.832,1,0.12,0.25
0,697,target,"[(1052, 782)]",[],[1],[0.6],horizontal,"(890.0, 262.0)",0.583333333,0.561,1,8693.949,1,0.12,0.25
0,698,target,"[(1038, 776)]",[],[1],[0.15],vertical,"(390.0, 762.0)",1.5,0.118,0,8698.635,0,0.1,0.25
0,699,target,"[(1025, 796)]",[],[1],[0.5333333333333333],horizontal,"(890.0, 762.0)",1.15,0.489,1,8703.536,1,0.1,0.25
0,700,catch,"[(1048, 795)]",[],[1],[],horizontal,"(390.0, 762.0)",1.6,nan,1,8708.296,1,0.1,0.25
0,701,target,"[(1052, 792)]",[],[1],[0.4666666666666667],vertical,"(390.0, 762.0)",1.183333333,0.425,1,8713.04,1,0.1,0.25
0,702,catch,"[(1069, 799)]",[],[1],[],vertical,"(890.0, 762.0)",1.6,nan,1,8717.961,2,0.1,0.25
0,703,catch,"[(1053, 807)]",[],[1],[],vertical,"(390.0, 262.0)",1.6,nan,1,8723.271,2,0.1,0.25
0,704,target,"[(1057, 795)]",[],[1],[0.5333333333333333],horizontal,"(890.0, 762.0)",1.283333333,0.494,1,8728.544,2,0.1,0.25
0,705,target,"[(1054, 791)]",[],[1],[0.45],vertical,"(890.0, 262.0)",0.866666667,0.414,1,8734.723,2,0.1,0.25
0,706,target,"[(1068, 798)]",[],[1],[0.55],horizontal,"(890.0, 762.0)",1.133333333,0.507,1,8740.202,3,0.1,0.25
0,707,target,"[(1057, 791)]",[],[1],[0.36666666666666664],horizontal,"(890.0, 762.0)",1.383333333,0.327,1,8746.275,3,0.1,0.25
0,708,target,"[(1061, 802)]",[],[1],[0.31666666666666665],horizontal,"(890.0, 762.0)",1.3,0.28,1,8752.153,3,0.08,0.25
0,709,target,"[(1033, 785)]",[],[1],[0.5833333333333334],horizontal,"(890.0, 262.0)",0.483333333,0.546,1,8757.988,3,0.06,0.15
0,710,catch,"[(1057, 794)]",[],[1],[],horizontal,"(890.0, 262.0)",1.6,nan,1,8763.087,3,0.06,0.15
0,711,target,"[(1041, 771)]",[],[1],[0.5833333333333334],horizontal,"(390.0, 262.0)",0.416666667,0.544,1,8769.255,3,0.06,0.15
0,712,catch,"[(1040, 800)]",[],[1],[0.03333333333333333],horizontal,"(890.0, 762.0)",1.6,"0.019,nan",0,8774.52,0,0.08,0.25
0,713,target,"[(1057, 800)]",[],[1],[0.5666666666666667],horizontal,"(390.0, 762.0)",0.433333333,0.53,1,8779.136,1,0.08,0.25
0,714,target,"[(1057, 808)]",[],[1],[0.45],horizontal,"(390.0, 262.0)",1.283333333,0.411,1,8783.989,1,0.06,0.15
0,715,target,"[(1037, 780)]",[],[1],[0.25],horizontal,"(890.0, 762.0)",1.066666667,0.214,1,8789.103,1,0.06,0.15
0,716,target,"[(1047, 796)]",[],[1],[0.6833333333333333],horizontal,"(390.0, 762.0)",0.683333333,0.64,1,8794.254,2,0.06,0.15
0,717,target,"[(1037, 798)]",[],[1],[0.2833333333333333],vertical,"(890.0, 762.0)",1.383333333,0.248,1,8799.721,2,0.06,0.15
0,718,target,"[(1057, 803)]",[],[1],[0.5],vertical,"(390.0, 762.0)",0.75,0.459,1,8805.164,2,0.06,0.15
0,719,target,"[(1037, 800)]",[],[1],[0.18333333333333332],vertical,"(890.0, 262.0)",1.5,0.151,0,8810.784,0,0.06,0.15
0,720,target,"[(1053, 811)]",[],[1],[0.5],horizontal,"(390.0, 262.0)",0.866666667,0.456,1,8816.237,1,0.06,0.15
0,721,target,"[(1019, 807)]",[],[1],[0.5],vertical,"(890.0, 262.0)",1.016666667,0.464,1,8821.271,1,0.06,0.15
0,722,target,"[(1038, 795)]",[],[1],[0.2],horizontal,"(890.0, 262.0)",1.3,0.167,0,8826.837,0,0.06,0.15
0,723,target,"[(1036, 802)]",[],[1],[0.6333333333333333],vertical,"(390.0, 762.0)",0.816666667,0.59,1,8831.655,1,0.06,0.15
0,724,catch,"[(1052, 791)]",[],[1],[0.03333333333333333],horizontal,"(390.0, 762.0)",1.6,"0.021,nan",0,8836.348,0,0.08,0.25
0,725,catch,"[(1052, 795)]",[],[1],[],horizontal,"(890.0, 262.0)",,"('cti', 1.231),nan",0,8841.188,0,0.1,0.25
0,726,target,"[(1045, 807)]",[],[1],[0.6166666666666667],vertical,"(390.0, 762.0)",0.4,0.584,1,8845.387,1,0.1,0.25
0,727,target,"[(1063, 803)]",[],[1],[0.5666666666666667],horizontal,"(390.0, 762.0)",1.266666667,0.527,1,8849.864,1,0.1,0.25
0,728,target,"[(1055, 788)]",[],[1],[0.48333333333333334],vertical,"(890.0, 762.0)",1.116666667,0.451,1,8855.272,1,0.1,0.25
0,729,target,"[(1055, 790)]",[],[1],[0.6],horizontal,"(890.0, 262.0)",1.35,0.569,1,8860.936,2,0.1,0.25
0,730,target,"[(1044, 798)]",[],[1],[0.6166666666666667],horizontal,"(390.0, 262.0)",0.65,0.575,1,8866.92,2,0.1,0.25
0,731,target,"[(1049, 803)]",[],[1],[0.4666666666666667],horizontal,"(390.0, 762.0)",1.05,0.429,1,8871.919,2,0.1,0.25
0,732,catch,"[(1057, 811)]",[],[1],[],vertical,"(890.0, 262.0)",1.6,nan,1,8877.654,2,0.1,0.25
0,733,target,"[(1037, 796)]",[],[1],[0.25],vertical,"(390.0, 762.0)",1.333333333,0.213,1,8882.969,3,0.1,0.25
0,734,target,"[(1034, 794)]",[],[1],[0.65],horizontal,"(390.0, 762.0)",0.633333333,0.618,1,8889.107,3,0.1,0.25
0,735,target,"[(1057, 804)]",[],[1],[0.5333333333333333],vertical,"(890.0, 262.0)",1.1,0.492,1,8894.437,3,0.1,0.25
0,736,target,"[(1050, 792)]",[],[1],[0.65],vertical,"(390.0, 762.0)",0.816666667,0.614,1,8900.604,3,0.1,0.25
0,737,target,"[(1054, 788)]",[],[1],[0.4666666666666667],vertical,"(390.0, 762.0)",1.133333333,0.427,1,8906.172,3,0.1,0.25
0,738,target,"[(1037, 777)]",[],[1],[0.23333333333333334],horizontal,"(390.0, 262.0)",1.516666667,0.198,0,8912.139,0,0.1,0.25
0,739,catch,"[(1040, 789)]",[],[1],[],vertical,"(390.0, 762.0)",,"('cti', 1.141),nan",0,8917.053,0,0.12,0.25
0,740,target,"[(1037, 798)]",[],[1],[0.4166666666666667],horizontal,"(890.0, 762.0)",1.166666667,0.384,1,8921.355,1,0.1,0.25
0,741,target,"[(1036, 792)]",[],[1],[0.65],vertical,"(890.0, 762.0)",0.833333333,0.605,1,8926.738,1,0.1,0.25
0,742,catch,"[(1044, 786)]",[],[1],[],vertical,"(390.0, 762.0)",1.6,nan,1,8931.648,1,0.1,0.25
0,743,target,"[(1054, 792)]",[],[1],[0.4666666666666667],vertical,"(390.0, 262.0)",1.216666667,0.431,1,8936.82,2,0.1,0.25
0,744,target,"[(1033, 780)]",[],[1],[0.5666666666666667],horizontal,"(890.0, 762.0)",0.733333333,0.529,1,8942.654,2,0.1,0.25
0,745,target,"[(1045, 800)]",[],[1],[0.5166666666666666],horizontal,"(390.0, 262.0)",0.733333333,0.476,1,8947.493,2,0.08,0.25
0,746,catch,"[(1050, 806)]",[],[1],[],horizontal,"(890.0, 762.0)",1.6,nan,1,8952.136,2,0.08,0.25
0,747,target,"[(1050, 800)]",[],[1],[0.48333333333333334],vertical,"(890.0, 762.0)",1.25,0.447,1,8957.657,3,0.08,0.25
0,748,catch,"[(1033, 801)]",[],[1],[],vertical,"(390.0, 762.0)",,"('cti', 1.52),nan",0,8963.654,0,0.1,0.25
0,749,target,"[(1033, 790)]",[],[1],[0.6166666666666667],vertical,"(390.0, 762.0)",1.416666667,0.585,1,8968.176,1,0.1,0.25
0,750,target,"[(1052, 780)]",[],[1],[0.48333333333333334],horizontal,"(390.0, 262.0)",0.566666667,0.446,1,8973.677,1,0.1,0.25
0,751,target,"[(1055, 789)]",[],[1],[0.31666666666666665],vertical,"(890.0, 262.0)",1.366666667,0.277,1,8978.195,1,0.1,0.25
0,752,target,"[(1033, 800)]",[],[1],[0.65],horizontal,"(390.0, 762.0)",0.616666667,0.612,1,8983.621,2,0.1,0.25
0,753,target,"[(1057, 796)]",[],[1],[0.6],vertical,"(390.0, 262.0)",1.083333333,0.565,1,8988.586,2,0.1,0.25
0,754,target,"[(1032, 817)]",[],[1],[0.36666666666666664],horizontal,"(890.0, 762.0)",1.35,0.33,1,8994.049,2,0.1,0.25
0,755,target,"[(1040, 806)]",[],[1],[0.85],vertical,"(390.0, 762.0)",0.35,nan,0,8999.887,0,0.1,0.25
0,756,target,"[(997, 792), (1029, 827)]",[],"[0, 1]",[0.5],horizontal,"(390.0, 262.0)",0.533333333,0.458,1,9004.454,1,0.1,0.25
0,757,target,"[(1034, 802)]",[],[1],[0.7166666666666667],vertical,"(390.0, 762.0)",0.7,0.668,1,9010.304,1,0.1,0.25
0,758,target,"[(1052, 788)]",[],[1],[0.5333333333333333],vertical,"(390.0, 762.0)",1.05,0.496,1,9015.196,1,0.1,0.25
0,759,target,"[(1055, 791)]",[],[1],[0.3],vertical,"(890.0, 762.0)",1.516666667,0.264,1,9020.281,2,0.1,0.25
0,760,target,"[(1033, 792)]",[],[1],[0.85],horizontal,"(390.0, 762.0)",0.4,nan,0,9025.988,0,0.1,0.25
0,761,target,"[(1032, 811)]",[],[1],[0.36666666666666664],vertical,"(390.0, 262.0)",1.283333333,0.328,1,9030.079,1,0.1,0.25
0,762,target,"[(1020, 791)]",[],[1],[0.7833333333333333],horizontal,"(890.0, 762.0)",0.416666667,0.748,1,9035.743,1,0.08,0.25
0,763,target,"[(1052, 811)]",[],[1],[],horizontal,"(890.0, 762.0)",,"('cti', 1.16)",0,9040.325,0,0.1,0.25
0,764,catch,"[(1037, 821)]",[],[1],[],horizontal,"(890.0, 262.0)",1.6,nan,1,9044.911,1,0.1,0.25
0,765,target,"[(1041, 776)]",[],[1],[0.6166666666666667],vertical,"(890.0, 262.0)",1.383333333,0.573,1,9049.604,1,0.1,0.25
0,766,catch,"[(1025, 790)]",[],[1],[],horizontal,"(390.0, 762.0)",,"('cti', 1.183),nan",0,9054.854,0,0.12,0.25
0,767,target,"[(1049, 788)]",[],[1],[0.5666666666666667],vertical,"(390.0, 262.0)",0.683333333,0.53,1,9059.188,1,0.12,0.25
0,768,target,"[(1055, 801)]",[],[1],[0.6166666666666667],horizontal,"(890.0, 762.0)",0.566666667,0.574,1,9064.404,1,0.12,0.25
0,769,catch,"[(1034, 777)]",[],[1],[],horizontal,"(890.0, 762.0)",1.6,nan,1,9068.906,1,0.12,0.25
0,770,target,"[(1054, 793)]",[],[1],[0.3],vertical,"(890.0, 762.0)",1.35,0.263,1,9073.736,2,0.12,0.25
0,771,target,"[(1033, 792)]",[],[1],[0.5166666666666666],vertical,"(390.0, 762.0)",0.466666667,0.481,1,9079.267,2,0.12,0.25
0,772,target,"[(1038, 793)]",[],[1],[0.55],horizontal,"(890.0, 762.0)",1.083333333,0.504,1,9084.172,2,0.12,0.25
0,773,target,"[(1032, 799)]",[],[1],[0.4666666666666667],horizontal,"(890.0, 262.0)",1.083333333,0.428,1,9089.825,2,0.12,0.25
0,774,catch,"[(1030, 804)]",[],[1],[],horizontal,"(390.0, 262.0)",1.6,nan,1,9094.971,3,0.1,0.25
0,775,catch,"[(1045, 795)]",[],[1],[],vertical,"(390.0, 762.0)",1.6,nan,1,9100.874,3,0.08,0.25
0,776,target,"[(1034, 781)]",[],[1],[0.5166666666666666],vertical,"(890.0, 262.0)",0.833333333,0.473,1,9106.406,3,0.08,0.25
0,777,target,"[(1049, 781)]",[],[1],[0.2],vertical,"(890.0, 262.0)",1.516666667,0.169,0,9111.847,0,0.08,0.25
0,778,catch,"[(1030, 797)]",[],[1],[],horizontal,"(390.0, 262.0)",1.6,nan,1,9116.439,1,0.08,0.25
0,779,catch,"[(1053, 782)]",[],[1],[],vertical,"(890.0, 262.0)",1.6,nan,1,9121.638,1,0.08,0.25
0,780,target,"[(1045, 778)]",[],[1],[0.5333333333333333],vertical,"(390.0, 762.0)",0.6,0.49,1,9126.588,1,0.08,0.25
0,781,target,"[(1037, 786)]",[],[1],[0.55],horizontal,"(890.0, 762.0)",0.483333333,0.503,1,9131.197,2,0.08,0.25
0,782,catch,"[(1046, 802)]",[],[1],[],horizontal,"(390.0, 762.0)",,"('cti', 1.524),nan",0,9136.212,0,0.1,0.25
0,783,target,"[(1034, 801)]",[],[1],[0.6],horizontal,"(890.0, 762.0)",0.75,0.557,1,9140.588,1,0.1,0.25
0,784,target,"[(1050, 786)]",[],[1],[0.5166666666666666],vertical,"(890.0, 262.0)",0.483333333,0.476,1,9145.305,1,0.1,0.25
0,785,target,"[(1042, 790)]",[],[1],[0.6333333333333333],vertical,"(890.0, 262.0)",0.416666667,0.592,1,9150.023,1,0.1,0.25
0,786,target,"[(1033, 792)]",[],[1],[0.6833333333333333],horizontal,"(890.0, 762.0)",1.1,0.641,1,9154.283,2,0.1,0.25
0,787,target,"[(1049, 796)]",[],[1],[0.6333333333333333],vertical,"(390.0, 762.0)",0.95,0.595,1,9159.722,2,0.1,0.25
0,788,catch,"[(1033, 796)]",[],[1],[],vertical,"(390.0, 762.0)",1.6,nan,1,9164.978,2,0.1,0.25
0,789,catch,"[(1032, 807)]",[],[1],[],horizontal,"(890.0, 262.0)",,"('cti', 1.359),nan",0,9170.663,0,0.1,0.25
0,790,target,"[(1052, 799)]",[],[1],[0.6333333333333333],horizontal,"(890.0, 762.0)",0.566666667,0.588,1,9175.345,1,0.1,0.25
0,791,target,"[(1057, 786)]",[],[1],[0.5333333333333333],horizontal,"(890.0, 262.0)",0.816666667,0.489,1,9180.233,1,0.1,0.25
0,792,target,"[(1033, 786)]",[],[1],[0.5833333333333334],horizontal,"(890.0, 762.0)",0.783333333,0.543,1,9184.755,1,0.1,0.25
0,793,target,"[(1041, 801)]",[],[1],[0.65],vertical,"(390.0, 762.0)",0.45,0.613,1,9189.58,2,0.1,0.25
0,794,catch,"[(1037, 781)]",[],[1],[],horizontal,"(890.0, 262.0)",,"('cti', 1.567),nan",0,9194.454,0,0.12,0.25
0,795,target,"[(1033, 793)]",[],[1],[0.4666666666666667],vertical,"(390.0, 262.0)",1.333333333,0.428,1,9199.256,1,0.12,0.25
0,796,target,"[(1044, 778)]",[],[1],[0.55],vertical,"(390.0, 262.0)",0.866666667,0.505,1,9205.25,1,0.12,0.25
0,797,catch,"[(1033, 781)]",[],[1],[],horizontal,"(890.0, 262.0)",1.6,nan,1,9210.256,1,0.12,0.25
0,798,target,"[(1055, 800)]",[],[1],[0.6333333333333333],horizontal,"(390.0, 262.0)",1.05,0.59,1,9215.462,2,0.1,0.25
0,799,target,"[(1056, 790)]",[],[1],[0.6166666666666667],vertical,"(890.0, 762.0)",1.1,0.575,1,9221.065,2,0.1,0.25
0,800,catch,"[(1053, 790)]",[],[1],[],horizontal,"(890.0, 262.0)",1.6,nan,1,9226.299,2,0.1,0.25
0,801,target,"[(1046, 806)]",[],[1],[0.5],horizontal,"(890.0, 262.0)",0.65,0.463,1,9231.863,2,0.1,0.25
0,802,catch,"[(1052, 805)]",[],[1],[],vertical,"(390.0, 262.0)",1.6,nan,1,9237.17,3,0.1,0.25
0,803,catch,"[(1037, 781)]",[],[1],[],vertical,"(390.0, 262.0)",1.6,nan,1,9243.404,3,0.1,0.25
0,804,catch,"[(1024, 781)]",[],[1],[],vertical,"(890.0, 762.0)",1.6,nan,1,9249.032,3,0.1,0.25
0,805,target,"[(1037, 809)]",[],[1],[0.85],horizontal,"(890.0, 762.0)",0.45,nan,0,9254.971,0,0.1,0.25
0,806,target,"[(1019, 783)]",[],[1],[0.6833333333333333],vertical,"(890.0, 762.0)",1.166666667,0.643,1,9259.137,1,0.1,0.25
0,807,target,"[(1039, 801)]",[],[1],[0.6666666666666666],vertical,"(390.0, 262.0)",1.133333333,0.623,1,9264.538,1,0.1,0.25
0,808,target,"[(1037, 786)]",[],[1],[0.5833333333333334],vertical,"(390.0, 262.0)",0.583333333,0.536,1,9269.752,1,0.1,0.25
0,809,target,"[(1055, 786)]",[],[1],[0.5833333333333334],vertical,"(890.0, 762.0)",1.05,0.543,1,9274.139,2,0.1,0.25
0,810,catch,"[(1037, 793)]",[],[1],[],horizontal,"(890.0, 262.0)",1.6,nan,1,9279.515,2,0.1,0.25
0,811,target,"[(1043, 794)]",[],[1],[0.48333333333333334],vertical,"(890.0, 762.0)",1.35,0.441,1,9285.232,2,0.1,0.25
0,812,target,"[(1041, 774)]",[],[1],[0.4],horizontal,"(390.0, 762.0)",1.2,0.362,1,9290.756,2,0.1,0.25
0,813,target,"[(1055, 804)]",[],[1],[0.21666666666666667],vertical,"(890.0, 762.0)",1.4,0.182,0,9296.439,0,0.08,0.25
0,814,catch,"[(1033, 790)]",[],[1],[],vertical,"(890.0, 262.0)",1.6,nan,1,9301.117,1,0.08,0.25
0,815,catch,"[(1052, 786)]",[],[1],[],horizontal,"(890.0, 262.0)",1.6,nan,1,9306.301,1,0.08,0.25
0,816,target,"[(1053, 792)]",[],[1],[0.5333333333333333],vertical,"(390.0, 762.0)",1.366666667,0.489,1,9311.188,1,0.06,0.15
0,817,catch,"[(1040, 796)]",[],[1],[],horizontal,"(890.0, 762.0)",1.6,nan,1,9316.472,2,0.06,0.15
0,818,target,"[(1030, 786)]",[],[1],[0.5333333333333333],horizontal,"(890.0, 762.0)",0.9,0.492,1,9321.555,2,0.06,0.15
0,819,target,"[(1033, 789)]",[],[1],[0.5833333333333334],horizontal,"(890.0, 762.0)",0.583333333,0.538,1,9326.74,2,0.06,0.15
0,820,target,"[(1056, 802)]",[],[1],[0.43333333333333335],vertical,"(890.0, 262.0)",1.366666667,0.391,1,9331.936,2,0.06,0.15
0,821,catch,"[(1035, 808)]",[],[1],[],vertical,"(390.0, 262.0)",1.6,nan,1,9337.907,3,0.06,0.15
0,822,target,"[(1033, 790)]",[],[1],[0.75],vertical,"(390.0, 762.0)",0.433333333,0.702,1,9343.835,3,0.06,0.15
0,823,target,"[(1060, 815)]",[],[1],[0.6166666666666667],vertical,"(890.0, 262.0)",0.433333333,0.576,1,9349.322,3,0.06,0.15
0,824,target,"[(1038, 799)]",[],[1],[0.5833333333333334],horizontal,"(890.0, 762.0)",0.683333333,0.539,1,9354.754,3,0.06,0.15
0,825,target,"[(1034, 802)]",[],[1],[0.5166666666666666],horizontal,"(390.0, 762.0)",1.083333333,0.477,1,9360.357,3,0.06,0.15
0,826,target,"[(1034, 802)]",[],[1],[0.55],vertical,"(890.0, 262.0)",0.716666667,0.509,1,9366.426,3,0.06,0.15
0,827,target,"[(1038, 795)]",[],[1],[0.36666666666666664],horizontal,"(890.0, 762.0)",1.266666667,0.326,1,9372.385,3,0.06,0.15
0,828,target,"[(1032, 787)]",[],[1],[0.08333333333333333],horizontal,"(890.0, 262.0)",1.483333333,0.052,0,9378.368,0,0.06,0.15
0,829,catch,"[(1049, 808)]",[],[1],[],vertical,"(890.0, 262.0)",1.6,nan,1,9383.167,1,0.06,0.15
0,830,target,"[(1034, 779)]",[],[1],[0.48333333333333334],vertical,"(890.0, 262.0)",1.35,0.439,1,9388.365,1,0.06,0.15
0,831,target,"[(1033, 791)]",[],[1],[0.5333333333333333],vertical,"(390.0, 262.0)",0.883333333,0.492,1,9393.389,1,0.06,0.15
0,832,target,"[(1057, 800)]",[],[1],[0.3],horizontal,"(390.0, 762.0)",1.316666667,0.261,1,9398.056,2,0.04,0.15
0,833,target,"[(1028, 786)]",[],[1],[0.5333333333333333],vertical,"(890.0, 762.0)",1.133333333,0.494,1,9403.323,2,0.04,0.15
0,834,target,"[(1033, 781)]",[],[1],[0.6833333333333333],horizontal,"(390.0, 262.0)",1.116666667,0.641,1,9408.637,2,0.04,0.15
0,835,target,"[(1033, 793)]",[],[1],[0.5833333333333334],vertical,"(890.0, 762.0)",0.35,0.538,1,9414.339,2,0.04,0.15
0,836,target,"[(1038, 811)]",[],[1],[0.4],vertical,"(390.0, 762.0)",1.25,0.36,1,9419.572,3,0.04,0.15
0,837,target,"[(1035, 805)]",[],[1],[0.48333333333333334],horizontal,"(390.0, 262.0)",0.816666667,0.443,1,9425.757,3,0.04,0.15
0,838,target,"[(1033, 799)]",[],[1],[0.5666666666666667],vertical,"(890.0, 262.0)",0.983333333,0.53,1,9431.463,3,0.04,0.15
0,839,target,"[(1036, 782)]",[],[1],[0.5833333333333334],horizontal,"(390.0, 762.0)",0.833333333,0.544,1,9437.572,3,0.02,0.15
0,840,target,"[(1029, 795)]",[],[1],[0.6],horizontal,"(390.0, 262.0)",1.416666667,0.554,1,9442.9,3,0.02,0.15
0,841,target,"[(1035, 790)]",[],[1],[0.6166666666666667],horizontal,"(390.0, 262.0)",0.833333333,0.574,1,9448.912,3,0.02,0.15
0,842,target,"[(1033, 790)]",[],[1],[0.55],vertical,"(890.0, 762.0)",1,0.505,1,9454.543,3,0.02,0.15
0,843,target,"[(1057, 793)]",[],[1],[0.05],horizontal,"(390.0, 762.0)",1.483333333,0.017,0,9460.538,0,0.02,0.15
0,844,target,"[(1038, 802)]",[],[1],[0.5166666666666666],horizontal,"(390.0, 762.0)",0.816666667,0.473,1,9465.171,1,0,0.15
0,845,target,"[(1033, 792)]",[],[1],[0.16666666666666666],vertical,"(390.0, 762.0)",1.116666667,0.129,0,9470.311,0,0,0.15
0,846,target,"[(1040, 789)]",[],[1],[0.55],horizontal,"(390.0, 762.0)",1.166666667,0.507,1,9474.427,1,0,0.15
0,847,target,"[(1031, 793)]",[],[1],[0.5333333333333333],horizontal,"(890.0, 762.0)",1.45,0.493,1,9479.761,1,0,0.15
0,848,target,"[(1033, 791)]",[],[1],[0.3333333333333333],horizontal,"(890.0, 262.0)",1.383333333,0.293,1,9485.401,1,0,0.15
0,849,target,"[(1033, 803)]",[],[1],[0.5],vertical,"(890.0, 262.0)",0.516666667,0.456,1,9490.854,2,0,0.15
0,850,target,"[(1054, 811)]",[],[1],[0.26666666666666666],vertical,"(890.0, 262.0)",1.333333333,0.229,1,9495.961,2,0,0.15
0,851,target,"[(1035, 804)]",[],[1],[0.5666666666666667],vertical,"(390.0, 762.0)",1.15,0.524,1,9501.653,2,0,0.15
0,852,target,"[(1052, 799)]",[],[1],[0.55],horizontal,"(390.0, 262.0)",0.716666667,0.507,1,9507.302,2,0,0.15
0,853,target,"[(1033, 803)]",[],[1],[0.5166666666666666],vertical,"(390.0, 262.0)",0.75,0.477,1,9512.267,3,0,0.15
0,854,target,"[(1021, 790)]",[],[1],[0.55],vertical,"(890.0, 262.0)",0.466666667,0.507,1,9517.802,3,0,0.15
0,855,target,"[(1034, 811)]",[],[1],[0.6333333333333333],vertical,"(390.0, 762.0)",0.95,0.602,1,9522.836,3,0,0.15
0,856,target,"[(1034, 793)]",[],[1],[0.31666666666666665],horizontal,"(890.0, 762.0)",1.433333333,0.279,1,9528.54,3,0,0.15
0,857,target,"[(1029, 779)]",[],[1],[0.5833333333333334],horizontal,"(390.0, 762.0)",0.85,0.539,1,9534.672,3,0,0.15
0,858,target,"[(1030, 788)]",[],[1],[0.48333333333333334],horizontal,"(390.0, 262.0)",0.783333333,0.444,1,9540.279,3,0,0.15
0,859,target,"[(1039, 799)]",[],[1],[0.5333333333333333],horizontal,"(890.0, 262.0)",0.916666667,0.491,1,9546.007,3,0,0.15
0,860,catch,"[(1021, 782)]",[],[1],[],horizontal,"(890.0, 762.0)",,"('cti', 1.537),nan",0,9552.024,0,0.02,0.15
0,861,target,"[(1027, 784)]",[],[1],[0.7333333333333333],vertical,"(890.0, 762.0)",1.05,0.691,1,9556.31,1,0.02,0.15
0,862,target,"[(1054, 787)]",[],[1],[0.85],horizontal,"(390.0, 762.0)",0.433333333,nan,0,9561.769,0,0.02,0.15
0,863,target,"[(1021, 795)]",[],[1],[0.36666666666666664],horizontal,"(890.0, 262.0)",1.333333333,0.327,1,9566.033,1,0.02,0.15
0,864,target,"[(1033, 789)]",[],[1],[0.08333333333333333],vertical,"(390.0, 262.0)",1.533333333,0.053,0,9571.622,0,0.02,0.15
0,865,target,"[(1030, 799)]",[],[1],[],horizontal,"(890.0, 762.0)",,"('cti', 1.346)",0,9576.405,0,0.04,0.15
0,866,target,"[(1027, 800)]",[],[1],[0.5833333333333334],horizontal,"(890.0, 262.0)",0.433333333,0.543,1,9581.267,1,0.04,0.15
0,867,target,"[(1040, 790)]",[],[1],[0.65],horizontal,"(890.0, 262.0)",0.383333333,0.605,1,9585.639,1,0.04,0.15
0,868,target,"[(1020, 778)]",[],[1],[0.3333333333333333],horizontal,"(890.0, 262.0)",1.45,0.296,1,9590.622,1,0.04,0.15
0,869,target,"[(1033, 777)]",[],[1],[0.5666666666666667],vertical,"(390.0, 762.0)",0.6,0.523,1,9596.241,2,0.04,0.15
0,870,target,"[(1025, 795)]",[],[1],[0.5166666666666666],vertical,"(890.0, 262.0)",0.533333333,0.477,1,9601.39,2,0.04,0.15
0,871,target,"[(1033, 800)]",[],[1],[0.5333333333333333],vertical,"(390.0, 762.0)",0.933333333,0.492,1,9606.589,2,0.04,0.15
0,872,target,"[(1030, 798)]",[],[1],[0.6833333333333333],vertical,"(390.0, 762.0)",0.483333333,0.642,1,9612.15,2,0.04,0.15
0,873,target,"[(1038, 811)]",[],[1],[0.1],vertical,"(390.0, 262.0)",1.483333333,0.066,0,9617.358,0,0.04,0.15
0,874,target,"[(1040, 802)]",[],[1],[0.6333333333333333],vertical,"(890.0, 262.0)",0.716666667,0.591,1,9622.407,1,0.04,0.15
0,875,target,"[(1033, 782)]",[],[1],[0.3],vertical,"(390.0, 262.0)",1.533333333,0.266,1,9627.523,1,0.04,0.15
0,876,target,"[(1017, 791)]",[],[1],[0.5666666666666667],vertical,"(890.0, 262.0)",0.95,0.53,1,9632.697,1,0.04,0.15
