block,trial,trial_type,taps_start_loc_during_fix,taps_end_loc_during_fix,taps_on_lever_during_fix,taps_on_lever_s_during_fix,bar_orientation,target_xy,cti,rt,acc,time,pulses
0,1,target,"[(1062, 869)]",[],[1],[0.43333333333333335],horizontal,"(890.0, 762.0)",1.4666666666666666,0.399,1,0.474,1
0,2,target,"[(1183, 825)]",[],[1],[0.43333333333333335],horizontal,"(390.0, 762.0)",0.7333333333333333,0.395,1,25.286,1
0,3,target,"[(1122, 849)]",[],[1],[0.4],vertical,"(390.0, 262.0)",0.85,0.368,1,105.227,1
0,4,target,"[(1033, 880)]",[],[1],[0.85],vertical,"(890.0, 262.0)",0.6666666666666666,nan,0,120.903,0
0,5,target,"[(943, 880), (1017, 831)]",[],"[0, 1]",[0.5333333333333333],vertical,"(890.0, 762.0)",1.0666666666666667,0.498,1,127.694,1
0,6,target,"[(1029, 864)]",[],[1],[0.05],horizontal,"(890.0, 262.0)",1.55,0.017,0,145.182,0
0,7,target,"[(1012, 863)]",[],[1],[0.15],vertical,"(390.0, 262.0)",1.4,0.117,1,149.912,1
0,8,target,"[(1034, 822)]",[],[1],[0.21666666666666667],horizontal,"(390.0, 262.0)",1.6333333333333333,0.183,1,154.594,1
0,9,target,"[(1029, 836)]",[],[1],[0.85],vertical,"(890.0, 262.0)",0.7,nan,0,159.735,0
0,10,target,"[(1037, 838)]",[],[1],[0.6666666666666666],vertical,"(390.0, 262.0)",0.5666666666666667,0.63,1,164.428,1
0,11,target,"[(1037, 844)]",[],[1],[0.75],vertical,"(390.0, 262.0)",0.6166666666666667,0.712,1,168.96,1
0,12,target,"[(1040, 832)]",[],[1],[0.7333333333333333],horizontal,"(390.0, 262.0)",0.55,0.696,1,173.681,1
0,13,target,"[(1029, 847)]",[],[1],[0.3833333333333333],vertical,"(390.0, 262.0)",1.2333333333333334,0.35,1,178.582,2
0,14,catch,"[(1037, 837)]",[],[1],[],vertical,"(390.0, 262.0)",1.1333333333333333,nan,1,184.314,1
0,15,target,"[(1035, 837)]",[],[1],[0.5166666666666666],horizontal,"(390.0, 262.0)",0.9166666666666666,0.479,1,189.295,1
0,16,target,"[(1042, 831)]",[],[1],[0.5],vertical,"(890.0, 762.0)",1.0333333333333332,0.468,1,193.992,1
0,17,target,"[(1037, 836)]",[],[1],[0.6166666666666667],vertical,"(390.0, 762.0)",0.8166666666666667,0.575,1,199.295,3
0,18,target,"[(1033, 830)]",[],[1],[0.08333333333333333],vertical,"(890.0, 762.0)",1.4,0.053,0,205.188,0
0,19,target,"[(1037, 841)]",[],[1],[],vertical,"(390.0, 262.0)",,"('cti', 1.544)",0,210.115,0
0,20,target,"[(1030, 857)]",[],[1],[],horizontal,"(890.0, 262.0)",,"('cti', 1.338)",0,214.639,0
0,21,target,"[(1038, 828)]",[],[1],[0.5],vertical,"(390.0, 262.0)",1.25,0.457,1,219.553,1
0,22,target,"[(1033, 821)]",[],[1],[0.5333333333333333],horizontal,"(390.0, 762.0)",1.1833333333333333,0.489,1,224.379,1
0,23,target,"[(1033, 809)]",[],[1],[0.5833333333333334],vertical,"(890.0, 262.0)",0.65,0.545,1,229.913,1
0,24,target,"[(1033, 819)]",[],[1],[0.45],horizontal,"(390.0, 262.0)",1.3833333333333333,0.41,1,234.746,2
0,25,target,"[(1033, 816)]",[],[1],[0.5666666666666667],horizontal,"(890.0, 762.0)",0.9666666666666667,0.526,1,240.23,1
0,26,catch,"[(1037, 823)]",[],[1],[],vertical,"(890.0, 762.0)",1.6666666666666667,nan,1,244.855,1
0,27,target,"[(1038, 833)]",[],[1],[0.6333333333333333],horizontal,"(890.0, 762.0)",0.6833333333333333,0.592,1,249.563,1
0,28,target,"[(1032, 809)]",[],[1],[0.5],vertical,"(890.0, 262.0)",0.7,0.465,1,254.283,3
0,29,target,"[(1038, 818)]",[],[1],[0.5],vertical,"(890.0, 762.0)",1.15,0.46,1,259.364,1
0,30,target,"[(1033, 803)]",[],[1],[0.2],horizontal,"(390.0, 262.0)",1.4666666666666666,0.164,1,264.164,1
0,31,catch,"[(1038, 822)]",[],[1],[],vertical,"(390.0, 262.0)",1.1,nan,1,268.949,1
0,32,target,"[(1038, 825)]",[],[1],[0.5833333333333334],horizontal,"(390.0, 262.0)",0.5666666666666667,0.545,1,273.683,2
0,33,target,"[(1040, 828)]",[],[1],[0.85],vertical,"(390.0, 762.0)",1.4166666666666667,"('cti', 1.417),nan",0,279.029,0
0,34,target,"[(1022, 847)]",[],[1],[0.4666666666666667],horizontal,"(390.0, 262.0)",0.9166666666666666,0.423,1,284.681,1
0,35,target,"[(1060, 825)]",[],[1],[0.5833333333333334],horizontal,"(890.0, 762.0)",0.6166666666666667,0.543,1,289.691,1
0,36,target,"[(1039, 819)]",[],[1],[0.5666666666666667],vertical,"(890.0, 762.0)",1.05,0.537,1,294.13,1
0,37,catch,"[(1042, 808)]",[],[1],[],vertical,"(390.0, 262.0)",1.4833333333333334,nan,1,298.923,2
0,38,target,"[(1033, 852)]",[],[1],[0.11666666666666667],vertical,"(890.0, 762.0)",1.65,0.086,0,304.192,0
0,39,target,"[(1033, 848)]",[],[1],[0.6166666666666667],horizontal,"(890.0, 762.0)",0.5833333333333334,0.581,1,309.19,1
0,40,target,"[(1054, 816)]",[],[1],[0.4166666666666667],vertical,"(390.0, 762.0)",1.2333333333333334,0.382,1,313.467,1
0,41,target,"[(1043, 829)]",[],[1],[0.43333333333333335],horizontal,"(390.0, 762.0)",1.2,0.391,1,318.381,1
0,42,catch,"[(1043, 821)]",[],[1],[],vertical,"(390.0, 762.0)",1.4166666666666667,nan,1,323.046,2
0,43,target,"[(1050, 813)]",[],[1],[0.1],vertical,"(890.0, 262.0)",1.6166666666666667,0.071,0,328.281,0
0,44,target,"[(1035, 830)]",[],[1],[0.5333333333333333],horizontal,"(390.0, 262.0)",0.55,0.5,1,332.83,1
0,45,target,"[(1045, 817)]",[],[1],[0.55],horizontal,"(390.0, 262.0)",1.3333333333333333,0.512,1,337.304,1
0,46,target,"[(1043, 818)]",[],[1],[0.6],vertical,"(390.0, 262.0)",0.5333333333333333,0.56,1,342.392,1
0,47,target,"[(1037, 834)]",[],[1],[0.31666666666666665],vertical,"(390.0, 262.0)",1.0666666666666667,0.282,1,347.216,2
0,48,target,"[(1028, 829)]",[],[1],[0.5166666666666666],horizontal,"(390.0, 262.0)",0.8833333333333333,0.482,1,352.797,1
0,49,target,"[(1040, 809)]",[],[1],[0.6],vertical,"(890.0, 262.0)",0.7333333333333333,0.568,1,357.832,1
0,50,target,"[(1032, 817)]",[],[1],[0.5166666666666666],vertical,"(390.0, 262.0)",1.2833333333333332,0.481,1,362.62,1
0,51,target,"[(1038, 832)]",[],[1],[],vertical,"(390.0, 262.0)",,"('cti', 1.461)",0,367.814,0
0,52,target,"[(1035, 831)]",[],[1],[0.6166666666666667],vertical,"(890.0, 262.0)",0.95,0.585,1,372.597,1
0,53,target,"[(1043, 829)]",[],[1],[0.36666666666666664],horizontal,"(390.0, 762.0)",1.2333333333333334,0.335,1,377.452,1
0,54,target,"[(1046, 816)]",[],[1],[0.18333333333333332],vertical,"(890.0, 262.0)",1.55,0.154,1,382.292,1
0,55,catch,"[(1040, 830)]",[],[1],[],vertical,"(390.0, 262.0)",1.0166666666666666,nan,1,387.279,2
0,56,target,"[(1027, 843)]",[],[1],[0.36666666666666664],horizontal,"(390.0, 762.0)",1.4,0.333,1,391.995,1
0,57,catch,"[(1036, 851)]",[],[1],[0.03333333333333333],vertical,"(890.0, 262.0)",1.25,"0.018,nan",0,397.362,0
0,58,target,"[(1033, 832)]",[],[1],[0.5333333333333333],vertical,"(390.0, 762.0)",0.7833333333333333,0.501,1,402.61,1
0,59,target,"[(1033, 830)]",[],[1],[0.3833333333333333],horizontal,"(890.0, 262.0)",1.5166666666666666,0.34,1,407.1,1
0,60,catch,"[(1038, 813)]",[],[1],[],vertical,"(390.0, 762.0)",1.4833333333333334,nan,1,412.864,1
0,61,target,"[(1040, 829)]",[],[1],[0.18333333333333332],vertical,"(390.0, 262.0)",1.55,0.151,1,417.882,2
0,62,target,"[(1045, 835)]",[],[1],[0.13333333333333333],horizontal,"(390.0, 762.0)",1.4166666666666667,0.102,1,423.397,1
0,63,target,"[(1030, 824)]",[],[1],[0.4],vertical,"(890.0, 762.0)",1.5166666666666666,0.362,1,428.606,1
0,64,catch,"[(1038, 828)]",[],[1],[],horizontal,"(890.0, 262.0)",1.0666666666666667,nan,1,434.201,1
0,65,target,"[(1056, 816)]",[],[1],[0.11666666666666667],horizontal,"(390.0, 262.0)",1.6666666666666667,0.083,0,438.465,0
0,66,target,"[(1037, 820)]",[],[1],[0.6],horizontal,"(890.0, 262.0)",0.65,0.561,1,443.184,1
0,67,catch,"[(1037, 832)]",[],[1],[],horizontal,"(390.0, 262.0)",1.15,nan,1,447.882,1
0,68,target,"[(1037, 819)]",[],[1],[0.21666666666666667],horizontal,"(390.0, 762.0)",1.4333333333333333,0.184,1,452.314,1
0,69,target,"[(1037, 820)]",[],[1],[0.2],horizontal,"(390.0, 262.0)",0.6666666666666666,0.169,1,457.336,2
0,70,target,"[(1037, 825)]",[],[1],[0.5833333333333334],horizontal,"(890.0, 762.0)",0.5333333333333333,0.546,1,461.981,1
0,71,target,"[(1040, 830)]",[],[1],[0.3333333333333333],horizontal,"(390.0, 262.0)",1.0666666666666667,0.298,1,466.348,1
0,72,target,"[(1023, 832)]",[],[1],[0.8333333333333334],horizontal,"(390.0, 762.0)",0.7166666666666667,0.782,1,471.381,1
0,73,target,"[(1039, 824)]",[],[1],"[0.85, 0.85]",horizontal,"(890.0, 762.0)",1.0,"0.813,nan",0,476.845,0
0,74,target,"[(1027, 836)]",[],[1],[0.85],horizontal,"(390.0, 762.0)",1.25,nan,0,481.503,0
0,75,target,"[(1040, 849)]",[],[1],[0.65],horizontal,"(390.0, 762.0)",0.8333333333333334,0.618,1,486.381,1
0,76,target,"[(1059, 819)]",[],[1],[0.5],vertical,"(390.0, 762.0)",1.1333333333333333,0.463,1,490.731,1
0,77,target,"[(1040, 828)]",[],[1],[0.65],horizontal,"(390.0, 762.0)",0.85,0.608,1,495.846,1
0,78,target,"[(1035, 838)]",[],[1],[0.45],vertical,"(890.0, 262.0)",1.3,0.408,1,500.659,2
0,79,target,"[(1033, 836)]",[],[1],[0.5],vertical,"(390.0, 262.0)",0.6166666666666667,0.457,1,506.335,1
0,80,target,"[(1033, 826)]",[],[1],[0.5166666666666666],vertical,"(390.0, 762.0)",0.75,0.476,1,511.324,1
0,81,target,"[(1043, 849)]",[],[1],[0.5],vertical,"(390.0, 262.0)",0.6333333333333333,0.461,1,515.494,1
0,82,target,"[(1038, 829)]",[],[1],[0.5333333333333333],horizontal,"(390.0, 262.0)",0.65,0.49,1,520.443,3
0,83,catch,"[(1056, 814)]",[],[1],[],horizontal,"(390.0, 262.0)",,"('cti', 1.361),nan",0,525.664,0
0,84,catch,"[(1037, 850)]",[],[1],[],horizontal,"(390.0, 262.0)",1.0333333333333332,nan,1,530.303,1
0,85,target,"[(1045, 815)]",[],[1],[0.35],vertical,"(390.0, 262.0)",1.2833333333333332,0.315,1,534.399,1
0,86,target,"[(1040, 820)]",[],[1],[0.35],vertical,"(890.0, 762.0)",1.25,0.313,1,539.502,1
0,87,target,"[(1045, 828)]",[],[1],[0.85],vertical,"(390.0, 762.0)",0.8,nan,0,544.601,0
0,88,target,"[(1040, 836)]",[],[1],[0.5],horizontal,"(390.0, 762.0)",1.1,0.462,1,549.093,1
0,89,target,"[(1039, 826)]",[],[1],[0.5166666666666666],vertical,"(390.0, 262.0)",0.5166666666666666,0.479,1,554.345,1
0,90,target,"[(1038, 833)]",[],[1],[0.26666666666666666],horizontal,"(890.0, 262.0)",1.2333333333333334,0.231,1,558.941,1
0,91,catch,"[(1040, 820)]",[],[1],[],vertical,"(390.0, 262.0)",,"('cti', 1.329),nan",0,564.75,0
0,92,target,"[(1026, 820)]",[],[1],[0.5333333333333333],vertical,"(390.0, 762.0)",1.05,0.491,1,569.725,1
0,93,target,"[(1021, 828)]",[],[1],[0.18333333333333332],horizontal,"(390.0, 762.0)",1.3,0.15,1,574.449,1
0,94,target,"[(1040, 824)]",[],[1],[0.55],vertical,"(890.0, 762.0)",1.0,0.507,1,579.08,1
0,95,target,"[(1040, 851)]",[],[1],[],horizontal,"(390.0, 262.0)",,"('cti', 1.28)",0,584.414,0
0,96,target,"[(1033, 843)]",[],[1],[0.11666666666666667],horizontal,"(390.0, 262.0)",1.55,0.084,0,589.06,0
0,97,target,"[(1042, 843)]",[],[1],[0.55],horizontal,"(390.0, 762.0)",1.6833333333333333,0.517,1,595.016,1
0,98,target,"[(1047, 811)]",[],[1],[0.65],vertical,"(390.0, 262.0)",1.05,0.609,1,600.339,1
0,99,target,"[(1033, 842)]",[],[1],[0.55],vertical,"(390.0, 262.0)",0.55,0.509,1,605.249,1
0,100,target,"[(1039, 825)]",[],[1],[],horizontal,"(890.0, 262.0)",,"('cti', 1.056)",0,610.726,0
0,101,target,"[(1040, 836)]",[],[1],[0.5],horizontal,"(390.0, 762.0)",0.95,0.467,1,615.282,1
0,102,catch,"[(1042, 824)]",[],[1],[],vertical,"(890.0, 762.0)",,"('cti', 1.488),nan",0,620.382,0
0,103,target,"[(1047, 818)]",[],[1],[0.48333333333333334],vertical,"(890.0, 262.0)",0.6833333333333333,0.438,1,625.297,1
0,104,target,"[(1040, 794)]",[],[1],[0.5],horizontal,"(890.0, 262.0)",1.4333333333333333,0.459,1,629.67,1
0,105,target,"[(1041, 818)]",[],[1],[0.7],horizontal,"(890.0, 762.0)",0.9,0.666,1,635.258,1
0,106,target,"[(1045, 829)]",[],[1],[0.05],horizontal,"(390.0, 262.0)",1.5166666666666666,0.02,0,640.214,0
0,107,target,"[(1040, 827)]",[],[1],[0.5833333333333334],horizontal,"(390.0, 762.0)",0.6666666666666666,0.546,1,645.105,1
0,108,target,"[(1060, 816)]",[],[1],[0.35],horizontal,"(390.0, 762.0)",1.1666666666666667,0.311,1,649.823,1
0,109,target,"[(1040, 808)]",[],[1],[0.5833333333333334],horizontal,"(890.0, 262.0)",0.5,0.541,1,654.808,1
0,110,target,"[(1040, 820)]",[],[1],[0.48333333333333334],vertical,"(390.0, 262.0)",1.2,0.444,1,659.165,2
0,111,target,"[(1063, 818)]",[],[1],[0.2],horizontal,"(890.0, 762.0)",1.5,0.166,1,664.414,1
0,112,target,"[(1042, 835)]",[],[1],[0.43333333333333335],horizontal,"(390.0, 262.0)",0.9833333333333333,0.397,1,669.17,1
0,113,target,"[(1045, 831)]",[],[1],[0.5833333333333334],horizontal,"(390.0, 762.0)",0.5,0.54,1,674.128,1
0,114,target,"[(1056, 806)]",[],[1],[0.35],vertical,"(390.0, 762.0)",1.1166666666666667,0.314,1,678.944,3
0,115,target,"[(1060, 819)]",[],[1],[0.2833333333333333],horizontal,"(890.0, 262.0)",1.5333333333333332,0.247,1,684.603,1
0,116,target,"[(1061, 833)]",[],[1],[],horizontal,"(390.0, 762.0)",,"('cti', 1.495)",0,689.601,0
0,117,target,"[(1045, 853)]",[],[1],[0.5333333333333333],horizontal,"(890.0, 262.0)",0.85,0.497,1,694.422,1
0,118,target,"[(1040, 809)]",[],[1],[0.7166666666666667],horizontal,"(890.0, 262.0)",0.8333333333333334,0.673,1,702.283,1
0,119,target,"[(1019, 837)]",[],[1],[0.55],vertical,"(890.0, 762.0)",1.1,0.507,1,706.851,1
0,120,target,"[(1043, 825)]",[],[1],[],vertical,"(390.0, 762.0)",,"('cti', 0.651)",0,711.648,0
0,121,target,"[(1040, 855)]",[],[1],[0.5833333333333334],horizontal,"(890.0, 262.0)",0.6333333333333333,0.541,1,715.649,1
0,122,target,"[(875, 486), (254, 440), (234, 670), (183, 520), (223, 694), (1143, 719), (244, 673), (388, 588), (181, 741), (266, 692), (231, 464), (294, 723), (443, 536), (199, 701), (535, 704), (239, 590), (527, 548), (456, 687), (550, 597), (444, 608), (501, 569), (536, 670), (171, 756), (282, 703), (248, 675), (413, 626), (515, 628), (233, 665), (231, 733), (246, 736), (278, 679), (235, 689), (203, 771), (235, 794), (262, 775), (242, 715), (1037, 928)]",[],"[0, 0, 0, 0, 0, 0, 0, 0, 0, 0, 0, 0, 0, 0, 0, 0, 0, 0, 0, 0, 0, 0, 0, 0, 0, 0, 0, 0, 0, 0, 0, 0, 0, 0, 0, 0, 1]",[],vertical,"(390.0, 762.0)",,"('fix', 0.194)",0,720.566,0
0,123,target,"[(223, 804), (1033, 842)]","[(1032, 872)]","[0, 1]",[0.7],horizontal,"(890.0, 262.0)",,"('bar', 0.708)",0,1452.071,0
0,124,target,"[(325, 100), (436, 834), (1019, 855)]",[],"[0, 0, 1]",[],horizontal,"(390.0, 762.0)",,"('cti', 0.049)",0,1457.956,0
0,125,target,"[(436, 611), (502, 139), (523, 646), (697, 521), (649, 828), (456, 638), (1036, 862)]",[],"[0, 0, 0, 0, 0, 0, 1]",[],horizontal,"(890.0, 762.0)",,"('cti', 0.225)",0,1467.956,0
0,126,target,"[(1037, 865)]","[(1030, 869)]",[1],[0.55],horizontal,"(890.0, 262.0)",,"('bar', 0.567)",0,1485.521,0
0,127,catch,"[(479, 634), (1023, 857)]",[],"[0, 1]",[],horizontal,"(390.0, 262.0)",1.35,nan,1,1488.886,1
0,128,target,"[(1052, 862)]",[],[1],[],vertical,"(390.0, 762.0)",,"('cti', 0.74)",0,1498.204,0
0,129,target,"[(1043, 851)]","[(1032, 873)]",[1],[0.31666666666666665],vertical,"(890.0, 262.0)",,"('bar', 0.33)",0,1502.031,0
0,130,target,"[(1021, 863)]",[],[1],[0.5166666666666666],horizontal,"(390.0, 762.0)",0.8,0.483,1,1504.787,1
0,131,target,"[(1037, 838)]",[],[1],[0.4],vertical,"(390.0, 762.0)",1.2666666666666666,0.368,1,1509.321,1
0,132,target,"[(683, 890), (1035, 699), (509, 485), (689, 507), (445, 526), (1022, 874)]","[(1014, 884)]","[0, 0, 0, 0, 0, 1]",[0.26666666666666666],vertical,"(890.0, 762.0)",,"('bar', 0.275)",0,1513.787,0
0,133,target,"[(1037, 851)]",[],[1],[0.31666666666666665],vertical,"(890.0, 262.0)",1.15,0.28,1,1519.406,1
0,134,target,"[(341, 635), (1033, 869)]",[],"[0, 1]",[0.16666666666666666],vertical,"(390.0, 762.0)",1.3666666666666667,0.135,1,1528.388,1
0,135,target,"[(1033, 830)]",[],[1],[0.5833333333333334],vertical,"(390.0, 762.0)",0.5166666666666666,0.541,1,1535.073,1
0,136,target,"[(1037, 837)]",[],[1],[0.5333333333333333],horizontal,"(890.0, 762.0)",0.6666666666666666,0.49,1,1539.286,2
0,137,target,"[(1035, 817)]",[],[1],"[0.85, 0.85]",vertical,"(890.0, 262.0)",0.9,"0.805,nan",0,1544.321,0
0,138,target,"[(1029, 838)]",[],[1],[0.85],horizontal,"(390.0, 262.0)",0.8833333333333333,nan,0,1548.807,0
0,139,target,"[(1064, 847)]",[],[1],[],horizontal,"(390.0, 262.0)",,"('fix', 0.068)",0,1554.371,0
0,140,target,"[(1053, 856)]",[],[1],[0.16666666666666666],vertical,"(390.0, 762.0)",1.2666666666666666,0.138,1,1556.151,1
0,141,target,"[(1040, 832)]",[],[1],[0.5666666666666667],vertical,"(390.0, 762.0)",0.55,0.524,1,1561.096,1
0,142,target,"[(1028, 833)]",[],[1],[0.6166666666666667],horizontal,"(390.0, 762.0)",1.4,0.574,1,1565.706,1
0,143,target,"[(1037, 837)]",[],[1],[0.4166666666666667],vertical,"(390.0, 762.0)",1.25,0.381,1,1570.973,2
0,144,target,"[(1041, 823)]",[],[1],[0.85],horizontal,"(390.0, 762.0)",0.8666666666666667,nan,0,1576.771,0
0,145,target,"[(1036, 837)]",[],[1],[0.6666666666666666],horizontal,"(390.0, 762.0)",0.8166666666666667,0.627,1,1581.205,1
0,146,target,"[(1036, 833)]",[],[1],[0.7166666666666667],horizontal,"(890.0, 262.0)",0.9333333333333333,0.678,1,1585.622,1
0,147,catch,"[(1038, 834)]",[],[1],[],horizontal,"(890.0, 262.0)",1.5333333333333332,nan,1,1590.522,1
0,148,target,"[(1037, 832)]",[],[1],[0.13333333333333333],vertical,"(390.0, 262.0)",1.6166666666666667,0.1,1,1595.872,2
0,149,target,"[(1033, 838)]",[],[1],[0.7833333333333333],horizontal,"(890.0, 262.0)",0.8333333333333334,0.742,1,1601.177,1
0,150,catch,"[(1038, 838)]",[],[1],[],horizontal,"(390.0, 262.0)",1.3333333333333333,nan,1,1605.923,1
0,151,target,"[(1037, 846)]",[],[1],[0.85],horizontal,"(390.0, 262.0)",0.8166666666666667,nan,0,1610.963,0
0,152,catch,"[(1036, 844)]",[],[1],[],vertical,"(890.0, 262.0)",1.4,nan,1,1615.805,1
0,153,target,"[(1033, 863)]",[],[1],[0.65],vertical,"(890.0, 262.0)",0.7,0.602,1,1620.588,1
0,154,target,"[(1038, 859)]",[],[1],[0.5166666666666666],horizontal,"(390.0, 262.0)",1.3166666666666667,0.478,1,1628.672,1
0,155,target,"[(1037, 842)]",[],[1],[0.5],vertical,"(890.0, 762.0)",1.1333333333333333,0.458,1,1633.481,2
0,156,target,"[(1037, 833)]",[],[1],[0.85],horizontal,"(890.0, 262.0)",1.0666666666666667,"('cti', 1.061),nan",0,1639.039,0
0,157,target,"[(1017, 861)]",[],[1],[0.6333333333333333],horizontal,"(390.0, 762.0)",0.5166666666666666,0.59,1,1643.826,1
0,158,target,"[(1021, 837)]",[],[1],[0.55],horizontal,"(890.0, 762.0)",1.3,0.513,1,1648.838,1
0,159,target,"[(1038, 847)]",[],[1],[0.36666666666666664],vertical,"(390.0, 262.0)",1.3333333333333333,0.325,1,1654.36,1
0,160,target,"[(1017, 824)]",[],[1],[0.11666666666666667],vertical,"(890.0, 762.0)",1.3166666666666667,0.084,0,1659.22,0
0,161,target,"[(1033, 837)]",[],[1],[],horizontal,"(390.0, 762.0)",,"('cti', 1.571)",0,1664.304,0
0,162,target,"[(1037, 847)]",[],[1],[0.25],vertical,"(890.0, 262.0)",1.5166666666666666,0.217,1,1669.156,1
0,163,target,"[(1040, 821)]",[],[1],[0.15],vertical,"(390.0, 762.0)",1.5,0.118,1,1674.276,1
0,164,target,"[(1026, 828)]",[],[1],[0.5833333333333334],vertical,"(390.0, 262.0)",1.5166666666666666,0.548,1,1679.018,1
0,165,target,"[(1033, 828)]",[],[1],[0.5166666666666666],horizontal,"(890.0, 262.0)",0.85,0.481,1,1684.171,2
0,166,target,"[(1001, 841), (1005, 854)]",[],"[0, 1]",[0.85],horizontal,"(890.0, 762.0)",0.55,nan,0,1689.512,0
0,167,target,"[(1018, 871)]",[],[1],[0.6],vertical,"(390.0, 262.0)",0.75,0.56,1,1698.006,1
0,168,target,"[(1040, 829)]",[],[1],[0.4166666666666667],horizontal,"(390.0, 762.0)",1.1,0.385,1,1706.967,1
0,169,target,"[(1039, 843)]",[],[1],[0.85],vertical,"(890.0, 262.0)",0.8,nan,0,1712.079,0
0,170,catch,"[(1017, 838)]",[],[1],[],vertical,"(390.0, 262.0)",1.6166666666666667,nan,1,1717.13,1
0,171,target,"[(1033, 850)]",[],[1],[0.5],horizontal,"(890.0, 262.0)",0.5166666666666666,0.457,1,1721.939,1
0,172,target,"[(1039, 851)]",[],[1],[0.85],horizontal,"(390.0, 262.0)",1.0166666666666666,nan,0,1726.539,0
0,173,target,"[(1033, 846)]",[],[1],[0.85],horizontal,"(390.0, 762.0)",1.0,nan,0,1731.541,0
0,174,target,"[(1016, 865)]",[],[1],"[0.85, 0.85]",horizontal,"(890.0, 262.0)",0.9666666666666667,"0.808,nan",0,1737.788,0
0,175,target,"[(1035, 859)]",[],[1],[0.85],vertical,"(390.0, 762.0)",1.3333333333333333,nan,0,1753.601,0
0,176,target,"[(1020, 859)]",[],[1],[0.4666666666666667],vertical,"(890.0, 762.0)",1.5666666666666667,0.426,1,1759.641,1
0,177,target,"[(1031, 850)]",[],[1],[0.5333333333333333],vertical,"(890.0, 762.0)",1.4833333333333334,0.494,1,1766.107,1
0,178,target,"[(1039, 854)]",[],[1],[0.5],horizontal,"(390.0, 262.0)",0.8333333333333334,0.458,1,1771.333,1
0,179,target,"[(1040, 836)]",[],[1],[0.48333333333333334],horizontal,"(890.0, 762.0)",1.3333333333333333,0.453,1,1776.217,2
0,180,target,"[(1036, 850)]",[],[1],[0.5666666666666667],vertical,"(390.0, 762.0)",0.6833333333333333,0.52,1,1781.739,1
0,181,target,"[(1040, 836)]",[],[1],[0.7333333333333333],vertical,"(390.0, 762.0)",1.3166666666666667,0.68,1,1786.684,1
0,182,target,"[(1007, 857)]",[],[1],[0.85],horizontal,"(390.0, 762.0)",1.3833333333333333,nan,0,1792.318,0
0,183,target,"[(1031, 856)]",[],[1],[0.55],horizontal,"(890.0, 762.0)",0.8833333333333333,0.515,1,1804.523,1
0,184,catch,"[(1033, 838)]",[],[1],[],vertical,"(890.0, 762.0)",1.5333333333333332,nan,1,1815.839,1
0,185,target,"[(1009, 850)]",[],[1],[0.4666666666666667],horizontal,"(890.0, 762.0)",0.6666666666666666,0.426,1,1820.975,1
0,186,target,"[(1032, 846)]",[],[1],[0.5],vertical,"(890.0, 262.0)",0.9166666666666666,0.458,1,1833.195,2
0,187,target,"[(1037, 829)]",[],[1],[0.7],vertical,"(390.0, 762.0)",0.8166666666666667,0.649,1,1838.225,1
0,188,catch,"[(1061, 844)]",[],[1],[],horizontal,"(890.0, 262.0)",1.1666666666666667,nan,1,1842.733,1
0,189,target,"[(1056, 869)]",[],[1],[0.4166666666666667],horizontal,"(890.0, 262.0)",1.2333333333333334,0.379,1,1847.821,1
0,190,catch,"[(1040, 837)]",[],[1],[],horizontal,"(890.0, 762.0)",1.6833333333333333,nan,1,1853.089,3
0,191,target,"[(1037, 858)]",[],[1],[],horizontal,"(390.0, 262.0)",,"('fix', 0.316)",0,1858.927,0
0,192,target,"[(1029, 847)]",[],[1],[0.6],horizontal,"(890.0, 762.0)",1.2333333333333334,0.553,1,1861.151,1
0,193,target,"[(1034, 838)]",[],[1],[0.55],vertical,"(890.0, 762.0)",1.6,0.511,1,1866.085,1
0,194,catch,"[(1031, 817)]",[],[1],[],vertical,"(390.0, 262.0)",1.6166666666666667,nan,1,1871.688,1
0,195,target,"[(1033, 837)]",[],[1],[0.5333333333333333],vertical,"(890.0, 762.0)",0.6166666666666667,0.491,1,1876.413,2
0,196,target,"[(1033, 817)]",[],[1],[0.85],vertical,"(890.0, 262.0)",0.8166666666666667,nan,0,1881.023,0
0,197,target,"[(1019, 841)]",[],[1],[0.5],vertical,"(890.0, 262.0)",0.7,0.456,1,1885.14,1
0,198,target,"[(1062, 842)]",[],[1],[0.55],horizontal,"(890.0, 762.0)",0.6,0.507,1,1890.135,1
0,199,target,"[(1018, 832)]",[],[1],[0.48333333333333334],horizontal,"(390.0, 262.0)",0.9333333333333333,0.443,1,1894.485,1
0,200,catch,"[(1047, 834)]",[],[1],[],horizontal,"(890.0, 262.0)",1.1666666666666667,nan,1,1899.637,2
0,201,target,"[(1052, 829)]",[],[1],[0.35],vertical,"(890.0, 762.0)",1.1833333333333333,0.312,1,1904.825,1
0,202,target,"[(1032, 829)]",[],[1],[0.5333333333333333],vertical,"(890.0, 262.0)",0.5,0.494,1,1909.792,1
0,203,target,"[(1045, 817)]",[],[1],[0.25],vertical,"(890.0, 262.0)",1.3,0.216,1,1914.67,1
0,204,target,"[(1027, 837)]",[],[1],[0.16666666666666666],horizontal,"(390.0, 262.0)",1.6166666666666667,0.132,1,1919.891,3
0,205,target,"[(1040, 825)]",[],[1],[0.85],vertical,"(390.0, 262.0)",0.5833333333333334,nan,0,1925.597,0
0,206,target,"[(1029, 852)]",[],[1],[0.85],horizontal,"(390.0, 762.0)",0.9333333333333333,nan,0,1930.207,0
0,207,target,"[(1029, 849)]",[],[1],[0.43333333333333335],horizontal,"(890.0, 762.0)",1.5833333333333333,0.394,1,1934.891,1
0,208,target,"[(1025, 827)]",[],[1],[0.36666666666666664],horizontal,"(390.0, 762.0)",1.3666666666666667,0.328,1,1940.057,1
0,209,target,"[(1035, 820)]",[],[1],[0.55],vertical,"(890.0, 262.0)",0.6333333333333333,0.512,1,1945.419,1
0,210,target,"[(1037, 812)]",[],[1],"[0.85, 0.85]",horizontal,"(890.0, 762.0)",0.6666666666666666,"0.806,nan",0,1950.225,0
0,211,target,"[(1040, 822)]",[],[1],[0.5666666666666667],horizontal,"(890.0, 762.0)",1.4833333333333334,0.524,1,1954.793,1
0,212,target,"[(1042, 825)]",[],[1],[0.5333333333333333],vertical,"(390.0, 762.0)",0.6666666666666666,0.491,1,1959.658,1
0,213,target,"[(1042, 819)]",[],[1],[0.85],horizontal,"(890.0, 762.0)",0.85,nan,0,1964.457,0
0,214,target,"[(1033, 846)]",[],[1],[0.4666666666666667],horizontal,"(890.0, 262.0)",1.3833333333333333,0.425,1,1968.992,1
0,215,target,"[(1045, 815)]",[],[1],[0.5],vertical,"(890.0, 762.0)",1.4666666666666666,0.457,1,1974.407,1
0,216,target,"[(1036, 811)]",[],[1],[0.55],vertical,"(890.0, 762.0)",0.7166666666666667,0.512,1,1979.524,1
0,217,target,"[(1040, 828)]",[],[1],[0.3333333333333333],vertical,"(890.0, 262.0)",1.45,0.296,1,1984.03,2
0,218,target,"[(1048, 810)]",[],[1],[0.25],horizontal,"(390.0, 262.0)",1.55,0.215,1,1989.423,1
0,219,target,"[(1040, 819)]",[],[1],[0.6166666666666667],vertical,"(390.0, 262.0)",0.8,0.574,1,1994.558,1
0,220,catch,"[(1037, 828)]",[],[1],[],vertical,"(890.0, 262.0)",1.3166666666666667,nan,1,1998.972,1
0,221,target,"[(1072, 826)]",[],[1],[0.85],vertical,"(890.0, 262.0)",1.0,nan,0,2003.468,0
0,222,target,"[(1039, 868)]",[],[1],[0.85],horizontal,"(390.0, 262.0)",1.4333333333333333,nan,0,2008.225,0
0,223,target,"[(547, 426), (1010, 863)]",[],"[0, 1]",[0.5],vertical,"(890.0, 262.0)",0.8,0.458,1,2014.564,1
0,224,target,"[(1043, 853)]",[],[1],[0.85],horizontal,"(890.0, 762.0)",1.0,nan,0,2699.919,0
0,225,target,"[(1024, 838)]",[],[1],[0.85],horizontal,"(390.0, 262.0)",1.5,nan,0,2704.825,0
0,226,catch,"[(1021, 832)]",[],[1],[],horizontal,"(390.0, 762.0)",1.2166666666666666,nan,1,2710.179,1
0,227,target,"[(1005, 856)]",[],[1],[0.45],horizontal,"(390.0, 262.0)",0.65,0.413,1,2718.383,1
0,228,target,"[(1041, 826)]",[],[1],[0.85],vertical,"(390.0, 762.0)",1.55,nan,0,2789.347,0
0,229,target,"[(1009, 863)]",[],[1],[0.16666666666666666],horizontal,"(390.0, 762.0)",0.9833333333333333,0.133,1,2794.917,1
0,230,target,"[(1033, 846)]",[],[1],[0.6666666666666666],horizontal,"(390.0, 262.0)",0.6166666666666667,0.624,1,2805.569,1
0,231,target,"[(1032, 846)]",[],[1],[0.48333333333333334],vertical,"(890.0, 262.0)",0.75,0.442,1,2810.329,1
0,232,target,"[(1041, 855)]",[],[1],[0.21666666666666667],horizontal,"(390.0, 262.0)",1.6166666666666667,0.185,1,2816.283,2
0,233,target,"[(1038, 859)]",[],[1],[0.4666666666666667],vertical,"(390.0, 262.0)",0.85,0.429,1,2822.18,1
0,234,target,"[(1039, 876)]",[],[1],[0.55],vertical,"(390.0, 762.0)",1.25,0.509,1,2827.013,1
0,235,target,"[(1029, 831)]",[],[1],[0.55],vertical,"(390.0, 262.0)",0.9166666666666666,0.506,1,2832.594,1
0,236,target,"[(1040, 845)]",[],[1],[0.26666666666666666],vertical,"(890.0, 762.0)",1.25,0.235,1,2837.58,3
0,237,target,"[(1057, 832)]",[],[1],[0.5333333333333333],vertical,"(390.0, 262.0)",0.8,0.497,1,2845.712,1
0,238,target,"[(1049, 841)]",[],[1],[0.3],vertical,"(890.0, 262.0)",1.0,0.266,1,2850.695,1
0,239,catch,"[(1041, 827)]",[],[1],[],horizontal,"(390.0, 762.0)",1.5,nan,1,2855.861,1
0,240,target,"[(1055, 842)]",[],[1],[0.45],horizontal,"(390.0, 262.0)",1.1166666666666667,0.409,1,2860.576,2
0,241,target,"[(1060, 823)]",[],[1],[0.11666666666666667],vertical,"(390.0, 762.0)",1.3333333333333333,0.081,0,2865.963,0
0,242,target,"[(1037, 847)]",[],[1],[0.5],horizontal,"(390.0, 262.0)",0.9166666666666666,0.458,1,2870.625,1
0,243,target,"[(1062, 821)]",[],[1],[0.85],horizontal,"(890.0, 762.0)",0.5,nan,0,2875.962,0
0,244,target,"[(1025, 839)]",[],[1],[0.5166666666666666],vertical,"(890.0, 762.0)",0.75,0.476,1,2880.062,1
0,245,target,"[(1045, 826)]",[],[1],[0.5333333333333333],horizontal,"(390.0, 262.0)",0.8166666666666667,0.492,1,2888.445,1
0,246,target,"[(1040, 829)]",[],[1],[0.3833333333333333],horizontal,"(390.0, 762.0)",1.0,0.347,1,2893.357,1
0,247,catch,"[(1055, 826)]",[],[1],[],horizontal,"(390.0, 762.0)",1.05,nan,1,2898.176,2
0,248,target,"[(1060, 813)]",[],[1],[0.85],horizontal,"(890.0, 262.0)",0.8,nan,0,2902.98,0
0,249,target,"[(1029, 835)]",[],[1],[],vertical,"(890.0, 262.0)",,"('cti', 1.229)",0,2907.285,0
0,250,target,"[(1029, 833)]",[],[1],[0.5333333333333333],vertical,"(890.0, 262.0)",0.5166666666666666,0.489,1,2915.003,1
0,251,target,"[(1046, 815)]",[],[1],[0.85],horizontal,"(890.0, 262.0)",1.3833333333333333,nan,0,2920.043,0
0,252,target,"[(1013, 835)]",[],[1],[0.6],vertical,"(390.0, 762.0)",0.7166666666666667,0.552,1,2924.898,1
0,253,target,"[(1056, 826)]",[],[1],[0.45],horizontal,"(890.0, 262.0)",1.25,0.41,1,2933.513,1
0,254,target,"[(1061, 824)]",[],[1],[0.5833333333333334],horizontal,"(390.0, 762.0)",0.7666666666666666,0.542,1,2938.76,1
0,255,target,"[(1057, 830)]",[],[1],[0.6333333333333333],horizontal,"(890.0, 262.0)",0.8166666666666667,0.589,1,2943.438,2
0,256,target,"[(1063, 809)]",[],[1],[0.48333333333333334],vertical,"(890.0, 262.0)",1.4166666666666667,0.437,1,2948.647,1
0,257,target,"[(1068, 819)]",[],[1],[],horizontal,"(890.0, 762.0)",,"('cti', 1.497)",0,2953.716,0
0,258,target,"[(1052, 845)]",[],[1],[0.5],horizontal,"(890.0, 262.0)",1.45,0.455,1,2958.288,1
0,259,target,"[(1005, 878)]",[],[1],[0.85],horizontal,"(890.0, 262.0)",0.8166666666666667,nan,0,2964.559,0
0,260,target,"[(1033, 823)]",[],[1],[0.85],horizontal,"(890.0, 762.0)",0.6666666666666666,nan,0,3212.871,0
0,261,target,"[(1038, 829)]",[],[1],[0.23333333333333334],horizontal,"(890.0, 762.0)",1.5166666666666666,0.198,1,3217.778,1
0,262,target,"[(1041, 814)]",[],[1],[0.6666666666666666],vertical,"(890.0, 762.0)",0.6,0.62,1,3223.075,1
0,263,target,"[(1040, 820)]",[],[1],[0.48333333333333334],vertical,"(890.0, 262.0)",0.5666666666666667,0.443,1,3227.813,1
0,264,target,"[(1063, 827)]",[],[1],[0.85],vertical,"(890.0, 262.0)",0.9333333333333333,nan,0,3232.365,0
0,265,target,"[(1021, 828)]",[],[1],[0.65],vertical,"(390.0, 762.0)",0.7,0.612,1,3237.07,1
0,266,target,"[(1060, 833)]",[],[1],[0.85],horizontal,"(890.0, 262.0)",0.55,nan,0,3241.708,0
0,267,target,"[(1033, 877)]",[],[1],[0.7333333333333333],horizontal,"(890.0, 762.0)",0.9,0.689,1,3246.415,1
0,268,target,"[(1037, 823)]",[],[1],[0.6],vertical,"(390.0, 262.0)",0.6,0.56,1,3259.782,1
0,269,target,"[(1044, 824)]",[],[1],[0.5],vertical,"(890.0, 262.0)",1.0666666666666667,0.463,1,3264.411,1
0,270,target,"[(1044, 808)]",[],[1],[0.43333333333333335],vertical,"(390.0, 262.0)",1.1833333333333333,0.39,1,3269.599,2
0,271,catch,"[(1044, 820)]",[],[1],[],vertical,"(390.0, 762.0)",1.25,nan,1,3274.799,1
0,272,target,"[(1054, 811)]",[],[1],[0.55],horizontal,"(390.0, 762.0)",1.1,0.509,1,3279.114,1
0,273,target,"[(1042, 812)]",[],[1],[0.7666666666666666],horizontal,"(890.0, 762.0)",1.1333333333333333,0.727,1,3283.8,1
0,274,target,"[(1059, 814)]",[],[1],[0.08333333333333333],vertical,"(890.0, 262.0)",1.5166666666666666,0.051,0,3288.848,0
0,275,target,"[(1037, 855)]",[],[1],[0.5166666666666666],vertical,"(390.0, 262.0)",0.95,0.481,1,3293.362,1
0,276,target,"[(1065, 820)]",[],[1],[],vertical,"(890.0, 762.0)",,"('cti', 1.556)",0,3302.141,0
0,277,target,"[(1041, 831)]",[],[1],[0.6166666666666667],horizontal,"(390.0, 762.0)",0.6166666666666667,0.576,1,3306.984,1
0,278,target,"[(1064, 793)]",[],[1],[0.5],vertical,"(390.0, 262.0)",0.55,0.46,1,3311.872,1
0,279,target,"[(1017, 831)]",[],[1],[0.26666666666666666],horizontal,"(390.0, 262.0)",1.3,0.23,1,3315.842,1
0,280,target,"[(1072, 817)]",[],[1],[0.11666666666666667],vertical,"(890.0, 262.0)",0.95,0.085,0,3320.647,0
0,281,target,"[(1044, 822)]",[],[1],[0.6166666666666667],vertical,"(890.0, 762.0)",0.9666666666666667,0.577,1,3325.083,1
0,282,target,"[(1040, 821)]",[],[1],[0.6166666666666667],vertical,"(890.0, 262.0)",0.8666666666666667,0.576,1,3331.246,1
0,283,target,"[(1065, 826)]",[],[1],[0.5333333333333333],vertical,"(390.0, 262.0)",1.0833333333333333,0.493,1,3335.947,1
0,284,target,"[(1040, 838)]",[],[1],[0.4166666666666667],horizontal,"(390.0, 262.0)",0.8333333333333334,0.38,1,3340.453,2
0,285,target,"[(1039, 854)]",[],[1],[0.5333333333333333],horizontal,"(390.0, 262.0)",0.5833333333333334,0.501,1,3345.849,1
0,286,target,"[(1032, 876)]",[],[1],[0.5333333333333333],horizontal,"(890.0, 762.0)",1.5666666666666667,0.491,1,3351.082,1
0,287,target,"[(1037, 831)]",[],[1],[0.55],horizontal,"(390.0, 762.0)",0.7666666666666666,0.507,1,3466.948,1
0,288,target,"[(1040, 831)]",[],[1],[0.55],vertical,"(890.0, 762.0)",0.6666666666666666,0.507,1,3471.6,3
0,289,target,"[(1040, 855)]",[],[1],[0.48333333333333334],vertical,"(890.0, 262.0)",0.8333333333333334,0.446,1,3476.704,1
0,290,target,"[(1040, 837)]",[],[1],[0.55],vertical,"(390.0, 762.0)",0.9333333333333333,0.51,1,3481.131,1
0,291,target,"[(1042, 831)]",[],[1],[0.4666666666666667],vertical,"(390.0, 262.0)",0.6166666666666667,0.43,1,3485.917,1
0,292,target,"[(1033, 821)]",[],[1],[0.3333333333333333],horizontal,"(890.0, 762.0)",1.3833333333333333,0.296,1,3490.787,2
0,293,target,"[(1033, 822)]",[],[1],[0.3],horizontal,"(390.0, 762.0)",1.3166666666666667,0.265,1,3495.93,1
0,294,catch,"[(1025, 828)]",[],[1],[],vertical,"(390.0, 762.0)",1.4833333333333334,nan,1,3500.834,1
0,295,target,"[(1039, 836)]",[],[1],[0.36666666666666664],vertical,"(390.0, 262.0)",1.25,0.322,1,3505.633,1
0,296,target,"[(1030, 844)]",[],[1],[0.2833333333333333],vertical,"(390.0, 762.0)",1.4666666666666666,0.252,1,3510.767,3
0,297,target,"[(1056, 834)]",[],[1],[0.5333333333333333],horizontal,"(390.0, 262.0)",0.8166666666666667,0.508,1,3516.7,1
0,298,target,"[(1030, 829)]",[],[1],[0.36666666666666664],horizontal,"(390.0, 762.0)",1.2,0.325,1,3521.11,1
0,299,target,"[(1041, 835)]",[],[1],[0.5666666666666667],vertical,"(890.0, 262.0)",0.6333333333333333,0.525,1,3526.15,1
0,300,target,"[(1041, 833)]",[],[1],[0.7666666666666666],vertical,"(390.0, 262.0)",0.5166666666666666,0.726,1,3531.001,2
0,301,target,"[(1034, 826)]",[],[1],[0.4166666666666667],horizontal,"(390.0, 762.0)",1.05,0.378,1,3535.933,1
0,302,target,"[(1042, 835)]",[],[1],[0.25],horizontal,"(890.0, 262.0)",1.6166666666666667,0.215,1,3540.701,1
0,303,target,"[(1036, 829)]",[],[1],[0.6],horizontal,"(390.0, 762.0)",0.8166666666666667,0.557,1,3545.507,1
0,304,target,"[(1059, 814)]",[],[1],[0.05],horizontal,"(390.0, 262.0)",1.4333333333333333,0.018,0,3550.405,0
0,305,target,"[(1029, 833)]",[],[1],[0.5833333333333334],horizontal,"(390.0, 762.0)",0.7166666666666667,0.543,1,3554.998,1
0,306,target,"[(1038, 815)]",[],[1],[0.23333333333333334],horizontal,"(390.0, 262.0)",1.5666666666666667,0.2,1,3559.318,1
0,307,target,"[(1060, 836)]",[],[1],[0.65],vertical,"(890.0, 762.0)",0.9166666666666666,0.615,1,3564.413,1
0,308,target,"[(1060, 835)]",[],[1],[0.5],vertical,"(390.0, 262.0)",0.8333333333333334,0.462,1,3569.815,2
0,309,target,"[(1045, 823)]",[],[1],[0.55],horizontal,"(890.0, 262.0)",0.9166666666666666,0.509,1,3574.817,1
0,310,target,"[(1033, 828)]",[],[1],[],horizontal,"(890.0, 762.0)",,"('cti', 1.405)",0,3579.587,0
0,311,target,"[(1037, 831)]",[],[1],[0.5333333333333333],horizontal,"(890.0, 262.0)",1.4166666666666667,0.494,1,3583.965,1
0,312,target,"[(1066, 828)]",[],[1],[0.85],vertical,"(890.0, 262.0)",0.55,nan,0,3588.914,0
0,313,target,"[(1026, 834)]",[],[1],[0.5166666666666666],horizontal,"(890.0, 262.0)",1.0,0.476,1,3593.395,1
0,314,target,"[(1029, 839)]",[],[1],[0.85],horizontal,"(890.0, 762.0)",0.85,nan,0,3597.872,0
0,315,target,"[(1033, 848)]",[],[1],[],horizontal,"(390.0, 762.0)",,"('cti', 1.626)",0,3602.747,0
0,316,target,"[(1037, 832)]",[],[1],[0.65],vertical,"(890.0, 262.0)",0.9833333333333333,0.611,1,3607.708,1
0,317,target,"[(1033, 832)]",[],[1],[0.85],vertical,"(390.0, 762.0)",0.6666666666666666,nan,0,3612.553,0
0,318,target,"[(1029, 849)]",[],[1],[0.4],horizontal,"(390.0, 762.0)",1.4333333333333333,0.361,1,3617.358,1
0,319,target,"[(1049, 819)]",[],[1],[0.5333333333333333],horizontal,"(390.0, 262.0)",0.55,0.493,1,3622.241,1
0,320,target,"[(1048, 839)]",[],[1],[0.5],horizontal,"(890.0, 762.0)",1.3333333333333333,0.457,1,3626.895,1
0,321,target,"[(1039, 823)]",[],[1],[0.5333333333333333],vertical,"(390.0, 262.0)",0.9333333333333333,0.499,1,3632.127,2
0,322,target,"[(1057, 793)]",[],[1],[0.7166666666666667],vertical,"(390.0, 762.0)",1.0333333333333332,0.675,1,3637.631,1
0,323,target,"[(1043, 811)]",[],[1],[],vertical,"(390.0, 762.0)",,"('cti', 1.596)",0,3642.601,0
0,324,target,"[(1042, 812)]",[],[1],[0.55],vertical,"(890.0, 762.0)",1.3333333333333333,0.511,1,3647.074,1
0,325,catch,"[(1055, 822)]",[],[1],[],horizontal,"(890.0, 262.0)",1.0166666666666666,nan,1,3652.439,1
0,326,catch,"[(1025, 844)]",[],[1],[],horizontal,"(390.0, 762.0)",1.55,nan,1,3656.469,1
0,327,catch,"[(1030, 852)]",[],[1],[],vertical,"(390.0, 262.0)",1.35,nan,1,3664.903,2
0,328,target,"[(1038, 813)]",[],[1],[0.5833333333333334],horizontal,"(390.0, 262.0)",1.0166666666666666,0.546,1,3669.721,1
0,329,target,"[(1033, 819)]",[],[1],[0.25],vertical,"(390.0, 762.0)",1.3,0.214,1,3674.651,1
0,330,target,"[(1040, 810)]",[],[1],[0.8333333333333334],horizontal,"(890.0, 262.0)",0.6166666666666667,0.788,1,3679.685,1
0,331,target,"[(1040, 813)]",[],[1],[0.6666666666666666],horizontal,"(390.0, 762.0)",0.9833333333333333,0.621,1,3684.735,3
0,332,catch,"[(1033, 807)]",[],[1],[],horizontal,"(890.0, 762.0)",1.25,nan,1,3690.301,1
0,333,catch,"[(1041, 826)]",[],[1],[],horizontal,"(890.0, 262.0)",1.5166666666666666,nan,1,3694.883,1
0,334,target,"[(1045, 824)]",[],[1],[0.5333333333333333],vertical,"(890.0, 762.0)",0.8333333333333334,0.491,1,3699.483,1
0,335,target,"[(1045, 834)]",[],[1],[0.5833333333333334],horizontal,"(890.0, 262.0)",1.5166666666666666,0.546,1,3704.701,2
0,336,target,"[(1036, 834)]",[],[1],[0.5166666666666666],vertical,"(890.0, 762.0)",1.2833333333333332,0.477,1,3710.477,1
0,337,catch,"[(1068, 841)]",[],[1],[],horizontal,"(890.0, 762.0)",1.45,nan,1,3715.843,1
0,338,target,"[(1069, 822)]",[],[1],[0.4166666666666667],horizontal,"(390.0, 762.0)",1.3333333333333333,0.383,1,3720.411,1
0,339,target,"[(1068, 796)]",[],[1],[0.5333333333333333],vertical,"(890.0, 262.0)",1.0166666666666666,0.488,1,3725.721,3
0,340,catch,"[(1028, 817)]",[],[1],[],horizontal,"(390.0, 262.0)",1.4166666666666667,nan,1,3731.107,1
0,341,target,"[(1066, 825)]",[],[1],[0.55],vertical,"(390.0, 762.0)",0.8333333333333334,0.514,1,3736.374,1
0,342,catch,"[(1039, 813)]",[],[1],[],horizontal,"(390.0, 262.0)",,"('cti', 1.633),nan",0,3740.985,0
0,343,target,"[(1037, 810)]",[],[1],[0.48333333333333334],vertical,"(390.0, 262.0)",1.5833333333333333,0.441,1,3745.7,1
0,344,target,"[(1049, 813)]",[],[1],[0.5],vertical,"(890.0, 762.0)",1.0666666666666667,0.458,1,3750.716,1
0,345,target,"[(1029, 829)]",[],[1],[0.5833333333333334],horizontal,"(390.0, 762.0)",0.5666666666666667,0.544,1,3755.409,1
0,346,target,"[(1068, 820)]",[],[1],[0.43333333333333335],vertical,"(890.0, 262.0)",1.3666666666666667,0.391,1,3760.179,2
0,347,target,"[(1064, 798)]",[],[1],[0.48333333333333334],horizontal,"(890.0, 262.0)",0.8166666666666667,0.444,1,3765.719,1
0,348,target,"[(1062, 812)]",[],[1],[0.5666666666666667],vertical,"(890.0, 762.0)",0.6,0.522,1,3770.466,1
0,349,target,"[(1038, 808)]",[],[1],[0.4666666666666667],vertical,"(390.0, 262.0)",0.8,0.43,1,3775.229,1
0,350,target,"[(1062, 823)]",[],[1],[0.5333333333333333],horizontal,"(390.0, 262.0)",1.0,0.493,1,3780.252,3
0,351,target,"[(1072, 808)]",[],[1],[0.06666666666666667],horizontal,"(390.0, 262.0)",1.6833333333333333,0.035,0,3785.786,0
0,352,target,"[(1039, 845)]",[],[1],[0.18333333333333332],vertical,"(390.0, 762.0)",1.5666666666666667,0.148,1,3790.479,1
0,353,target,"[(1040, 845)]",[],[1],[0.5333333333333333],vertical,"(890.0, 262.0)",0.6166666666666667,0.493,1,3795.852,1
0,354,catch,"[(1037, 837)]",[],[1],[],horizontal,"(890.0, 262.0)",1.4333333333333333,nan,1,3800.485,1
0,355,target,"[(1036, 830)]",[],[1],[0.5],horizontal,"(890.0, 262.0)",1.2833333333333332,0.46,1,3805.468,2
0,356,target,"[(1062, 826)]",[],[1],[0.6166666666666667],vertical,"(390.0, 262.0)",0.85,0.572,1,3810.685,1
0,357,target,"[(1045, 816)]",[],[1],[0.35],vertical,"(890.0, 762.0)",1.4166666666666667,0.316,1,3815.852,1
0,358,catch,"[(1044, 819)]",[],[1],[],horizontal,"(390.0, 262.0)",1.2666666666666666,nan,1,3820.767,1
0,359,target,"[(1037, 843)]",[],[1],[0.4],horizontal,"(890.0, 762.0)",1.25,0.359,1,3825.8,3
0,360,target,"[(1034, 835)]",[],[1],[0.55],vertical,"(390.0, 262.0)",0.75,0.508,1,3831.369,1
0,361,target,"[(1036, 823)]",[],[1],[0.5166666666666666],vertical,"(890.0, 262.0)",1.05,0.482,1,3835.885,1
0,362,catch,"[(1049, 814)]",[],[1],[],vertical,"(890.0, 262.0)",,"('cti', 1.452),nan",0,3840.35,0
0,363,target,"[(1029, 842)]",[],[1],[0.08333333333333333],vertical,"(390.0, 762.0)",1.55,0.053,0,3845.231,0
0,364,target,"[(1031, 814)]",[],[1],[0.5666666666666667],vertical,"(390.0, 762.0)",1.0666666666666667,0.532,1,3850.968,1
0,365,target,"[(1041, 799)]",[],[1],[0.35],vertical,"(890.0, 762.0)",1.5833333333333333,0.312,1,3855.935,1
0,366,catch,"[(1067, 809)]",[],[1],[],vertical,"(890.0, 762.0)",1.3833333333333333,nan,1,3860.886,1
0,367,target,"[(1035, 833)]",[],[1],[0.65],horizontal,"(390.0, 762.0)",0.85,0.613,1,3865.736,2
0,368,target,"[(1037, 811)]",[],[1],[0.5833333333333334],vertical,"(890.0, 762.0)",1.1,0.549,1,3870.937,1
0,369,target,"[(1067, 816)]",[],[1],[0.85],vertical,"(890.0, 262.0)",0.7666666666666666,nan,0,3875.97,0
0,370,target,"[(1033, 832)]",[],[1],[0.55],horizontal,"(890.0, 762.0)",0.9333333333333333,0.51,1,3880.829,1
0,371,target,"[(1037, 816)]",[],[1],[0.6166666666666667],horizontal,"(890.0, 262.0)",0.75,0.577,1,3885.553,1
0,372,target,"[(1027, 811)]",[],[1],[0.11666666666666667],horizontal,"(390.0, 262.0)",1.5166666666666666,0.084,0,3890.225,0
0,373,target,"[(1052, 804)]",[],[1],[0.7166666666666667],vertical,"(390.0, 762.0)",0.95,0.668,1,3895.161,1
0,374,target,"[(1030, 809)]",[],[1],[0.5166666666666666],vertical,"(890.0, 762.0)",1.2833333333333332,0.486,1,3899.603,1
0,375,target,"[(1061, 832)]",[],[1],[0.5166666666666666],horizontal,"(890.0, 762.0)",1.15,0.472,1,3904.858,1
0,376,target,"[(1036, 819)]",[],[1],[0.6333333333333333],horizontal,"(390.0, 262.0)",1.45,0.596,1,3910.286,2
0,377,target,"[(1075, 800)]",[],[1],[0.5166666666666666],horizontal,"(890.0, 262.0)",0.7833333333333333,0.477,1,3915.929,1
0,378,target,"[(1065, 811)]",[],[1],[0.35],vertical,"(390.0, 762.0)",1.3,0.314,1,3920.543,1
0,379,target,"[(1068, 810)]",[],[1],[0.5666666666666667],horizontal,"(890.0, 262.0)",1.3,0.53,1,3925.757,1
0,380,target,"[(1062, 823)]",[],[1],[0.5666666666666667],vertical,"(890.0, 762.0)",0.6666666666666666,0.524,1,3931.084,3
0,381,target,"[(1071, 817)]",[],[1],[],vertical,"(390.0, 262.0)",,"('cti', 1.644)",0,3936.116,0
0,382,target,"[(1038, 829)]",[],[1],[0.55],horizontal,"(890.0, 262.0)",1.3666666666666667,0.512,1,3940.886,1
0,383,catch,"[(1039, 814)]",[],[1],[],horizontal,"(890.0, 762.0)",1.55,nan,1,3946.019,1
0,384,target,"[(1031, 836)]",[],[1],[0.6],vertical,"(390.0, 262.0)",0.5,0.56,1,3951.248,1
0,385,target,"[(1044, 809)]",[],[1],[0.7333333333333333],vertical,"(390.0, 262.0)",0.85,0.691,1,3955.936,2
0,386,target,"[(1066, 820)]",[],[1],[0.85],vertical,"(890.0, 262.0)",1.0333333333333332,nan,0,3961.29,0
0,387,target,"[(1033, 846)]",[],[1],[0.35],horizontal,"(390.0, 262.0)",1.4333333333333333,0.315,1,3966.112,1
0,388,target,"[(1038, 823)]",[],[1],[0.5],horizontal,"(390.0, 262.0)",0.9833333333333333,0.461,1,3971.359,1
0,389,target,"[(1037, 831)]",[],[1],[0.16666666666666666],horizontal,"(390.0, 762.0)",1.4666666666666666,0.135,1,3976.022,1
0,390,target,"[(1038, 834)]",[],[1],[0.3],horizontal,"(390.0, 262.0)",1.3166666666666667,0.267,1,3980.986,2
0,391,target,"[(1068, 819)]",[],[1],[0.43333333333333335],vertical,"(890.0, 262.0)",1.4333333333333333,0.397,1,3986.586,1
0,392,target,"[(1029, 829)]",[],[1],[0.5833333333333334],horizontal,"(890.0, 262.0)",1.4,0.536,1,3991.664,1
0,393,target,"[(1064, 830)]",[],[1],[0.18333333333333332],horizontal,"(390.0, 262.0)",1.45,0.153,1,3996.853,1
0,394,target,"[(1045, 821)]",[],[1],[0.5333333333333333],horizontal,"(890.0, 262.0)",1.1,0.494,1,4001.701,3
0,395,target,"[(1039, 822)]",[],[1],[0.85],horizontal,"(390.0, 762.0)",0.6166666666666667,nan,0,4007.422,0
0,396,catch,"[(1068, 830)]",[],[1],[],vertical,"(890.0, 262.0)",1.0,nan,1,4011.57,1
0,397,target,"[(1037, 833)]",[],[1],[0.48333333333333334],horizontal,"(890.0, 262.0)",1.1166666666666667,0.446,1,4015.846,1
0,398,target,"[(1029, 820)]",[],[1],[0.5],vertical,"(390.0, 262.0)",1.3833333333333333,0.463,1,4020.954,1
0,399,target,"[(1061, 805)]",[],[1],[0.85],vertical,"(390.0, 762.0)",0.95,nan,0,4025.963,0
0,400,target,"[(1040, 813)]",[],[1],[0.5833333333333334],vertical,"(890.0, 762.0)",1.25,0.537,1,4030.554,1
0,401,target,"[(1049, 834)]",[],[1],[0.48333333333333334],horizontal,"(890.0, 262.0)",0.95,0.441,1,4035.876,1
0,402,target,"[(1045, 818)]",[],[1],[0.5666666666666667],horizontal,"(390.0, 762.0)",1.2833333333333332,0.529,1,4040.437,1
0,403,target,"[(1050, 832)]",[],[1],[0.35],vertical,"(890.0, 762.0)",1.5166666666666666,0.309,1,4045.603,2
0,404,target,"[(1041, 829)]",[],[1],[0.65],horizontal,"(390.0, 262.0)",1.0666666666666667,0.611,1,4051.13,1
0,405,target,"[(1045, 823)]",[],[1],[0.4],horizontal,"(390.0, 262.0)",1.55,0.372,1,4056.22,1
0,406,target,"[(1043, 828)]",[],[1],[0.5833333333333334],vertical,"(890.0, 262.0)",0.5833333333333334,0.542,1,4061.489,1
0,407,target,"[(1068, 823)]",[],[1],[0.23333333333333334],vertical,"(890.0, 762.0)",1.5833333333333333,0.201,1,4066.036,3
0,408,target,"[(1033, 832)]",[],[1],[0.5333333333333333],vertical,"(890.0, 762.0)",0.9166666666666666,0.486,1,4072.361,1
0,409,target,"[(1046, 828)]",[],[1],[0.55],vertical,"(890.0, 262.0)",0.7333333333333333,0.509,1,4077.438,1
0,410,target,"[(1039, 812)]",[],[1],[0.5],horizontal,"(890.0, 762.0)",1.35,0.459,1,4081.996,1
0,411,target,"[(1049, 826)]",[],[1],[0.48333333333333334],horizontal,"(890.0, 262.0)",1.1166666666666667,0.447,1,4087.152,2
0,412,catch,"[(1029, 826)]",[],[1],[],horizontal,"(390.0, 762.0)",1.3333333333333333,nan,1,4092.286,1
0,413,target,"[(1045, 839)]",[],[1],[0.5333333333333333],horizontal,"(390.0, 762.0)",0.9166666666666666,0.49,1,4097.128,1
0,414,target,"[(1040, 843)]",[],[1],[0.05],horizontal,"(390.0, 762.0)",1.1666666666666667,0.019,0,4101.553,0
0,415,target,"[(1033, 829)]",[],[1],[0.5333333333333333],horizontal,"(890.0, 762.0)",0.65,0.493,1,4106.079,1
0,416,target,"[(1026, 828)]",[],[1],[0.45],horizontal,"(890.0, 262.0)",1.6666666666666667,0.414,1,4110.732,1
0,417,target,"[(1040, 833)]",[],[1],[0.48333333333333334],horizontal,"(890.0, 262.0)",0.6833333333333333,0.449,1,4116.56,1
0,418,target,"[(1059, 812)]",[],[1],[0.7333333333333333],horizontal,"(890.0, 262.0)",0.5833333333333334,0.685,1,4121.109,2
0,419,target,"[(1042, 822)]",[],[1],[0.5],horizontal,"(890.0, 762.0)",0.55,0.457,1,4126.035,1
0,420,target,"[(1020, 833)]",[],[1],[0.7],vertical,"(890.0, 262.0)",0.85,0.655,1,4130.671,1
0,421,target,"[(1024, 835)]",[],[1],[0.85],horizontal,"(390.0, 762.0)",0.6166666666666667,nan,0,4135.729,0
0,422,target,"[(1025, 826)]",[],[1],[0.6],horizontal,"(890.0, 762.0)",1.4333333333333333,0.562,1,4140.413,1
0,423,catch,"[(1058, 830)]",[],[1],[],vertical,"(890.0, 262.0)",1.6166666666666667,nan,1,4146.174,1
0,424,target,"[(1040, 828)]",[],[1],[0.6166666666666667],vertical,"(890.0, 262.0)",0.8833333333333333,0.574,1,4151.473,1
0,425,target,"[(1040, 822)]",[],[1],[0.55],vertical,"(890.0, 762.0)",0.5,0.51,1,4156.122,2
0,426,target,"[(1040, 816)]",[],[1],[0.5166666666666666],horizontal,"(390.0, 262.0)",0.65,0.478,1,4161.149,1
0,427,target,"[(1033, 818)]",[],[1],[0.85],vertical,"(390.0, 762.0)",1.1833333333333333,nan,0,4165.522,0
0,428,target,"[(1036, 840)]",[],[1],[0.5166666666666666],vertical,"(890.0, 762.0)",0.55,0.473,1,4170.538,1
0,429,target,"[(1039, 811)]",[],[1],[0.35],horizontal,"(390.0, 762.0)",1.35,0.311,1,4174.738,1
0,430,target,"[(1052, 818)]",[],[1],[0.5333333333333333],vertical,"(890.0, 262.0)",1.0833333333333333,0.493,1,4180.084,1
0,431,target,"[(1038, 837)]",[],[1],[0.3],vertical,"(390.0, 762.0)",0.9666666666666667,0.265,1,4184.777,2
0,432,target,"[(1046, 828)]",[],[1],[0.5833333333333334],horizontal,"(890.0, 262.0)",1.2166666666666666,0.548,1,4190.076,1
0,433,target,"[(1037, 845)]",[],[1],[0.5833333333333334],vertical,"(390.0, 762.0)",1.15,0.55,1,4195.308,1
0,434,catch,"[(1031, 828)]",[],[1],[],vertical,"(390.0, 762.0)",1.5666666666666667,nan,1,4200.067,1
0,435,target,"[(1026, 820)]",[],[1],[0.08333333333333333],horizontal,"(890.0, 762.0)",1.5833333333333333,0.05,0,4204.953,0
0,436,target,"[(1014, 828)]",[],[1],[0.26666666666666666],vertical,"(890.0, 762.0)",1.5666666666666667,0.236,1,4210.004,1
0,437,target,"[(1035, 825)]",[],[1],[0.6166666666666667],vertical,"(390.0, 262.0)",0.85,0.576,1,4221.136,1
0,438,target,"[(1040, 833)]",[],[1],[0.6],horizontal,"(390.0, 262.0)",0.5,0.567,1,4225.986,1
0,439,target,"[(1068, 825)]",[],[1],[0.5666666666666667],horizontal,"(890.0, 762.0)",1.2,0.528,1,4230.517,2
0,440,target,"[(1041, 833)]",[],[1],[0.5166666666666666],horizontal,"(890.0, 762.0)",0.9833333333333333,0.477,1,4235.898,1
0,441,target,"[(1064, 828)]",[],[1],[0.5166666666666666],horizontal,"(890.0, 262.0)",1.4666666666666666,0.475,1,4240.665,1
0,442,target,"[(1059, 825)]",[],[1],[0.5],vertical,"(390.0, 262.0)",0.5333333333333333,0.461,1,4246.395,1
0,443,target,"[(1042, 818)]",[],[1],[0.75],vertical,"(390.0, 762.0)",1.0,0.704,1,4251.088,3
0,444,target,"[(1037, 830)]",[],[1],[0.36666666666666664],vertical,"(390.0, 762.0)",1.35,0.327,1,4256.707,1
0,445,target,"[(1056, 826)]",[],[1],[0.5],horizontal,"(390.0, 262.0)",0.7166666666666667,0.461,1,4261.771,1
0,446,target,"[(1056, 831)]",[],[1],[0.11666666666666667],horizontal,"(390.0, 262.0)",1.25,0.086,0,4266.734,0
0,447,target,"[(1024, 842)]",[],[1],[0.6],vertical,"(890.0, 262.0)",0.5333333333333333,0.559,1,4271.162,1
0,448,target,"[(1029, 856)]",[],[1],[0.11666666666666667],horizontal,"(390.0, 762.0)",1.5833333333333333,0.084,0,4275.848,0
0,449,target,"[(1033, 820)]",[],[1],[0.35],horizontal,"(890.0, 762.0)",1.4,0.313,1,4281.033,1
0,450,target,"[(1039, 819)]",[],[1],[0.5666666666666667],horizontal,"(390.0, 262.0)",0.7666666666666666,0.522,1,4285.827,1
0,451,target,"[(1040, 815)]",[],[1],[0.3833333333333333],horizontal,"(390.0, 762.0)",1.5666666666666667,0.347,1,4290.337,1
0,452,target,"[(1041, 837)]",[],[1],[0.6833333333333333],vertical,"(390.0, 262.0)",0.75,0.639,1,4295.688,2
0,453,target,"[(1054, 807)]",[],[1],[0.5],vertical,"(890.0, 262.0)",1.35,0.46,1,4300.605,1
0,454,target,"[(1037, 823)]",[],[1],[0.4666666666666667],vertical,"(890.0, 262.0)",1.4833333333333334,0.426,1,4306.014,1
0,455,target,"[(1036, 840)]",[],[1],[0.6833333333333333],horizontal,"(890.0, 762.0)",0.5,0.635,1,4311.271,1
0,456,target,"[(1029, 808)]",[],[1],[0.5333333333333333],horizontal,"(890.0, 762.0)",1.1166666666666667,0.496,1,4315.722,3
0,457,catch,"[(1040, 820)]",[],[1],[],horizontal,"(390.0, 262.0)",1.15,nan,1,4321.406,1
0,458,target,"[(1040, 810)]",[],[1],[0.5166666666666666],horizontal,"(890.0, 262.0)",1.05,0.48,1,4326.156,1
0,459,target,"[(1038, 822)]",[],[1],[0.2],vertical,"(890.0, 762.0)",1.6166666666666667,0.166,1,4330.82,1
0,460,target,"[(1066, 818)]",[],[1],[0.11666666666666667],horizontal,"(390.0, 262.0)",1.55,0.084,0,4335.81,0
0,461,target,"[(1040, 833)]",[],[1],[0.5166666666666666],vertical,"(390.0, 262.0)",0.95,0.475,1,4340.685,1
0,462,target,"[(1065, 808)]",[],[1],[0.6333333333333333],horizontal,"(890.0, 262.0)",0.65,0.603,1,4345.748,1
0,463,target,"[(1056, 810)]",[],[1],[0.5],vertical,"(890.0, 262.0)",0.6833333333333333,0.461,1,4350.134,1
0,464,target,"[(1039, 811)]",[],[1],[0.6333333333333333],horizontal,"(390.0, 762.0)",0.75,0.589,1,4354.421,2
0,465,catch,"[(1023, 811)]",[],[1],[],horizontal,"(890.0, 762.0)",1.5166666666666666,nan,1,4359.567,1
0,466,target,"[(1039, 822)]",[],[1],[0.6166666666666667],horizontal,"(390.0, 262.0)",0.6333333333333333,0.576,1,4364.12,1
0,467,catch,"[(1024, 820)]",[],[1],[],vertical,"(390.0, 762.0)",1.4333333333333333,nan,1,4368.804,1
0,468,target,"[(1052, 822)]",[],[1],[0.6333333333333333],vertical,"(390.0, 762.0)",0.9,0.593,1,4373.473,3
0,469,target,"[(1037, 832)]",[],[1],[0.55],horizontal,"(890.0, 262.0)",0.6,0.51,1,4379.16,1
0,470,target,"[(1037, 821)]",[],[1],[],horizontal,"(890.0, 762.0)",,"('cti', 1.511)",0,4383.906,0
0,471,target,"[(1040, 826)]",[],[1],[0.6166666666666667],vertical,"(890.0, 262.0)",0.65,0.576,1,4388.506,1
0,472,catch,"[(1033, 819)]",[],[1],[],vertical,"(390.0, 762.0)",1.3333333333333333,nan,1,4392.79,1
0,473,target,"[(1040, 830)]",[],[1],[],vertical,"(890.0, 762.0)",,"('cti', 1.503)",0,4397.656,0
0,474,target,"[(1040, 866)]",[],[1],[0.5833333333333334],vertical,"(890.0, 262.0)",0.6333333333333333,0.55,1,4402.331,1
0,475,target,"[(1040, 832)]",[],[1],[0.55],vertical,"(890.0, 762.0)",0.8166666666666667,0.514,1,4420.865,1
0,476,target,"[(1022, 794)]",[],[1],[0.26666666666666666],vertical,"(890.0, 262.0)",1.3666666666666667,0.231,1,4425.594,1
0,477,target,"[(1035, 836)]",[],[1],[0.4666666666666667],horizontal,"(390.0, 762.0)",1.0333333333333332,0.435,1,4430.53,2
0,478,target,"[(1040, 817)]",[],[1],[0.65],horizontal,"(890.0, 262.0)",0.6166666666666667,0.617,1,4435.915,1
0,479,catch,"[(1048, 845)]",[],[1],[],vertical,"(890.0, 762.0)",1.5,nan,1,4440.542,1
0,480,target,"[(1047, 842)]",[],[1],[0.48333333333333334],horizontal,"(890.0, 262.0)",1.05,0.452,1,4445.113,1
0,481,target,"[(1048, 813)]",[],[1],[0.45],horizontal,"(890.0, 262.0)",0.85,0.411,1,4449.694,3
0,482,target,"[(1054, 812)]",[],[1],[0.5333333333333333],vertical,"(890.0, 762.0)",1.2666666666666666,0.493,1,4454.993,1
0,483,target,"[(1045, 822)]",[],[1],[0.5],horizontal,"(390.0, 262.0)",1.0833333333333333,0.459,1,4459.891,1
0,484,target,"[(1038, 818)]",[],[1],[0.4],vertical,"(890.0, 262.0)",1.2333333333333334,0.364,1,4464.603,1
0,485,target,"[(1033, 830)]",[],[1],[0.3833333333333333],horizontal,"(890.0, 762.0)",1.2166666666666666,0.348,1,4470.056,2
0,486,target,"[(1067, 811)]",[],[1],[0.5666666666666667],vertical,"(390.0, 262.0)",0.5333333333333333,0.524,1,4475.652,1
0,487,target,"[(1049, 846)]",[],[1],[0.7666666666666666],horizontal,"(390.0, 262.0)",1.15,0.73,1,4480.15,1
0,488,target,"[(1050, 838)]",[],[1],[],vertical,"(390.0, 262.0)",,"('cti', 1.189)",0,4485.818,0
0,489,target,"[(1041, 820)]",[],[1],[0.4],horizontal,"(390.0, 762.0)",1.1833333333333333,0.362,1,4490.256,1
0,490,target,"[(1040, 799)]",[],[1],[0.23333333333333334],vertical,"(390.0, 762.0)",1.45,0.198,1,4495.116,1
0,491,target,"[(1038, 834)]",[],[1],[0.5333333333333333],vertical,"(890.0, 762.0)",0.7833333333333333,0.493,1,4500.437,1
0,492,target,"[(1031, 834)]",[],[1],[0.4666666666666667],horizontal,"(890.0, 262.0)",1.6166666666666667,0.427,1,4505.231,2
0,493,target,"[(1040, 814)]",[],[1],[0.6333333333333333],horizontal,"(390.0, 262.0)",0.5666666666666667,0.591,1,4510.86,1
0,494,catch,"[(1039, 830)]",[],[1],[],horizontal,"(390.0, 262.0)",1.1833333333333333,nan,1,4515.392,1
0,495,target,"[(1041, 823)]",[],[1],[0.55],vertical,"(890.0, 762.0)",1.0,0.506,1,4520.156,1
0,496,catch,"[(1040, 836)]",[],[1],[],horizontal,"(890.0, 262.0)",1.45,nan,1,4524.84,3
0,497,target,"[(1041, 823)]",[],[1],[0.5],vertical,"(390.0, 262.0)",1.6166666666666667,0.461,1,4530.448,1
0,498,target,"[(1017, 823)]",[],[1],[0.16666666666666666],vertical,"(890.0, 262.0)",1.4333333333333333,0.134,1,4535.573,1
0,499,target,"[(1048, 877)]",[],[1],[],horizontal,"(390.0, 762.0)",,"('cti', 1.183)",0,4540.374,0
0,500,target,"[(1029, 835)]",[],[1],[0.5],horizontal,"(390.0, 762.0)",1.25,0.459,1,4544.907,1
0,501,target,"[(1053, 815)]",[],[1],[0.43333333333333335],horizontal,"(390.0, 262.0)",1.1166666666666667,0.395,1,4550.322,1
0,502,target,"[(1037, 846)]",[],[1],[0.45],horizontal,"(890.0, 762.0)",1.45,0.414,1,4555.018,1
0,503,target,"[(1037, 841)]",[],[1],[0.5666666666666667],horizontal,"(390.0, 762.0)",0.6666666666666666,0.534,1,4560.091,2
0,504,target,"[(1069, 807)]",[],[1],[0.5],vertical,"(890.0, 262.0)",0.9833333333333333,0.465,1,4564.857,1
0,505,target,"[(1042, 799)]",[],[1],[0.55],horizontal,"(890.0, 262.0)",0.7666666666666666,0.51,1,4569.706,1
0,506,target,"[(1036, 834)]",[],[1],[0.5666666666666667],horizontal,"(890.0, 762.0)",1.1833333333333333,0.526,1,4574.208,1
0,507,target,"[(1040, 815)]",[],[1],[0.4666666666666667],vertical,"(890.0, 262.0)",1.15,0.425,1,4579.088,3
0,508,target,"[(1047, 826)]",[],[1],[0.48333333333333334],vertical,"(390.0, 262.0)",0.85,0.444,1,4584.874,1
0,509,target,"[(1023, 825)]",[],[1],[0.36666666666666664],vertical,"(890.0, 262.0)",1.5,0.335,1,4589.923,1
0,510,target,"[(1051, 830)]",[],[1],[0.5333333333333333],horizontal,"(890.0, 262.0)",0.5,0.493,1,4595.258,1
0,511,target,"[(1031, 829)]",[],[1],[0.08333333333333333],vertical,"(890.0, 762.0)",1.5833333333333333,0.051,0,4599.538,0
0,512,target,"[(1037, 836)]",[],[1],[0.6],vertical,"(390.0, 262.0)",0.8166666666666667,0.56,1,4604.765,1
0,513,catch,"[(1038, 829)]",[],[1],[],horizontal,"(890.0, 762.0)",1.4166666666666667,nan,1,4609.49,1
0,514,catch,"[(1040, 837)]",[],[1],[],vertical,"(890.0, 762.0)",1.0166666666666666,nan,1,4614.242,1
0,515,target,"[(1033, 820)]",[],[1],[0.6333333333333333],vertical,"(390.0, 262.0)",0.65,0.596,1,4618.39,2
0,516,target,"[(1045, 822)]",[],[1],[0.4],horizontal,"(890.0, 762.0)",1.2666666666666666,0.366,1,4623.457,1
0,517,target,"[(1039, 816)]",[],[1],[0.25],horizontal,"(890.0, 762.0)",1.25,0.215,1,4628.405,1
0,518,target,"[(1048, 824)]",[],[1],[0.7666666666666666],horizontal,"(890.0, 762.0)",0.5666666666666667,0.725,1,4633.207,1
0,519,target,"[(1079, 830)]",[],[1],[0.4666666666666667],vertical,"(890.0, 262.0)",1.1166666666666667,0.424,1,4637.772,3
0,520,target,"[(1038, 829)]",[],[1],[0.7333333333333333],vertical,"(390.0, 762.0)",1.4666666666666666,0.689,1,4643.757,1
0,521,target,"[(500, 527), (1020, 868)]",[],"[0, 1]",[0.85],vertical,"(890.0, 262.0)",1.2166666666666666,nan,0,4649.621,0
0,522,catch,"[(1040, 852)]",[],[1],[],horizontal,"(890.0, 762.0)",1.4,nan,1,4656.74,1
0,523,target,"[(1052, 840)]",[],[1],[0.85],horizontal,"(390.0, 262.0)",1.6333333333333333,nan,0,4661.847,0
0,524,target,"[(1036, 834)]",[],[1],[],horizontal,"(390.0, 762.0)",,"('cti', 1.48)",0,4667.774,0
0,525,target,"[(1042, 817)]",[],[1],[0.55],vertical,"(390.0, 262.0)",0.7666666666666666,0.51,1,4672.391,1
0,526,target,"[(1045, 813)]",[],[1],[0.5166666666666666],horizontal,"(890.0, 262.0)",0.9333333333333333,0.476,1,4677.156,1
0,527,target,"[(1007, 871)]",[],[1],[0.5166666666666666],horizontal,"(390.0, 762.0)",1.2833333333333332,0.475,1,4682.048,1
0,528,target,"[(1040, 830)]",[],[1],[0.5],vertical,"(890.0, 762.0)",1.2,0.455,1,4995.943,2
0,529,target,"[(1039, 809)]",[],[1],[0.6166666666666667],horizontal,"(390.0, 262.0)",0.9333333333333333,0.571,1,5001.743,1
0,530,target,"[(1042, 806)]",[],[1],[0.3833333333333333],horizontal,"(390.0, 262.0)",1.4833333333333334,0.344,1,5006.714,1
0,531,target,"[(1038, 815)]",[],[1],[0.5],horizontal,"(390.0, 762.0)",1.3666666666666667,0.459,1,5011.691,1
0,532,target,"[(1077, 815)]",[],[1],[0.85],horizontal,"(890.0, 762.0)",1.0833333333333333,nan,0,5016.791,0
0,533,target,"[(1040, 829)]",[],[1],[0.5],vertical,"(390.0, 262.0)",1.0333333333333332,0.462,1,5021.642,1
0,534,target,"[(1056, 804)]",[],[1],[0.7166666666666667],horizontal,"(890.0, 762.0)",0.7333333333333333,0.674,1,5026.255,1
0,535,target,"[(1051, 828)]",[],[1],[0.5],horizontal,"(390.0, 262.0)",1.25,0.459,1,5030.921,1
0,536,target,"[(1063, 805)]",[],[1],[0.7833333333333333],vertical,"(390.0, 262.0)",0.5166666666666666,0.735,1,5035.777,2
0,537,catch,"[(1049, 818)]",[],[1],[],horizontal,"(390.0, 762.0)",1.6833333333333333,nan,1,5040.744,1
0,538,target,"[(1056, 832)]",[],[1],[0.6666666666666666],vertical,"(390.0, 762.0)",0.9,0.62,1,5045.627,1
0,539,target,"[(1061, 818)]",[],[1],[0.3],horizontal,"(890.0, 262.0)",1.5166666666666666,0.267,1,5050.309,1
0,540,target,"[(1058, 819)]",[],[1],[0.55],horizontal,"(390.0, 262.0)",0.5,0.508,1,5055.892,3
0,541,target,"[(1043, 821)]",[],[1],[0.5166666666666666],vertical,"(390.0, 762.0)",1.5666666666666667,0.483,1,5061.42,1
0,542,target,"[(1042, 822)]",[],[1],[0.3],vertical,"(890.0, 762.0)",1.55,0.266,1,5067.072,1
0,543,target,"[(1058, 820)]",[],[1],[0.75],horizontal,"(390.0, 762.0)",0.8333333333333334,0.698,1,5072.319,1
0,544,catch,"[(1055, 819)]",[],[1],[],vertical,"(390.0, 262.0)",,"('cti', 1.485),nan",0,5077.177,0
0,545,target,"[(1037, 853)]",[],[1],[0.23333333333333334],horizontal,"(890.0, 762.0)",1.5333333333333332,0.2,1,5081.907,1
0,546,target,"[(1035, 854)]",[],[1],[0.6],horizontal,"(890.0, 262.0)",0.55,0.562,1,5086.78,1
0,547,target,"[(1058, 822)]",[],[1],[0.85],horizontal,"(390.0, 762.0)",1.3166666666666667,nan,0,5092.094,0
0,548,target,"[(1019, 834)]",[],[1],[0.4666666666666667],horizontal,"(890.0, 262.0)",1.4666666666666666,0.425,1,5097.277,1
0,549,catch,"[(1036, 860)]",[],[1],[],horizontal,"(390.0, 762.0)",1.4333333333333333,nan,1,5106.773,1
0,550,target,"[(1052, 822)]",[],[1],[0.85],horizontal,"(890.0, 762.0)",0.6333333333333333,nan,0,5111.874,0
0,551,target,"[(1032, 821)]",[],[1],[0.5333333333333333],vertical,"(390.0, 262.0)",0.9333333333333333,0.496,1,5116.203,1
0,552,catch,"[(1052, 826)]",[],[1],[],horizontal,"(890.0, 762.0)",1.1666666666666667,nan,1,5120.956,1
0,553,target,"[(1030, 838)]",[],[1],[],horizontal,"(390.0, 262.0)",,"('cti', 1.39)",0,5125.529,0
0,554,target,"[(1033, 819)]",[],[1],[0.5333333333333333],vertical,"(890.0, 762.0)",0.5666666666666667,0.491,1,5129.96,1
0,555,target,"[(1032, 814)]",[],[1],[0.6],vertical,"(890.0, 262.0)",1.5,0.557,1,5134.782,1
0,556,target,"[(1033, 815)]",[],[1],[0.4666666666666667],horizontal,"(890.0, 762.0)",1.45,0.421,1,5139.8,1
0,557,target,"[(1058, 838)]",[],[1],[0.5833333333333334],vertical,"(390.0, 762.0)",0.5,0.541,1,5145.343,2
0,558,target,"[(1037, 828)]",[],[1],[0.3333333333333333],vertical,"(390.0, 262.0)",1.3666666666666667,0.298,1,5150.115,1
0,559,target,"[(1074, 819)]",[],[1],[0.11666666666666667],horizontal,"(390.0, 762.0)",1.5833333333333333,0.084,0,5155.161,0
0,560,catch,"[(1049, 838)]",[],[1],[],horizontal,"(890.0, 262.0)",1.2166666666666666,nan,1,5160.125,1
0,561,catch,"[(1037, 800)]",[],[1],[],vertical,"(390.0, 762.0)",1.15,nan,1,5164.878,1
0,562,target,"[(1060, 819)]",[],[1],[0.5333333333333333],horizontal,"(890.0, 762.0)",1.0,0.496,1,5169.173,1
0,563,target,"[(1081, 831)]",[],[1],[0.65],vertical,"(890.0, 762.0)",0.5166666666666666,0.604,1,5173.793,2
0,564,target,"[(1068, 804)]",[],[1],[0.36666666666666664],horizontal,"(890.0, 762.0)",1.4333333333333333,0.329,1,5178.761,1
0,565,target,"[(1053, 821)]",[],[1],[0.16666666666666666],horizontal,"(890.0, 762.0)",1.5,0.131,1,5183.46,1
0,566,target,"[(1038, 848)]",[],[1],[],horizontal,"(390.0, 262.0)",,"('cti', 1.289)",0,5188.618,0
0,567,target,"[(1037, 832)]",[],[1],[0.55],vertical,"(890.0, 262.0)",1.1,0.507,1,5193.478,1
0,568,catch,"[(1013, 838)]",[],[1],[],vertical,"(390.0, 762.0)",1.0833333333333333,nan,1,5199.993,1
0,569,target,"[(1013, 828)]",[],[1],[0.5833333333333334],vertical,"(890.0, 762.0)",1.4666666666666666,0.544,1,5204.427,1
0,570,target,"[(1041, 825)]",[],[1],[0.7333333333333333],horizontal,"(890.0, 262.0)",0.7,0.691,1,5213.695,2
0,571,target,"[(1037, 827)]",[],[1],[0.6333333333333333],horizontal,"(890.0, 262.0)",0.6,0.592,1,5219.152,1
0,572,catch,"[(1060, 820)]",[],[1],[],horizontal,"(890.0, 262.0)",1.5333333333333332,nan,1,5224.178,1
0,573,catch,"[(1037, 808)]",[],[1],[],horizontal,"(390.0, 762.0)",1.0,nan,1,5229.188,1
0,574,target,"[(1068, 838)]",[],[1],[0.5],horizontal,"(890.0, 762.0)",1.1666666666666667,0.46,1,5233.709,3
0,575,target,"[(1033, 799)]",[],[1],[0.5333333333333333],vertical,"(390.0, 262.0)",0.6333333333333333,0.495,1,5239.497,1
0,576,target,"[(1061, 811)]",[],[1],[0.5166666666666666],horizontal,"(890.0, 762.0)",0.85,0.478,1,5243.712,1
0,577,target,"[(1063, 820)]",[],[1],[0.48333333333333334],horizontal,"(390.0, 762.0)",1.1166666666666667,0.447,1,5248.634,1
0,578,target,"[(1057, 818)]",[],[1],[0.45],horizontal,"(890.0, 262.0)",1.0,0.408,1,5253.38,2
0,579,catch,"[(1056, 804)]",[],[1],[],horizontal,"(890.0, 762.0)",,"('cti', 1.451),nan",0,5258.582,0
0,580,target,"[(1060, 819)]",[],[1],[0.15],horizontal,"(890.0, 262.0)",1.4833333333333334,0.116,1,5263.145,1
0,581,target,"[(1068, 818)]",[],[1],[0.85],horizontal,"(890.0, 762.0)",0.5166666666666666,nan,0,5268.352,0
0,582,target,"[(1056, 829)]",[],[1],[0.4666666666666667],vertical,"(890.0, 762.0)",1.65,0.427,1,5272.715,1
0,583,catch,"[(1059, 817)]",[],[1],[],horizontal,"(390.0, 262.0)",1.6,nan,1,5278.161,1
0,584,target,"[(1037, 818)]",[],[1],[0.4666666666666667],horizontal,"(390.0, 762.0)",0.6833333333333333,0.432,1,5282.879,1
0,585,target,"[(1033, 820)]",[],[1],[0.36666666666666664],vertical,"(390.0, 262.0)",1.4166666666666667,0.33,1,5287.028,2
0,586,target,"[(1038, 809)]",[],[1],[0.75],vertical,"(390.0, 262.0)",0.55,0.702,1,5292.776,1
0,587,target,"[(1057, 775)]",[],[1],[0.6666666666666666],vertical,"(390.0, 762.0)",0.9333333333333333,0.628,1,5297.578,1
0,588,target,"[(1037, 816)]",[],[1],[],vertical,"(890.0, 262.0)",,"('cti', 1.548)",0,5302.462,0
0,589,target,"[(1025, 819)]",[],[1],[0.21666666666666667],vertical,"(390.0, 762.0)",1.4333333333333333,0.182,1,5307.344,1
0,590,target,"[(1060, 808)]",[],[1],[0.5666666666666667],vertical,"(890.0, 762.0)",1.4166666666666667,0.52,1,5312.735,1
0,591,target,"[(1068, 828)]",[],[1],[0.5166666666666666],horizontal,"(390.0, 762.0)",0.65,0.479,1,5318.245,1
0,592,target,"[(1067, 808)]",[],[1],[0.65],vertical,"(390.0, 762.0)",0.9,0.612,1,5322.525,2
0,593,target,"[(1038, 821)]",[],[1],[0.8],vertical,"(390.0, 762.0)",0.8166666666666667,0.752,1,5327.963,1
0,594,target,"[(1045, 807)]",[],[1],[0.6333333333333333],horizontal,"(390.0, 762.0)",0.5166666666666666,0.592,1,5332.98,1
0,595,target,"[(1065, 816)]",[],[1],[],vertical,"(890.0, 762.0)",,"('cti', 1.633)",0,5337.51,0
0,596,target,"[(1045, 810)]",[],[1],[0.6333333333333333],vertical,"(890.0, 262.0)",0.7833333333333333,0.59,1,5342.296,1
0,597,target,"[(1025, 827)]",[],[1],[0.55],horizontal,"(390.0, 262.0)",1.15,0.511,1,5347.443,1
0,598,target,"[(1043, 815)]",[],[1],[0.3],horizontal,"(890.0, 762.0)",1.65,0.267,1,5352.452,1
0,599,target,"[(1069, 811)]",[],[1],[0.7],horizontal,"(390.0, 262.0)",0.6333333333333333,0.655,1,5357.429,2
0,600,target,"[(1076, 819)]",[],[1],[],horizontal,"(390.0, 762.0)",,"('fix', 0.102)",0,5362.317,0
0,601,target,"[(1037, 854)]",[],[1],[0.85],vertical,"(390.0, 262.0)",1.2166666666666666,nan,0,5364.066,0
0,602,target,"[(1037, 833)]",[],[1],[0.5333333333333333],horizontal,"(390.0, 262.0)",0.8666666666666667,0.506,1,5376.787,1
0,603,target,"[(1040, 821)]",[],[1],[0.55],horizontal,"(390.0, 262.0)",0.6,0.507,1,5381.368,1
0,604,target,"[(1047, 807)]",[],[1],[0.2],vertical,"(890.0, 262.0)",1.6666666666666667,0.166,1,5385.807,1
0,605,target,"[(1067, 829)]",[],[1],[0.5666666666666667],horizontal,"(890.0, 762.0)",1.0,0.524,1,5390.927,2
0,606,target,"[(1069, 813)]",[],[1],[0.45],vertical,"(890.0, 262.0)",1.3166666666666667,0.412,1,5396.395,1
0,607,target,"[(1038, 826)]",[],[1],[0.48333333333333334],vertical,"(390.0, 262.0)",1.5,0.448,1,5401.262,1
0,608,target,"[(1062, 813)]",[],[1],[],vertical,"(890.0, 262.0)",,"('cti', 1.459)",0,5406.374,0
0,609,target,"[(1037, 820)]",[],[1],[0.2],vertical,"(890.0, 762.0)",1.55,0.167,1,5411.378,1
0,610,target,"[(1037, 826)]",[],[1],[0.5666666666666667],horizontal,"(890.0, 262.0)",0.85,0.521,1,5416.213,1
0,611,target,"[(1039, 821)]",[],[1],[0.5333333333333333],horizontal,"(390.0, 762.0)",0.5833333333333334,0.489,1,5421.068,1
0,612,target,"[(1040, 820)]",[],[1],[0.65],vertical,"(890.0, 762.0)",1.0666666666666667,0.603,1,5425.213,2
0,613,target,"[(1063, 815)]",[],[1],[0.5666666666666667],vertical,"(390.0, 762.0)",0.6166666666666667,0.523,1,5430.478,1
0,614,target,"[(1053, 804)]",[],[1],[0.3833333333333333],horizontal,"(890.0, 262.0)",1.4833333333333334,0.344,1,5434.746,1
0,615,target,"[(1037, 823)]",[],[1],[0.85],vertical,"(390.0, 262.0)",0.55,nan,0,5440.046,0
0,616,target,"[(1036, 833)]",[],[1],[0.6166666666666667],horizontal,"(390.0, 762.0)",0.7,0.573,1,5444.522,1
0,617,target,"[(1069, 818)]",[],[1],[0.6333333333333333],horizontal,"(890.0, 762.0)",1.1666666666666667,0.588,1,5449.748,1
0,618,target,"[(1064, 828)]",[],[1],[0.6166666666666667],vertical,"(890.0, 762.0)",0.5666666666666667,0.574,1,5455.018,1
0,619,target,"[(1063, 833)]",[],[1],[0.5],vertical,"(890.0, 262.0)",0.9333333333333333,0.459,1,5459.773,2
0,620,target,"[(1068, 808)]",[],[1],[0.5333333333333333],horizontal,"(890.0, 762.0)",0.9666666666666667,0.489,1,5465.227,1
0,621,catch,"[(1075, 814)]",[],[1],[],horizontal,"(390.0, 262.0)",1.4833333333333334,nan,1,5470.284,1
0,622,target,"[(1040, 836)]",[],[1],[],vertical,"(390.0, 762.0)",,"('cti', 1.468)",0,5475.064,0
0,623,target,"[(1040, 836)]",[],[1],[0.55],horizontal,"(890.0, 262.0)",0.8,0.502,1,5479.58,1
0,624,target,"[(1038, 834)]",[],[1],[0.6166666666666667],vertical,"(890.0, 262.0)",0.9666666666666667,0.582,1,5484.149,1
0,625,target,"[(1068, 822)]",[],[1],[0.75],horizontal,"(890.0, 762.0)",0.5166666666666666,0.701,1,5490.378,1
0,626,target,"[(1038, 812)]",[],[1],[0.48333333333333334],horizontal,"(890.0, 262.0)",1.2666666666666666,0.457,1,5495.037,2
0,627,target,"[(1037, 823)]",[],[1],[0.5666666666666667],vertical,"(390.0, 262.0)",0.9833333333333333,0.523,1,5501.913,1
0,628,target,"[(1039, 822)]",[],[1],[0.05],horizontal,"(890.0, 262.0)",1.6833333333333333,0.017,0,5506.477,0
0,629,target,"[(1035, 820)]",[],[1],[0.35],vertical,"(390.0, 262.0)",1.35,0.31,1,5511.215,1
0,630,target,"[(1038, 822)]",[],[1],[0.5],vertical,"(390.0, 262.0)",1.2166666666666666,0.459,1,5516.611,1
0,631,target,"[(1064, 806)]",[],[1],[0.7833333333333333],horizontal,"(390.0, 762.0)",0.7333333333333333,0.74,1,5521.405,1
0,632,target,"[(1055, 835)]",[],[1],[0.15],vertical,"(390.0, 262.0)",1.4666666666666666,0.117,1,5525.931,2
0,633,target,"[(1068, 827)]",[],[1],[0.5666666666666667],horizontal,"(390.0, 762.0)",0.9333333333333333,0.527,1,5531.225,1
0,634,target,"[(1063, 824)]",[],[1],[0.5333333333333333],vertical,"(390.0, 262.0)",0.7666666666666666,0.491,1,5536.316,1
0,635,target,"[(1061, 828)]",[],[1],[0.16666666666666666],horizontal,"(390.0, 762.0)",1.65,0.135,1,5541.217,1
0,636,target,"[(1063, 806)]",[],[1],[0.6],horizontal,"(890.0, 262.0)",0.6,0.558,1,5546.496,3
0,637,target,"[(1038, 808)]",[],[1],[0.75],vertical,"(890.0, 262.0)",0.9,0.701,1,5551.896,1
0,638,catch,"[(1060, 800)]",[],[1],[],horizontal,"(390.0, 262.0)",1.15,nan,1,5556.98,1
0,639,target,"[(1037, 808)]",[],[1],[0.55],vertical,"(390.0, 762.0)",0.6833333333333333,0.508,1,5561.755,1
0,640,catch,"[(1061, 831)]",[],[1],[],vertical,"(390.0, 262.0)",1.3833333333333333,nan,1,5566.393,2
0,641,target,"[(1070, 811)]",[],[1],[0.55],horizontal,"(890.0, 262.0)",0.9333333333333333,0.507,1,5571.396,1
0,642,target,"[(1063, 796)]",[],[1],[0.2],vertical,"(890.0, 262.0)",1.4333333333333333,0.166,1,5576.199,1
0,643,target,"[(1056, 835)]",[],[1],[0.5],horizontal,"(890.0, 262.0)",0.8,0.454,1,5581.296,1
0,644,catch,"[(1039, 818)]",[],[1],[],vertical,"(890.0, 262.0)",1.4333333333333333,nan,1,5586.278,3
0,645,target,"[(1037, 816)]",[],[1],[0.5],horizontal,"(390.0, 262.0)",0.7333333333333333,0.457,1,5592.064,1
0,646,target,"[(1056, 826)]",[],[1],[0.5166666666666666],horizontal,"(390.0, 762.0)",0.9333333333333333,0.476,1,5596.915,1
0,647,catch,"[(1047, 807)]",[],[1],[],vertical,"(390.0, 262.0)",1.1833333333333333,nan,1,5601.892,1
0,648,target,"[(1036, 813)]",[],[1],[0.5833333333333334],vertical,"(890.0, 762.0)",0.95,0.544,1,5606.408,2
0,649,target,"[(1033, 819)]",[],[1],[0.23333333333333334],horizontal,"(390.0, 262.0)",1.3333333333333333,0.197,1,5611.659,1
0,650,target,"[(1037, 813)]",[],[1],[0.15],horizontal,"(890.0, 762.0)",1.3,0.118,1,5616.701,1
0,651,target,"[(1045, 817)]",[],[1],[0.5],horizontal,"(390.0, 762.0)",0.9333333333333333,0.461,1,5621.613,1
0,652,target,"[(1037, 804)]",[],[1],[0.5333333333333333],horizontal,"(890.0, 762.0)",0.6833333333333333,0.491,1,5626.924,3
0,653,catch,"[(1061, 813)]",[],[1],[],vertical,"(390.0, 762.0)",1.5666666666666667,nan,1,5632.163,1
0,654,target,"[(1036, 818)]",[],[1],[0.5666666666666667],vertical,"(890.0, 262.0)",0.9666666666666667,0.524,1,5636.596,1
0,655,target,"[(1037, 813)]",[],[1],[0.7333333333333333],vertical,"(390.0, 762.0)",0.8666666666666667,0.681,1,5641.288,1
0,656,target,"[(1066, 818)]",[],[1],[0.5],vertical,"(890.0, 262.0)",0.75,0.462,1,5646.125,2
0,657,catch,"[(1072, 820)]",[],[1],[],horizontal,"(390.0, 762.0)",1.05,nan,1,5650.884,1
0,658,target,"[(1060, 820)]",[],[1],[0.7333333333333333],horizontal,"(890.0, 762.0)",0.8,0.689,1,5655.207,1
0,659,target,"[(1056, 799)]",[],[1],[0.5833333333333334],vertical,"(890.0, 262.0)",0.5833333333333334,0.538,1,5660.306,1
0,660,target,"[(1037, 825)]",[],[1],[],vertical,"(390.0, 762.0)",,"('cti', 1.498)",0,5665.068,0
0,661,target,"[(1038, 812)]",[],[1],[0.5],horizontal,"(890.0, 762.0)",0.9,0.459,1,5669.747,1
0,662,target,"[(1057, 811)]",[],[1],[0.18333333333333332],horizontal,"(890.0, 762.0)",1.5166666666666666,0.145,1,5674.064,1
0,663,target,"[(1056, 816)]",[],[1],[0.5166666666666666],horizontal,"(390.0, 762.0)",0.8833333333333333,0.48,1,5678.878,1
0,664,target,"[(1077, 831)]",[],[1],[],horizontal,"(390.0, 262.0)",,"('cti', 1.373)",0,5684.079,0
0,665,target,"[(1035, 823)]",[],[1],[0.2],horizontal,"(390.0, 262.0)",1.5,0.164,1,5688.497,1
0,666,target,"[(1060, 820)]",[],[1],[0.6166666666666667],horizontal,"(390.0, 762.0)",0.65,0.568,1,5693.347,1
0,667,target,"[(1033, 816)]",[],[1],[0.15],horizontal,"(390.0, 762.0)",1.5166666666666666,0.118,1,5697.83,1
0,668,target,"[(1056, 828)]",[],[1],[0.48333333333333334],vertical,"(890.0, 262.0)",0.95,0.442,1,5702.756,2
0,669,target,"[(1038, 814)]",[],[1],[0.5166666666666666],vertical,"(390.0, 262.0)",0.85,0.476,1,5708.242,1
0,670,target,"[(1033, 818)]",[],[1],[0.48333333333333334],vertical,"(890.0, 262.0)",1.0333333333333332,0.445,1,5712.898,1
0,671,target,"[(1042, 810)]",[],[1],[0.45],horizontal,"(390.0, 762.0)",1.15,0.406,1,5717.382,1
0,672,target,"[(1068, 806)]",[],[1],[0.5833333333333334],vertical,"(890.0, 262.0)",0.75,0.541,1,5722.018,3
0,673,target,"[(1063, 814)]",[],[1],[0.48333333333333334],vertical,"(890.0, 762.0)",1.1666666666666667,0.434,1,5727.217,1
0,674,target,"[(1076, 807)]",[],[1],[],horizontal,"(390.0, 762.0)",,"('cti', 1.468)",0,5731.899,0
0,675,target,"[(1038, 829)]",[],[1],[0.7166666666666667],vertical,"(890.0, 262.0)",0.8666666666666667,0.69,1,5736.515,1
0,676,target,"[(1044, 807)]",[],[1],[],vertical,"(390.0, 762.0)",,"('cti', 1.589)",0,5741.548,0
0,677,catch,"[(1038, 809)]",[],[1],[],vertical,"(390.0, 762.0)",1.0833333333333333,nan,1,5746.368,1
0,678,target,"[(1053, 807)]",[],[1],[0.5],horizontal,"(890.0, 262.0)",1.1666666666666667,0.461,1,5750.688,1
0,679,target,"[(1039, 801)]",[],[1],[0.2],horizontal,"(890.0, 262.0)",1.5833333333333333,0.164,1,5755.41,1
0,680,catch,"[(1037, 813)]",[],[1],[],horizontal,"(390.0, 262.0)",1.35,nan,1,5760.335,2
0,681,target,"[(1037, 829)]",[],[1],[0.21666666666666667],horizontal,"(390.0, 762.0)",1.45,0.184,1,5765.648,1
0,682,target,"[(1039, 835)]",[],[1],[0.48333333333333334],horizontal,"(390.0, 762.0)",1.1,0.441,1,5770.519,1
0,683,target,"[(1037, 828)]",[],[1],[0.26666666666666666],vertical,"(390.0, 262.0)",1.0166666666666666,0.237,1,5775.531,1
0,684,target,"[(1072, 813)]",[],[1],[0.35],horizontal,"(890.0, 262.0)",1.4,0.313,1,5780.548,3
0,685,target,"[(1038, 798)]",[],[1],[],horizontal,"(890.0, 762.0)",,"('cti', 1.453)",0,5786.332,0
0,686,target,"[(1054, 811)]",[],[1],[0.4],vertical,"(390.0, 762.0)",1.25,0.358,1,5791.164,1
0,687,target,"[(1038, 818)]",[],[1],[0.55],vertical,"(390.0, 262.0)",0.55,0.504,1,5796.158,1
0,688,target,"[(1037, 822)]",[],[1],[0.4166666666666667],horizontal,"(390.0, 262.0)",1.2833333333333332,0.375,1,5800.864,1
0,689,target,"[(1045, 813)]",[],[1],[0.6833333333333333],vertical,"(890.0, 762.0)",0.8666666666666667,0.639,1,5806.238,2
0,690,target,"[(1064, 819)]",[],[1],[0.5],vertical,"(890.0, 262.0)",1.0,0.464,1,5811.515,1
0,691,target,"[(1038, 806)]",[],[1],[0.55],vertical,"(390.0, 262.0)",0.9333333333333333,0.505,1,5816.349,1
0,692,catch,"[(1061, 816)]",[],[1],[],horizontal,"(890.0, 262.0)",,"('cti', 1.411),nan",0,5820.862,0
0,693,catch,"[(1052, 820)]",[],[1],[],vertical,"(890.0, 762.0)",1.1833333333333333,nan,1,5825.658,1
0,694,catch,"[(1053, 810)]",[],[1],[],vertical,"(390.0, 762.0)",1.2666666666666666,nan,1,5829.933,1
0,695,target,"[(1061, 819)]",[],[1],[0.3333333333333333],horizontal,"(390.0, 762.0)",1.4,0.299,1,5834.698,1
0,696,target,"[(1038, 823)]",[],[1],[0.5],horizontal,"(390.0, 762.0)",1.05,0.453,1,5839.54,2
0,697,target,"[(1045, 818)]",[],[1],[0.5333333333333333],vertical,"(390.0, 262.0)",1.0166666666666666,0.491,1,5845.213,1
0,698,target,"[(1040, 825)]",[],[1],[0.5666666666666667],horizontal,"(390.0, 762.0)",0.6833333333333333,0.526,1,5850.371,1
0,699,target,"[(1065, 811)]",[],[1],[0.4666666666666667],vertical,"(390.0, 262.0)",1.1333333333333333,0.427,1,5855.365,1
0,700,target,"[(1037, 813)]",[],[1],[0.5166666666666666],vertical,"(390.0, 762.0)",1.2,0.475,1,5860.277,3
0,701,target,"[(1060, 806)]",[],[1],[0.85],vertical,"(390.0, 762.0)",0.5666666666666667,nan,0,5866.022,0
0,702,catch,"[(1030, 822)]",[],[1],[],horizontal,"(890.0, 262.0)",,"('cti', 1.604),nan",0,5870.299,0
0,703,target,"[(1059, 825)]",[],[1],[0.6166666666666667],vertical,"(390.0, 762.0)",0.55,0.579,1,5875.288,1
0,704,target,"[(1037, 812)]",[],[1],[0.13333333333333333],horizontal,"(390.0, 262.0)",1.5333333333333332,0.1,1,5879.925,1
0,705,target,"[(1025, 843)]",[],[1],[0.85],vertical,"(390.0, 262.0)",0.7166666666666667,nan,0,5884.954,0
0,706,target,"[(1037, 845)]",[],[1],[0.55],vertical,"(390.0, 262.0)",0.7,0.505,1,5944.05,1
0,707,target,"[(1052, 828)]",[],[1],[0.6],vertical,"(390.0, 262.0)",1.1333333333333333,0.557,1,5949.033,1
0,708,target,"[(1029, 828)]",[],[1],[0.85],horizontal,"(390.0, 762.0)",1.0666666666666667,nan,0,5954.245,0
0,709,target,"[(1022, 823)]",[],[1],[0.5],horizontal,"(390.0, 762.0)",1.3166666666666667,0.459,1,5959.381,1
0,710,target,"[(1065, 826)]",[],[1],[0.8],horizontal,"(390.0, 762.0)",0.55,0.749,1,5966.102,1
0,711,target,"[(1037, 828)]",[],[1],[0.5833333333333334],vertical,"(390.0, 762.0)",0.8833333333333333,0.541,1,5970.754,1
0,712,target,"[(1052, 839)]",[],[1],[0.4166666666666667],vertical,"(890.0, 762.0)",1.3666666666666667,0.372,1,5975.624,2
0,713,target,"[(1030, 818)]",[],[1],[0.2833333333333333],vertical,"(390.0, 262.0)",1.3833333333333333,0.247,1,5980.883,1
0,714,target,"[(1039, 823)]",[],[1],[0.16666666666666666],horizontal,"(890.0, 762.0)",1.5,0.134,1,5986.101,1
0,715,target,"[(1058, 810)]",[],[1],[],vertical,"(890.0, 262.0)",,"('cti', 1.195)",0,5991.065,0
0,716,target,"[(1037, 828)]",[],[1],[0.5],vertical,"(890.0, 262.0)",1.25,0.459,1,5995.762,1
0,717,target,"[(1064, 811)]",[],[1],[0.5],vertical,"(890.0, 262.0)",1.2333333333333334,0.459,1,6000.458,1
0,718,target,"[(1031, 825)]",[],[1],[0.85],horizontal,"(390.0, 762.0)",0.5333333333333333,nan,0,6005.383,0
0,719,target,"[(1030, 833)]",[],[1],[0.6333333333333333],horizontal,"(390.0, 262.0)",0.8333333333333334,0.586,1,6009.703,1
0,720,target,"[(1039, 830)]",[],[1],[0.5166666666666666],vertical,"(390.0, 762.0)",1.1,0.474,1,6014.749,1
0,721,catch,"[(1060, 820)]",[],[1],[],horizontal,"(390.0, 262.0)",1.6666666666666667,nan,1,6019.838,1
0,722,target,"[(1061, 825)]",[],[1],[0.45],horizontal,"(390.0, 762.0)",1.0666666666666667,0.414,1,6024.708,2
0,723,target,"[(1061, 816)]",[],[1],[0.31666666666666665],vertical,"(890.0, 262.0)",1.4833333333333334,0.277,1,6029.898,1
0,724,target,"[(1063, 818)]",[],[1],[0.5166666666666666],horizontal,"(890.0, 762.0)",0.8333333333333334,0.476,1,6034.692,1
0,725,target,"[(1033, 821)]",[],[1],[0.48333333333333334],horizontal,"(890.0, 262.0)",0.85,0.446,1,6038.998,1
0,726,target,"[(1060, 806)]",[],[1],[0.31666666666666665],vertical,"(890.0, 762.0)",1.4,0.278,1,6043.785,3
0,727,target,"[(1034, 825)]",[],[1],[0.5666666666666667],vertical,"(890.0, 262.0)",0.6833333333333333,0.526,1,6049.579,1
0,728,target,"[(1042, 829)]",[],[1],[0.6666666666666666],vertical,"(390.0, 262.0)",0.85,0.617,1,6053.871,1
0,729,target,"[(1035, 822)]",[],[1],[0.43333333333333335],horizontal,"(390.0, 762.0)",1.05,0.394,1,6058.558,1
0,730,target,"[(1056, 816)]",[],[1],[0.5833333333333334],horizontal,"(890.0, 762.0)",0.5666666666666667,0.536,1,6063.583,2
0,731,target,"[(1037, 824)]",[],[1],[0.5666666666666667],vertical,"(390.0, 762.0)",0.9166666666666666,0.523,1,6068.624,1
0,732,target,"[(1038, 821)]",[],[1],[0.6],vertical,"(390.0, 262.0)",1.25,0.552,1,6074.177,1
0,733,target,"[(1049, 826)]",[],[1],[0.5],vertical,"(390.0, 762.0)",1.0,0.46,1,6079.099,1
0,734,catch,"[(1040, 820)]",[],[1],[],horizontal,"(390.0, 262.0)",1.4166666666666667,nan,1,6084.065,3
0,735,target,"[(1060, 806)]",[],[1],[0.55],horizontal,"(890.0, 262.0)",0.8,0.513,1,6089.921,1
0,736,target,"[(1037, 824)]",[],[1],[0.5333333333333333],horizontal,"(890.0, 262.0)",0.5833333333333334,0.494,1,6094.276,1
0,737,target,"[(1057, 820)]",[],[1],[0.5166666666666666],horizontal,"(390.0, 762.0)",0.7166666666666667,0.479,1,6098.873,1
0,738,target,"[(1056, 813)]",[],[1],[0.4666666666666667],vertical,"(890.0, 762.0)",1.2333333333333334,0.429,1,6103.397,2
0,739,target,"[(1060, 813)]",[],[1],[0.55],vertical,"(890.0, 762.0)",1.0833333333333333,0.506,1,6109.038,1
0,740,target,"[(1059, 808)]",[],[1],[],horizontal,"(890.0, 262.0)",,"('cti', 1.423)",0,6114.057,0
0,741,target,"[(1039, 822)]",[],[1],[0.5666666666666667],vertical,"(890.0, 762.0)",1.0,0.526,1,6118.943,1
0,742,target,"[(1058, 802)]",[],[1],[0.55],horizontal,"(890.0, 262.0)",0.9833333333333333,0.513,1,6123.485,1
0,743,target,"[(1041, 813)]",[],[1],[0.16666666666666666],vertical,"(390.0, 762.0)",1.65,0.131,1,6128.613,1
0,744,target,"[(1065, 796)]",[],[1],[0.4],horizontal,"(890.0, 762.0)",1.35,0.359,1,6133.685,2
0,745,catch,"[(1069, 794)]",[],[1],[],horizontal,"(390.0, 762.0)",1.4333333333333333,nan,1,6139.234,1
0,746,target,"[(1056, 828)]",[],[1],[0.5666666666666667],horizontal,"(390.0, 262.0)",0.8666666666666667,0.528,1,6143.753,1
0,747,target,"[(1060, 795)]",[],[1],[0.55],vertical,"(890.0, 762.0)",0.6166666666666667,0.509,1,6148.329,1
0,748,target,"[(1061, 824)]",[],[1],[0.3],vertical,"(390.0, 762.0)",1.3166666666666667,0.265,1,6153.107,3
0,749,target,"[(1025, 830)]",[],[1],[0.4666666666666667],horizontal,"(890.0, 762.0)",1.2333333333333334,0.425,1,6159.137,1
0,750,target,"[(1056, 823)]",[],[1],[0.55],horizontal,"(390.0, 762.0)",0.9333333333333333,0.51,1,6164.034,1
0,751,target,"[(1038, 817)]",[],[1],[0.5666666666666667],horizontal,"(390.0, 262.0)",1.2333333333333334,0.526,1,6168.701,1
0,752,target,"[(1021, 818)]",[],[1],[0.85],horizontal,"(890.0, 762.0)",1.2166666666666666,nan,0,6173.861,0
0,753,target,"[(1028, 830)]",[],[1],[0.85],horizontal,"(890.0, 262.0)",1.1333333333333333,nan,0,6179.207,0
0,754,catch,"[(1037, 828)]",[],[1],[],vertical,"(890.0, 262.0)",1.2833333333333332,nan,1,6187.213,1
0,755,target,"[(1040, 834)]",[],[1],[0.7166666666666667],vertical,"(390.0, 762.0)",0.55,0.673,1,6192.372,1
0,756,catch,"[(1040, 838)]",[],[1],[],horizontal,"(390.0, 762.0)",1.4,nan,1,6197.244,1
0,757,target,"[(1039, 820)]",[],[1],[0.6166666666666667],vertical,"(390.0, 262.0)",0.65,0.571,1,6202.499,2
0,758,target,"[(1060, 822)]",[],[1],[0.5833333333333334],vertical,"(890.0, 262.0)",0.6833333333333333,0.535,1,6207.818,1
0,759,target,"[(1037, 815)]",[],[1],[0.31666666666666665],vertical,"(890.0, 762.0)",1.2166666666666666,0.279,1,6212.467,1
0,760,target,"[(1076, 812)]",[],[1],[0.18333333333333332],horizontal,"(390.0, 762.0)",1.3833333333333333,0.151,1,6217.718,1
0,761,target,"[(1039, 824)]",[],[1],[0.1],vertical,"(390.0, 762.0)",1.5166666666666666,0.067,0,6223.117,0
0,762,target,"[(1039, 830)]",[],[1],[0.48333333333333334],horizontal,"(390.0, 762.0)",1.3166666666666667,0.45,1,6227.804,1
0,763,target,"[(1058, 818)]",[],[1],[0.6166666666666667],vertical,"(890.0, 762.0)",0.85,0.572,1,6232.562,1
0,764,target,"[(1037, 821)]",[],[1],[],vertical,"(890.0, 762.0)",,"('cti', 1.621)",0,6237.717,0
0,765,target,"[(1033, 837)]",[],[1],[0.75],horizontal,"(890.0, 762.0)",0.5,0.7,1,6242.721,1
0,766,target,"[(1039, 825)]",[],[1],[0.5666666666666667],vertical,"(890.0, 762.0)",0.9666666666666667,0.525,1,6249.017,1
0,767,target,"[(1037, 812)]",[],[1],[0.5],horizontal,"(890.0, 262.0)",0.5666666666666667,0.455,1,6253.806,1
0,768,target,"[(1039, 819)]",[],[1],[0.48333333333333334],horizontal,"(890.0, 262.0)",1.1833333333333333,0.448,1,6258.555,2
0,769,target,"[(1029, 831)]",[],[1],[0.3833333333333333],vertical,"(390.0, 762.0)",1.2833333333333332,0.343,1,6264.134,1
0,770,target,"[(1060, 824)]",[],[1],[0.4166666666666667],horizontal,"(890.0, 762.0)",1.3166666666666667,0.372,1,6269.435,1
0,771,target,"[(1060, 828)]",[],[1],[0.5666666666666667],horizontal,"(890.0, 262.0)",0.6166666666666667,0.533,1,6274.311,1
0,772,target,"[(1037, 812)]",[],[1],[0.3333333333333333],horizontal,"(390.0, 762.0)",1.1833333333333333,0.3,1,6278.674,3
0,773,target,"[(1060, 822)]",[],[1],[0.25],vertical,"(890.0, 762.0)",1.5166666666666666,0.218,1,6284.56,1
0,774,catch,"[(1064, 823)]",[],[1],[],horizontal,"(890.0, 762.0)",1.6333333333333333,nan,1,6289.649,1
0,775,target,"[(1039, 792)]",[],[1],[0.8333333333333334],horizontal,"(890.0, 762.0)",0.8666666666666667,0.786,1,6294.64,1
0,776,catch,"[(1036, 825)]",[],[1],[],horizontal,"(390.0, 262.0)",1.3833333333333333,nan,1,6299.319,2
0,777,target,"[(1065, 795)]",[],[1],[0.7166666666666667],vertical,"(890.0, 262.0)",0.9833333333333333,0.667,1,6304.267,1
0,778,catch,"[(1060, 803)]",[],[1],[],vertical,"(390.0, 262.0)",1.0166666666666666,nan,1,6309.067,1
0,779,target,"[(1040, 830)]",[],[1],[0.43333333333333335],vertical,"(390.0, 762.0)",1.05,0.393,1,6313.474,1
0,780,target,"[(1033, 880)]",[],[1],[0.85],vertical,"(390.0, 762.0)",1.4833333333333334,nan,0,6317.858,0
0,781,target,"[(1027, 827)]",[],[1],[0.85],horizontal,"(890.0, 262.0)",1.5,nan,0,11476.186,0
0,782,target,"[(1040, 821)]",[],[1],[0.5333333333333333],vertical,"(390.0, 762.0)",0.5,0.491,1,11481.654,1
0,783,target,"[(1054, 818)]",[],[1],[0.43333333333333335],vertical,"(390.0, 262.0)",1.05,0.394,1,11486.276,1
0,784,target,"[(1061, 812)]",[],[1],[0.6166666666666667],vertical,"(390.0, 762.0)",1.5333333333333332,0.581,1,11491.268,1
0,785,target,"[(1037, 815)]",[],[1],[0.4666666666666667],vertical,"(890.0, 762.0)",1.1,0.438,1,11496.448,2
0,786,target,"[(1075, 835)]",[],[1],[0.7166666666666667],vertical,"(890.0, 262.0)",1.1166666666666667,0.673,1,11502.022,1
0,787,target,"[(1077, 821)]",[],[1],[0.13333333333333333],horizontal,"(890.0, 262.0)",1.25,0.101,1,11507.004,1
0,788,target,"[(1040, 832)]",[],[1],[0.5],vertical,"(890.0, 762.0)",0.8,0.459,1,11511.7,1
0,789,target,"[(1064, 841)]",[],[1],[0.3833333333333333],horizontal,"(390.0, 262.0)",1.6,0.343,1,11516.417,3
0,790,target,"[(1064, 819)]",[],[1],[0.3833333333333333],horizontal,"(390.0, 262.0)",1.1,0.351,1,11522.588,1
0,791,target,"[(1039, 821)]",[],[1],[],vertical,"(390.0, 262.0)",,"('cti', 1.216)",0,11527.323,0
0,792,target,"[(1045, 797)]",[],[1],[0.85],horizontal,"(390.0, 762.0)",1.65,"('cti', 1.647),nan",0,11532.039,0
0,793,target,"[(1060, 838)]",[],[1],[],horizontal,"(390.0, 762.0)",,"('cti', 1.408)",0,11537.235,0
0,794,target,"[(1037, 818)]",[],[1],[0.48333333333333334],horizontal,"(890.0, 262.0)",1.2666666666666666,0.449,1,11541.617,1
0,795,target,"[(1057, 816)]",[],[1],[0.5],vertical,"(390.0, 262.0)",0.6166666666666667,0.459,1,11546.66,1
0,796,target,"[(1037, 837)]",[],[1],[0.55],vertical,"(390.0, 762.0)",1.1,0.508,1,11550.967,1
0,797,target,"[(1059, 821)]",[],[1],[0.26666666666666666],vertical,"(390.0, 262.0)",1.05,0.238,1,11556.649,2
0,798,target,"[(1060, 828)]",[],[1],[0.55],horizontal,"(390.0, 762.0)",0.9,0.512,1,11561.685,1
0,799,target,"[(1069, 822)]",[],[1],[0.4666666666666667],horizontal,"(890.0, 262.0)",1.0666666666666667,0.425,1,11566.382,1
0,800,target,"[(1083, 807)]",[],[1],[0.7833333333333333],vertical,"(390.0, 762.0)",0.65,0.739,1,11571.118,1
0,801,target,"[(1064, 819)]",[],[1],[],vertical,"(890.0, 262.0)",,"('cti', 1.302)",0,11575.683,0
0,802,catch,"[(1064, 800)]",[],[1],[],horizontal,"(390.0, 762.0)",1.3,nan,1,11580.368,1
0,803,target,"[(1061, 825)]",[],[1],[0.6],vertical,"(390.0, 262.0)",0.6166666666666667,0.556,1,11585.051,1
0,804,catch,"[(1070, 824)]",[],[1],[],vertical,"(390.0, 762.0)",1.4333333333333333,nan,1,11589.322,1
0,805,target,"[(1044, 824)]",[],[1],[0.5333333333333333],vertical,"(390.0, 262.0)",0.9166666666666666,0.49,1,11593.749,2
0,806,target,"[(1060, 833)]",[],[1],[],vertical,"(390.0, 762.0)",,"('cti', 1.09)",0,11599.229,0
0,807,target,"[(1029, 858)]",[],[1],[0.4666666666666667],horizontal,"(890.0, 262.0)",0.85,0.437,1,11603.562,1
0,808,catch,"[(1039, 828)]",[],[1],[],horizontal,"(890.0, 262.0)",,"('cti', 1.317),nan",0,11621.301,0
0,809,target,"[(1026, 821)]",[],[1],[0.48333333333333334],horizontal,"(390.0, 762.0)",0.7,0.453,1,11626.264,1
0,810,target,"[(1035, 820)]",[],[1],[0.13333333333333333],horizontal,"(390.0, 762.0)",1.4666666666666666,0.102,1,11630.968,1
0,811,target,"[(1049, 824)]",[],[1],[0.5166666666666666],vertical,"(890.0, 762.0)",0.8166666666666667,0.477,1,11635.934,1
0,812,target,"[(1034, 810)]",[],[1],[0.5333333333333333],horizontal,"(390.0, 762.0)",0.8833333333333333,0.489,1,11640.44,2
0,813,catch,"[(1040, 819)]",[],[1],[],vertical,"(890.0, 262.0)",1.0,nan,1,11645.504,1
0,814,target,"[(1033, 817)]",[],[1],[0.5333333333333333],horizontal,"(390.0, 762.0)",0.55,0.495,1,11649.751,1
0,815,target,"[(1059, 818)]",[],[1],[0.45],horizontal,"(390.0, 762.0)",1.5833333333333333,0.408,1,11654.335,1
0,816,target,"[(1041, 828)]",[],[1],[0.55],vertical,"(390.0, 762.0)",1.0,0.514,1,11659.951,3
0,817,target,"[(1068, 781)]",[],[1],[0.43333333333333335],vertical,"(890.0, 262.0)",0.5833333333333334,0.391,1,11665.402,1
0,818,target,"[(1056, 832)]",[],[1],[0.5333333333333333],vertical,"(890.0, 762.0)",1.0166666666666666,0.494,1,11669.56,1
0,819,target,"[(1048, 809)]",[],[1],[0.5333333333333333],vertical,"(890.0, 762.0)",1.15,0.488,1,11674.307,1
0,820,target,"[(1036, 812)]",[],[1],[0.3333333333333333],horizontal,"(390.0, 262.0)",1.2833333333333332,0.294,1,11678.893,2
0,821,target,"[(1056, 818)]",[],[1],[0.5166666666666666],vertical,"(890.0, 762.0)",0.6833333333333333,0.475,1,11683.94,1
0,822,target,"[(1060, 836)]",[],[1],[0.3],vertical,"(890.0, 762.0)",1.35,0.271,1,11688.317,1
0,823,catch,"[(1038, 798)]",[],[1],[],vertical,"(890.0, 262.0)",1.0666666666666667,nan,1,11692.934,1
0,824,target,"[(1058, 828)]",[],[1],[0.5],horizontal,"(390.0, 262.0)",1.0,0.457,1,11697.381,3
0,825,target,"[(1056, 817)]",[],[1],[0.3],vertical,"(890.0, 762.0)",1.3,0.264,1,11703.251,1
0,826,target,"[(1061, 820)]",[],[1],[0.21666666666666667],vertical,"(390.0, 262.0)",1.2,0.183,1,11708.088,1
0,827,target,"[(1058, 813)]",[],[1],[0.11666666666666667],vertical,"(890.0, 762.0)",1.3166666666666667,0.087,0,11713.202,0
0,828,target,"[(1037, 823)]",[],[1],[0.4666666666666667],horizontal,"(890.0, 262.0)",1.1833333333333333,0.433,1,11717.858,1
0,829,target,"[(1058, 829)]",[],[1],[0.5166666666666666],vertical,"(890.0, 762.0)",0.5,0.478,1,11723.218,1
0,830,target,"[(1075, 816)]",[],[1],[0.36666666666666664],vertical,"(890.0, 762.0)",1.15,0.326,1,11727.985,1
0,831,target,"[(1061, 822)]",[],[1],[0.48333333333333334],horizontal,"(890.0, 762.0)",0.5666666666666667,0.45,1,11733.092,2
0,832,target,"[(1060, 813)]",[],[1],[0.26666666666666666],horizontal,"(890.0, 762.0)",1.2833333333333332,0.233,1,11737.74,1
0,833,target,"[(1059, 807)]",[],[1],[0.5],horizontal,"(390.0, 262.0)",0.7,0.456,1,11742.552,1
0,834,target,"[(1043, 825)]",[],[1],[0.3],vertical,"(390.0, 262.0)",1.0,0.27,1,11747.327,1
0,835,target,"[(1040, 805)]",[],[1],[],vertical,"(390.0, 262.0)",,"('cti', 1.334)",0,11752.019,0
0,836,target,"[(1041, 825)]",[],[1],[0.5166666666666666],horizontal,"(890.0, 762.0)",1.25,0.477,1,11756.618,1
0,837,catch,"[(1060, 820)]",[],[1],[],vertical,"(390.0, 762.0)",1.0333333333333332,nan,1,11761.798,1
0,838,target,"[(1040, 815)]",[],[1],[0.5],horizontal,"(890.0, 262.0)",0.5666666666666667,0.459,1,11767.176,1
0,839,target,"[(1040, 831)]",[],[1],[0.5333333333333333],vertical,"(890.0, 762.0)",0.5166666666666666,0.497,1,11771.577,2
0,840,target,"[(1040, 824)]",[],[1],[0.45],vertical,"(890.0, 262.0)",0.7833333333333333,0.412,1,11776.711,1
0,841,target,"[(1055, 821)]",[],[1],[0.85],vertical,"(890.0, 262.0)",1.3166666666666667,nan,0,11782.018,0
0,842,target,"[(1037, 832)]",[],[1],[0.5333333333333333],vertical,"(890.0, 762.0)",0.7,0.488,1,11787.336,1
0,843,target,"[(1064, 823)]",[],[1],[0.23333333333333334],vertical,"(890.0, 262.0)",1.0333333333333332,0.199,1,11792.04,1
0,844,target,"[(1048, 811)]",[],[1],[],horizontal,"(890.0, 762.0)",,"('cti', 1.356)",0,11796.619,0
0,845,target,"[(1033, 845)]",[],[1],[0.65],vertical,"(890.0, 262.0)",0.7166666666666667,0.61,1,11801.219,1
0,846,target,"[(1040, 835)]",[],[1],[],horizontal,"(390.0, 262.0)",,"('cti', 1.404)",0,11853.454,0
0,847,target,"[(1038, 826)]",[],[1],[0.5833333333333334],horizontal,"(890.0, 262.0)",1.3166666666666667,0.54,1,11857.986,1
0,848,target,"[(1039, 814)]",[],[1],[0.5],vertical,"(390.0, 262.0)",0.55,0.459,1,11863.036,1
0,849,target,"[(1040, 821)]",[],[1],[],horizontal,"(390.0, 262.0)",,"('cti', 1.142)",0,11867.585,0
0,850,catch,"[(1051, 814)]",[],[1],[],horizontal,"(890.0, 262.0)",1.25,nan,1,11872.065,1
0,851,target,"[(1035, 829)]",[],[1],[0.6333333333333333],horizontal,"(890.0, 762.0)",0.7666666666666666,0.59,1,11876.906,1
0,852,target,"[(1037, 818)]",[],[1],[0.55],horizontal,"(890.0, 262.0)",0.5166666666666666,0.504,1,11881.413,1
0,853,target,"[(1037, 795)]",[],[1],[0.5666666666666667],horizontal,"(890.0, 762.0)",0.8166666666666667,0.529,1,11885.936,2
0,854,target,"[(1049, 818)]",[],[1],[0.5166666666666666],horizontal,"(890.0, 262.0)",0.65,0.475,1,11890.603,1
0,855,target,"[(1038, 819)]",[],[1],[0.05],vertical,"(890.0, 262.0)",1.3666666666666667,0.02,0,11895.051,0
0,856,target,"[(1056, 810)]",[],[1],[0.5333333333333333],horizontal,"(390.0, 762.0)",1.1333333333333333,0.502,1,11899.571,1
0,857,target,"[(1052, 812)]",[],[1],[0.5],horizontal,"(390.0, 262.0)",0.7666666666666666,0.463,1,11904.33,1
0,858,target,"[(1056, 819)]",[],[1],[0.5333333333333333],horizontal,"(390.0, 262.0)",0.7333333333333333,0.491,1,11908.786,1
0,859,target,"[(1039, 814)]",[],[1],[0.48333333333333334],horizontal,"(390.0, 762.0)",1.1,0.446,1,11913.302,2
0,860,target,"[(1047, 812)]",[],[1],[0.08333333333333333],horizontal,"(390.0, 262.0)",1.5333333333333332,0.052,0,11918.373,0
