block,trial,trial_type,taps_start_loc_during_fix,taps_end_loc_during_fix,taps_on_lever_during_fix,taps_on_lever_s_during_fix,bar_orientation,target_xy,cti,rt,acc,time,pulses
0,1,target,"[(1065, 898)]",[],[1],[0.3833333333333333],vertical,"(890.0, 762.0)",1.5166666666666666,0.344,1,0.058,1
0,2,target,"[(650, 513), (1153, 539), (632, 521), (536, 747), (485, 885), (825, 885), (811, 563), (655, 533), (1063, 809)]",[],"[0, 0, 0, 0, 0, 0, 0, 0, 1]",[0.21666666666666667],vertical,"(390.0, 262.0)",1.6833333333333333,0.181,0,198.026,0
0,3,catch,"[(1095, 807)]",[],[1],[],horizontal,"(390.0, 262.0)",1.4,nan,1,414.881,1
0,4,target,"[(1101, 796)]",[],[1],[0.4],vertical,"(890.0, 762.0)",0.7666666666666666,0.361,1,419.562,1
0,5,target,"[(1118, 810)]",[],[1],[0.5666666666666667],vertical,"(890.0, 762.0)",0.5166666666666666,0.53,1,424.319,1
0,6,target,"[(1079, 766)]",[],[1],[],vertical,"(390.0, 762.0)",,"('cti', 1.594)",0,429.281,0
0,7,target,"[(1105, 780)]",[],[1],[0.6333333333333333],vertical,"(390.0, 262.0)",0.7,0.59,1,433.773,1
0,8,catch,"[(1100, 755)]",[],[1],[],vertical,"(390.0, 262.0)",,"('cti', 1.516),nan",0,438.549,0
0,9,target,"[(1088, 760)]",[],[1],[0.6166666666666667],vertical,"(890.0, 262.0)",1.1666666666666667,0.575,1,442.982,1
0,10,target,"[(1084, 766)]",[],[1],[],horizontal,"(890.0, 262.0)",,"('cti', 1.575)",0,447.907,0
0,11,target,"[(1081, 788)]",[],[1],[],vertical,"(890.0, 262.0)",,"('cti', 1.325)",0,452.429,0
0,12,target,"[(1082, 789)]",[],[1],[0.6333333333333333],vertical,"(890.0, 262.0)",1.2,0.586,1,456.949,1
0,13,target,"[(1071, 842)]",[],[1],[0.5166666666666666],vertical,"(390.0, 762.0)",1.5333333333333332,0.478,1,461.916,1
0,14,target,"[(1108, 740), (1081, 780)]",[],"[0, 1]",[0.45],horizontal,"(390.0, 262.0)",1.45,0.423,1,475.227,1
0,15,target,"[(1107, 785)]",[],[1],[],horizontal,"(390.0, 762.0)",,"('cti', 1.444)",0,481.8,0
0,16,target,"[(1129, 758)]",[],[1],[0.45],vertical,"(390.0, 762.0)",1.6333333333333333,0.411,1,486.626,1
0,17,target,"[(1092, 765)]",[],[1],[0.2],vertical,"(890.0, 762.0)",1.3666666666666667,0.166,0,491.848,0
0,18,catch,"[(1126, 789)]",[],[1],[],vertical,"(890.0, 262.0)",,"('cti', 1.566),nan",0,496.733,0
0,19,target,"[(1071, 815)]",[],[1],[0.6166666666666667],horizontal,"(890.0, 262.0)",0.5833333333333334,0.577,1,501.465,1
0,20,target,"[(1081, 780)]",[],[1],[0.18333333333333332],horizontal,"(890.0, 762.0)",1.3166666666666667,0.15,0,505.86,0
0,21,target,"[(1114, 781)]",[],[1],[0.6],vertical,"(890.0, 762.0)",0.7166666666666667,0.553,1,510.337,1
0,22,target,"[(1110, 766)]",[],[1],[0.3333333333333333],horizontal,"(390.0, 762.0)",1.6833333333333333,0.294,1,514.965,1
0,23,target,"[(1075, 785)]",[],[1],[0.13333333333333333],horizontal,"(390.0, 762.0)",1.5666666666666667,0.099,0,519.946,0
0,24,target,"[(1083, 782)]",[],[1],[0.6833333333333333],horizontal,"(390.0, 762.0)",0.5,0.642,1,524.61,1
0,25,target,"[(1076, 782)]",[],[1],[0.5833333333333334],vertical,"(890.0, 262.0)",0.95,0.543,1,528.715,1
0,26,target,"[(1134, 766)]",[],[1],[0.5166666666666666],vertical,"(890.0, 262.0)",0.5333333333333333,0.474,1,533.597,1
0,27,target,"[(1096, 783)]",[],[1],[0.2],horizontal,"(890.0, 762.0)",1.3,0.172,0,537.86,0
0,28,target,"[(1101, 788)]",[],[1],[0.25],horizontal,"(890.0, 262.0)",1.1833333333333333,0.213,1,542.349,1
0,29,target,"[(1109, 758)]",[],[1],[0.26666666666666666],vertical,"(890.0, 262.0)",1.5,0.228,1,547.071,1
0,30,target,"[(1105, 781)]",[],[1],[0.5166666666666666],horizontal,"(390.0, 762.0)",1.1166666666666667,0.477,1,551.599,1
0,31,target,"[(1127, 786)]",[],[1],[0.31666666666666665],horizontal,"(390.0, 262.0)",1.2833333333333332,0.28,1,556.399,2
0,32,target,"[(1110, 784)]",[],[1],[0.21666666666666667],horizontal,"(890.0, 762.0)",1.2833333333333332,0.183,0,562.083,0
0,33,target,"[(1105, 782)]",[],[1],[0.6833333333333333],vertical,"(390.0, 262.0)",0.9166666666666666,0.647,1,566.527,1
0,34,target,"[(1071, 767)]",[],[1],[0.8333333333333334],horizontal,"(390.0, 762.0)",0.85,0.794,1,571.15,1
0,35,target,"[(1115, 793)]",[],[1],[0.45],vertical,"(890.0, 762.0)",1.6833333333333333,0.411,1,576.033,1
0,36,target,"[(1084, 771)]",[],[1],[0.75],horizontal,"(390.0, 762.0)",0.8333333333333334,0.713,1,581.583,2
0,37,target,"[(1107, 781)]",[],[1],[0.85],vertical,"(890.0, 762.0)",1.6333333333333333,"('cti', 1.627),nan",0,587.443,0
0,38,target,"[(1096, 783)]",[],[1],[0.5333333333333333],horizontal,"(890.0, 262.0)",0.8166666666666667,0.494,1,592.953,1
0,39,target,"[(1074, 776)]",[],[1],[0.5833333333333334],vertical,"(890.0, 762.0)",1.1,0.539,1,597.55,1
0,40,target,"[(1095, 783)]",[],[1],[0.55],vertical,"(390.0, 262.0)",1.1,0.511,1,602.783,1
0,41,target,"[(1098, 781)]",[],[1],[0.5333333333333333],vertical,"(890.0, 262.0)",0.6666666666666666,0.487,1,607.649,2
0,42,catch,"[(1108, 788)]",[],[1],[],horizontal,"(390.0, 262.0)",,"('cti', 1.033),nan",0,612.37,0
0,43,target,"[(1108, 786)]",[],[1],[0.5333333333333333],horizontal,"(390.0, 262.0)",0.5333333333333333,0.497,1,616.251,1
0,44,target,"[(1128, 787)]",[],[1],[0.5833333333333334],horizontal,"(390.0, 262.0)",0.55,0.539,1,620.639,1
0,45,target,"[(1072, 790)]",[],[1],[],vertical,"(890.0, 762.0)",,"('cti', 1.505)",0,625.186,0
0,46,target,"[(1071, 774)]",[],[1],[0.6833333333333333],horizontal,"(890.0, 262.0)",0.6333333333333333,0.64,1,629.879,1
0,47,catch,"[(1125, 784)]",[],[1],[],vertical,"(390.0, 762.0)",1.5833333333333333,nan,1,634.584,1
0,48,target,"[(1105, 786)]",[],[1],[0.55],horizontal,"(890.0, 762.0)",0.5666666666666667,0.509,1,639.817,1
0,49,target,"[(1110, 786)]",[],[1],[0.5833333333333334],vertical,"(390.0, 262.0)",1.2666666666666666,0.542,1,644.037,2
0,50,target,"[(1121, 776)]",[],[1],[0.4166666666666667],vertical,"(890.0, 762.0)",1.0666666666666667,0.378,1,649.414,2
0,51,target,"[(1103, 785)]",[],[1],[0.13333333333333333],vertical,"(890.0, 762.0)",1.5833333333333333,0.099,0,654.683,0
0,52,target,"[(1084, 785)]",[],[1],[0.5],horizontal,"(890.0, 262.0)",0.75,0.465,1,659.1,1
0,53,target,"[(1107, 781)]",[],[1],[],vertical,"(390.0, 762.0)",,"('cti', 1.131)",0,663.699,0
0,54,target,"[(1077, 784)]",[],[1],[0.16666666666666666],vertical,"(890.0, 762.0)",1.3833333333333333,0.135,0,667.816,0
0,55,target,"[(1076, 774)]",[],[1],[0.6],horizontal,"(390.0, 762.0)",0.8666666666666667,0.564,1,672.784,1
0,56,target,"[(1081, 773)]",[],[1],[0.1],horizontal,"(890.0, 262.0)",1.55,0.07,0,677.565,0
0,57,target,"[(1075, 788)]",[],[1],[0.5833333333333334],horizontal,"(390.0, 762.0)",0.8166666666666667,0.547,1,682.051,1
0,58,target,"[(1102, 769)]",[],[1],[0.18333333333333332],vertical,"(890.0, 262.0)",1.5,0.153,0,687.201,0
0,59,target,"[(1066, 781)]",[],[1],[0.26666666666666666],vertical,"(390.0, 762.0)",1.6333333333333333,0.23,1,691.601,1
0,60,target,"[(1108, 781)]",[],[1],[0.45],vertical,"(390.0, 262.0)",1.4,0.41,1,697.021,1
0,61,target,"[(1105, 776)]",[],[1],[0.43333333333333335],horizontal,"(890.0, 762.0)",1.05,0.394,1,701.783,1
0,62,target,"[(1105, 781)]",[],[1],[0.5166666666666666],vertical,"(390.0, 262.0)",0.6333333333333333,0.473,1,706.416,2
0,63,catch,"[(1104, 790)]",[],[1],[],horizontal,"(890.0, 762.0)",1.4,nan,1,711.617,2
0,64,target,"[(1119, 787)]",[],[1],[0.5166666666666666],vertical,"(890.0, 262.0)",0.6666666666666666,0.476,1,716.735,2
0,65,target,"[(1128, 792)]",[],[1],[0.2],horizontal,"(890.0, 262.0)",1.2166666666666666,0.167,0,721.701,0
0,66,catch,"[(1107, 780)]",[],[1],[],vertical,"(390.0, 762.0)",,"('cti', 1.557),nan",0,726.318,0
0,67,target,"[(1106, 788)]",[],[1],[0.6],vertical,"(390.0, 762.0)",0.8333333333333334,0.559,1,730.884,1
0,68,target,"[(1084, 776)]",[],[1],[0.15],horizontal,"(890.0, 762.0)",1.05,0.12,0,735.933,0
0,69,target,"[(1109, 776)]",[],[1],[0.6],vertical,"(890.0, 762.0)",0.6,0.56,1,740.084,1
0,70,target,"[(1106, 793)]",[],[1],[0.4666666666666667],vertical,"(390.0, 762.0)",1.35,0.429,1,744.407,1
0,71,target,"[(1107, 779)]",[],[1],[],vertical,"(390.0, 262.0)",,"('cti', 1.57)",0,749.465,0
0,72,target,"[(1110, 757)]",[],[1],[0.48333333333333334],vertical,"(890.0, 762.0)",1.3,0.443,1,754.226,1
0,73,target,"[(1113, 791)]",[],[1],[0.45],horizontal,"(390.0, 762.0)",0.6833333333333333,0.413,1,759.211,1
0,74,target,"[(1081, 778)]",[],[1],[0.3833333333333333],horizontal,"(390.0, 762.0)",1.1,0.341,1,763.441,1
0,75,target,"[(1106, 778)]",[],[1],[0.4166666666666667],horizontal,"(390.0, 262.0)",1.2166666666666666,0.38,1,768.531,2
0,76,target,"[(1113, 786)]",[],[1],[0.31666666666666665],vertical,"(390.0, 262.0)",1.3,0.278,1,774.279,2
0,77,catch,"[(1107, 784)]",[],[1],[],horizontal,"(890.0, 762.0)",,"('cti', 1.452),nan",0,779.786,0
0,78,target,"[(1072, 780)]",[],[1],[0.65],horizontal,"(390.0, 762.0)",0.95,0.619,1,784.268,1
0,79,target,"[(1105, 764)]",[],[1],[0.11666666666666667],horizontal,"(390.0, 262.0)",1.5,0.084,0,789.535,0
0,80,target,"[(1054, 789)]",[],[1],[0.7166666666666667],vertical,"(390.0, 762.0)",1.05,0.672,1,794.217,1
0,81,target,"[(1109, 787)]",[],[1],[0.55],vertical,"(390.0, 762.0)",0.6,0.517,1,803.139,1
0,82,target,"[(1078, 782)]",[],[1],[0.7333333333333333],vertical,"(890.0, 762.0)",0.9,0.684,1,807.652,1
0,83,catch,"[(1100, 788)]",[],[1],[0.03333333333333333],vertical,"(390.0, 262.0)",1.55,"0.019,nan",0,812.552,0
0,84,target,"[(1081, 756)]",[],[1],[0.85],vertical,"(390.0, 262.0)",0.7,nan,0,817.502,0
0,85,target,"[(1080, 784)]",[],[1],[0.31666666666666665],horizontal,"(890.0, 762.0)",1.5166666666666666,0.284,1,822.032,1
0,86,target,"[(1104, 776)]",[],[1],[0.55],vertical,"(890.0, 262.0)",1.0,0.506,1,827.252,1
0,87,target,"[(1088, 770)]",[],[1],[0.55],vertical,"(390.0, 762.0)",1.0333333333333332,0.51,1,832.344,1
0,88,target,"[(1082, 784)]",[],[1],[0.5333333333333333],horizontal,"(890.0, 262.0)",0.7666666666666666,0.493,1,837.627,2
0,89,target,"[(1123, 786)]",[],[1],[0.5666666666666667],vertical,"(890.0, 762.0)",0.85,0.523,1,842.92,2
0,90,target,"[(1098, 772)]",[],[1],[0.5333333333333333],horizontal,"(890.0, 762.0)",1.0666666666666667,0.495,1,847.953,2
0,91,target,"[(1109, 798)]",[],[1],[0.5833333333333334],horizontal,"(390.0, 262.0)",0.5666666666666667,0.541,1,853.267,2
0,92,target,"[(1124, 796)]",[],[1],[0.5166666666666666],vertical,"(390.0, 762.0)",1.4166666666666667,0.477,1,858.235,2
0,93,target,"[(1105, 788)]",[],[1],[0.55],vertical,"(890.0, 762.0)",1.1666666666666667,0.512,1,864.32,3
0,94,target,"[(1096, 784)]",[],[1],[0.5666666666666667],horizontal,"(890.0, 262.0)",1.1166666666666667,0.523,1,869.733,3
0,95,target,"[(1082, 786)]",[],[1],[0.21666666666666667],vertical,"(890.0, 762.0)",1.4333333333333333,0.184,0,875.147,0
0,96,target,"[(1082, 781)]",[],[1],[0.65],horizontal,"(390.0, 262.0)",1.6166666666666667,0.609,1,880.069,1
0,97,target,"[(1105, 768)]",[],[1],[0.6166666666666667],vertical,"(890.0, 262.0)",1.0166666666666666,0.573,1,885.469,1
0,98,target,"[(1118, 791)]",[],[1],[0.18333333333333332],vertical,"(890.0, 262.0)",1.5166666666666666,0.15,0,890.735,0
0,99,target,"[(1082, 790)]",[],[1],[0.16666666666666666],vertical,"(890.0, 262.0)",1.5333333333333332,0.136,0,895.635,0
0,100,target,"[(1104, 781)]",[],[1],[0.85],vertical,"(890.0, 762.0)",1.1833333333333333,nan,0,900.705,0
0,101,target,"[(1066, 764)]",[],[1],[0.5833333333333334],vertical,"(890.0, 762.0)",0.7166666666666667,0.542,1,905.685,1
0,102,target,"[(1106, 782)]",[],[1],[0.5333333333333333],vertical,"(890.0, 762.0)",1.1166666666666667,0.493,1,910.735,1
0,103,target,"[(1107, 777)]",[],[1],[0.6833333333333333],vertical,"(890.0, 262.0)",0.6333333333333333,0.638,1,916.086,1
0,104,target,"[(1099, 796)]",[],[1],[0.6666666666666666],horizontal,"(390.0, 262.0)",0.5166666666666666,0.624,1,920.551,2
0,105,target,"[(1128, 787)]",[],[1],[0.7166666666666667],horizontal,"(390.0, 262.0)",0.5,0.671,1,925.61,2
0,106,target,"[(1106, 774)]",[],[1],[0.6833333333333333],horizontal,"(390.0, 762.0)",0.8666666666666667,0.645,1,930.368,2
0,107,catch,"[(1081, 788)]",[],[1],[],horizontal,"(890.0, 262.0)",1.45,nan,1,935.478,2
0,108,target,"[(1076, 786)]",[],[1],[0.6333333333333333],horizontal,"(390.0, 262.0)",0.5666666666666667,0.586,1,941.026,2
0,109,target,"[(1106, 781)]",[],[1],[0.6833333333333333],horizontal,"(390.0, 262.0)",0.8,0.643,1,945.887,3
0,110,target,"[(1103, 768)]",[],[1],[0.6166666666666667],vertical,"(390.0, 262.0)",0.8166666666666667,0.576,1,951.284,3
0,111,target,"[(1128, 776)]",[],[1],[0.6166666666666667],horizontal,"(390.0, 762.0)",0.9666666666666667,0.587,1,956.985,3
0,112,target,"[(1105, 781)]",[],[1],[0.43333333333333335],vertical,"(390.0, 762.0)",1.5833333333333333,0.393,1,962.911,3
0,113,target,"[(1105, 791)]",[],[1],[0.85],vertical,"(390.0, 262.0)",0.9666666666666667,nan,0,969.019,0
0,114,target,"[(1077, 770)]",[],[1],[0.85],horizontal,"(890.0, 262.0)",0.7666666666666666,nan,0,974.176,0
0,115,target,"[(1075, 780)]",[],[1],[0.11666666666666667],vertical,"(390.0, 762.0)",1.5833333333333333,0.083,0,978.468,0
0,116,target,"[(1081, 787)]",[],[1],[0.5333333333333333],vertical,"(890.0, 762.0)",1.65,0.494,1,983.535,1
0,117,target,"[(1109, 781)]",[],[1],[0.5333333333333333],horizontal,"(390.0, 762.0)",1.1333333333333333,0.492,1,989.236,1
0,118,target,"[(1107, 782)]",[],[1],[0.7166666666666667],vertical,"(390.0, 262.0)",0.9833333333333333,0.67,1,994.143,1
0,119,target,"[(1101, 764)]",[],[1],[0.3333333333333333],vertical,"(390.0, 762.0)",1.4166666666666667,0.297,1,999.252,2
0,120,target,"[(1106, 782)]",[],[1],[0.31666666666666665],vertical,"(890.0, 762.0)",1.2666666666666666,0.275,1,1005.05,2
0,121,target,"[(1103, 785)]",[],[1],[0.5666666666666667],horizontal,"(390.0, 762.0)",0.8,0.524,1,1010.66,2
0,122,target,"[(1077, 783)]",[],[1],[0.85],vertical,"(890.0, 262.0)",1.6333333333333333,"('cti', 1.618),nan",0,1015.348,0
0,123,target,"[(1100, 790)]",[],[1],[0.5666666666666667],vertical,"(890.0, 762.0)",1.1666666666666667,0.522,1,1020.841,1
0,124,target,"[(1079, 776)]",[],[1],[0.7333333333333333],horizontal,"(390.0, 262.0)",1.4,0.687,1,1025.935,1
0,125,target,"[(1062, 811)]",[],[1],[0.06666666666666667],horizontal,"(890.0, 262.0)",1.4666666666666666,0.035,0,1031.622,0
0,126,target,"[(1059, 820)]",[],[1],[0.5166666666666666],horizontal,"(890.0, 762.0)",1.15,0.477,1,1044.485,1
0,127,target,"[(1110, 799)]",[],[1],[0.7],horizontal,"(390.0, 762.0)",0.7166666666666667,0.65,1,1080.405,1
0,128,target,"[(1096, 791)]",[],[1],[0.6333333333333333],vertical,"(890.0, 762.0)",0.5333333333333333,0.588,1,1084.733,1
0,129,catch,"[(1108, 797)]",[],[1],[],vertical,"(390.0, 262.0)",1.4,nan,1,1089.434,2
0,130,target,"[(1116, 796)]",[],[1],[0.35],horizontal,"(390.0, 262.0)",1.4333333333333333,0.308,1,1094.72,2
0,131,target,"[(1109, 791)]",[],[1],[0.5666666666666667],vertical,"(890.0, 762.0)",0.6833333333333333,0.519,1,1100.26,2
0,132,target,"[(1105, 776)]",[],[1],[0.5333333333333333],horizontal,"(890.0, 762.0)",0.8833333333333333,0.488,1,1104.755,2
0,133,target,"[(1109, 786)]",[],[1],[0.7666666666666666],vertical,"(390.0, 762.0)",0.5166666666666666,0.722,1,1110.141,2
0,134,target,"[(1096, 790)]",[],[1],[0.6666666666666666],horizontal,"(390.0, 762.0)",1.0833333333333333,0.619,1,1115.103,3
0,135,target,"[(1100, 782)]",[],[1],[0.5666666666666667],vertical,"(890.0, 762.0)",0.5333333333333333,0.519,1,1120.752,3
0,136,target,"[(1103, 764)]",[],[1],[0.5666666666666667],horizontal,"(390.0, 762.0)",0.6166666666666667,0.523,1,1126.276,3
0,137,target,"[(1104, 787)]",[],[1],[0.5166666666666666],vertical,"(890.0, 762.0)",1.3666666666666667,0.472,1,1131.97,3
0,138,target,"[(1100, 788)]",[],[1],[0.5],vertical,"(390.0, 262.0)",0.5,0.469,1,1137.726,3
0,139,target,"[(1115, 787)]",[],[1],[0.5166666666666666],horizontal,"(390.0, 262.0)",1.0666666666666667,0.476,1,1142.769,3
0,140,target,"[(1074, 786)]",[],[1],[0.4166666666666667],vertical,"(890.0, 762.0)",1.1166666666666667,0.374,1,1148.352,3
0,141,target,"[(1105, 786)]",[],[1],[0.5666666666666667],vertical,"(890.0, 762.0)",0.5333333333333333,0.523,1,1153.936,3
0,142,target,"[(1071, 808)]",[],[1],[0.55],horizontal,"(390.0, 762.0)",0.9833333333333333,0.51,1,1159.419,3
0,143,catch,"[(1101, 772)]",[],[1],[],horizontal,"(390.0, 762.0)",1.45,nan,1,1166.67,3
0,144,catch,"[(1110, 774)]",[],[1],[],horizontal,"(890.0, 762.0)",,"('cti', 1.444),nan",0,1172.469,0
0,145,target,"[(1095, 820)]",[],[1],[0.4666666666666667],vertical,"(390.0, 262.0)",1.1166666666666667,0.427,1,1177.069,1
0,146,catch,"[(1073, 781)]",[],[1],[],horizontal,"(890.0, 762.0)",,"('cti', 1.405),nan",0,1441.004,0
0,147,target,"[(1075, 789)]",[],[1],[0.5833333333333334],horizontal,"(890.0, 762.0)",1.0333333333333332,0.543,1,1445.684,1
0,148,target,"[(1109, 792)]",[],[1],[0.7166666666666667],horizontal,"(890.0, 262.0)",0.95,0.67,1,1450.437,1
0,149,target,"[(1100, 775)]",[],[1],[0.3],horizontal,"(390.0, 262.0)",1.4,0.263,1,1455.055,1
0,150,target,"[(1110, 802)]",[],[1],[0.5833333333333334],horizontal,"(890.0, 262.0)",1.0166666666666666,0.544,1,1459.754,2
0,151,catch,"[(1126, 785)]",[],[1],[],vertical,"(890.0, 762.0)",,"('cti', 1.505),nan",0,1465.179,0
0,152,target,"[(1107, 781)]",[],[1],[0.05],vertical,"(890.0, 762.0)",1.6833333333333333,0.019,0,1469.904,0
0,153,target,"[(1114, 783)]",[],[1],[0.45],horizontal,"(890.0, 762.0)",1.35,0.414,1,1474.722,1
0,154,target,"[(1102, 789)]",[],[1],[0.6],vertical,"(890.0, 762.0)",1.05,0.556,1,1479.953,1
0,155,target,"[(1111, 794)]",[],[1],[0.5333333333333333],horizontal,"(890.0, 762.0)",0.8833333333333333,0.492,1,1484.534,1
0,156,target,"[(1114, 787)]",[],[1],[],horizontal,"(390.0, 262.0)",,"('cti', 1.129)",0,1489.171,0
0,157,target,"[(1079, 788)]",[],[1],[0.5166666666666666],horizontal,"(890.0, 262.0)",0.9166666666666666,0.475,1,1493.337,1
0,158,target,"[(1110, 785)]",[],[1],[],horizontal,"(890.0, 262.0)",,"('cti', 1.129)",0,1497.672,0
0,159,target,"[(1130, 774)]",[],[1],[0.31666666666666665],vertical,"(890.0, 262.0)",1.3333333333333333,0.278,1,1502.292,1
0,160,target,"[(1105, 786)]",[],[1],[0.2833333333333333],horizontal,"(890.0, 762.0)",1.4166666666666667,0.245,1,1507.371,1
0,161,target,"[(1098, 787)]",[],[1],[0.5333333333333333],horizontal,"(390.0, 262.0)",0.8833333333333333,0.492,1,1512.12,1
0,162,target,"[(1102, 803)]",[],[1],[0.4666666666666667],vertical,"(890.0, 762.0)",1.2,0.427,1,1517.039,2
0,163,target,"[(1112, 781)]",[],[1],[0.4],vertical,"(390.0, 762.0)",1.35,0.364,1,1522.538,2
0,164,target,"[(1105, 773)]",[],[1],[0.26666666666666666],vertical,"(390.0, 262.0)",1.3333333333333333,0.233,1,1527.965,2
0,165,target,"[(1117, 781)]",[],[1],[0.6833333333333333],vertical,"(390.0, 262.0)",1.0333333333333332,0.645,1,1533.554,2
0,166,target,"[(1100, 786)]",[],[1],[0.7],vertical,"(890.0, 262.0)",0.6,0.663,1,1538.838,2
0,167,target,"[(1105, 796)]",[],[1],[],vertical,"(390.0, 762.0)",,"('cti', 1.635)",0,1543.898,0
0,168,target,"[(1102, 789)]",[],[1],[0.16666666666666666],vertical,"(890.0, 262.0)",1.6166666666666667,0.134,0,1548.546,0
0,169,target,"[(1081, 797)]",[],[1],[0.55],vertical,"(890.0, 262.0)",0.9333333333333333,0.509,1,1552.955,1
0,170,target,"[(1108, 787)]",[],[1],[0.06666666666666667],horizontal,"(390.0, 262.0)",1.5833333333333333,0.037,0,1557.566,0
0,171,target,"[(1115, 786)]",[],[1],[0.45],horizontal,"(390.0, 762.0)",1.2333333333333334,0.409,1,1562.11,1
0,172,target,"[(1108, 784)]",[],[1],[0.5333333333333333],vertical,"(890.0, 262.0)",0.8166666666666667,0.491,1,1566.992,1
0,173,target,"[(1125, 790)]",[],[1],[0.35],vertical,"(890.0, 262.0)",1.6666666666666667,0.316,1,1571.822,1
0,174,target,"[(1128, 781)]",[],[1],[0.85],vertical,"(390.0, 262.0)",0.8,nan,0,1577.071,0
0,175,target,"[(1120, 791)]",[],[1],[],horizontal,"(390.0, 262.0)",,"('cti', 1.101)",0,1581.42,0
0,176,target,"[(1106, 783)]",[],[1],[0.65],horizontal,"(390.0, 262.0)",0.9833333333333333,0.611,1,1585.489,1
0,177,target,"[(1082, 795)]",[],[1],[0.6333333333333333],vertical,"(390.0, 262.0)",1.1166666666666667,0.591,1,1590.639,1
0,178,target,"[(1091, 781)]",[],[1],[0.16666666666666666],horizontal,"(390.0, 262.0)",1.5166666666666666,0.133,0,1595.553,0
0,179,target,"[(1112, 791)]",[],[1],[0.45],vertical,"(890.0, 262.0)",1.2166666666666666,0.414,1,1600.322,1
0,180,target,"[(1128, 768)]",[],[1],[0.45],vertical,"(890.0, 762.0)",1.2833333333333332,0.418,1,1605.321,1
0,181,target,"[(1130, 793)]",[],[1],[0.6],vertical,"(390.0, 762.0)",0.8666666666666667,0.558,1,1610.379,1
0,182,target,"[(1105, 782)]",[],[1],[0.5],horizontal,"(390.0, 262.0)",1.2666666666666666,0.462,1,1615.514,2
0,183,catch,"[(1105, 781)]",[],[1],[],vertical,"(890.0, 762.0)",,"('cti', 1.563),nan",0,1621.151,0
0,184,target,"[(1107, 765)]",[],[1],[0.5833333333333334],vertical,"(390.0, 762.0)",0.9333333333333333,0.54,1,1625.898,1
0,185,target,"[(1112, 761)]",[],[1],[],horizontal,"(890.0, 262.0)",,"('cti', 1.201)",0,1630.742,0
0,186,target,"[(1105, 789)]",[],[1],[0.5333333333333333],vertical,"(890.0, 262.0)",1.2,0.488,1,1635.264,1
0,187,catch,"[(1107, 774)]",[],[1],[],vertical,"(890.0, 262.0)",1.4,nan,1,1640.392,1
0,188,target,"[(1114, 781)]",[],[1],[0.6166666666666667],horizontal,"(890.0, 762.0)",1.0,0.572,1,1645.438,1
0,189,target,"[(1128, 787)]",[],[1],[0.6166666666666667],vertical,"(890.0, 262.0)",0.6333333333333333,0.575,1,1650.653,2
0,190,target,"[(1134, 782)]",[],[1],[0.6166666666666667],vertical,"(390.0, 262.0)",1.0833333333333333,0.567,1,1655.656,2
0,191,target,"[(1107, 786)]",[],[1],[0.23333333333333334],vertical,"(890.0, 262.0)",1.5166666666666666,0.198,0,1660.988,0
0,192,target,"[(1105, 787)]",[],[1],[0.36666666666666664],horizontal,"(890.0, 262.0)",1.5,0.325,1,1665.338,1
0,193,target,"[(1077, 768)]",[],[1],[0.4],vertical,"(890.0, 762.0)",1.2833333333333332,0.362,1,1670.205,1
0,194,target,"[(1104, 762)]",[],[1],[0.5333333333333333],vertical,"(390.0, 762.0)",1.0333333333333332,0.493,1,1674.989,1
0,195,target,"[(1145, 799)]",[],[1],[0.6166666666666667],horizontal,"(890.0, 262.0)",0.5,0.577,1,1679.687,2
0,196,target,"[(1103, 783)]",[],[1],[0.2],horizontal,"(890.0, 262.0)",1.4666666666666666,0.169,0,1684.806,0
0,197,target,"[(1113, 786)]",[],[1],[0.6166666666666667],vertical,"(390.0, 762.0)",0.6166666666666667,0.582,1,1689.294,1
0,198,target,"[(1092, 776)]",[],[1],[0.6],horizontal,"(890.0, 762.0)",0.9,0.559,1,1693.591,1
0,199,target,"[(1116, 788)]",[],[1],[0.85],vertical,"(390.0, 262.0)",0.7833333333333333,nan,0,1698.055,0
0,200,target,"[(1100, 790)]",[],[1],[0.6],vertical,"(390.0, 262.0)",0.6833333333333333,0.556,1,1702.705,1
0,201,target,"[(1107, 791)]",[],[1],[0.65],horizontal,"(890.0, 762.0)",0.5833333333333334,0.602,1,1707.705,1
0,202,target,"[(1096, 788)]",[],[1],[0.5166666666666666],horizontal,"(390.0, 262.0)",1.1333333333333333,0.476,1,1712.335,1
0,203,target,"[(1086, 787)]",[],[1],[0.6],horizontal,"(890.0, 762.0)",0.6833333333333333,0.558,1,1717.54,2
0,204,target,"[(1137, 780)]",[],[1],[0.18333333333333332],vertical,"(390.0, 262.0)",1.4833333333333334,0.15,0,1722.838,0
0,205,target,"[(1111, 772)]",[],[1],[0.6333333333333333],horizontal,"(390.0, 262.0)",0.85,0.595,1,1727.205,1
0,206,target,"[(1134, 742), (1081, 786)]",[],"[0, 1]",[0.85],vertical,"(390.0, 762.0)",1.1666666666666667,nan,0,1731.867,0
0,207,target,"[(1099, 789)]",[],[1],[0.85],horizontal,"(390.0, 262.0)",0.7666666666666666,nan,0,1737.572,0
0,208,target,"[(1086, 789)]",[],[1],[0.6833333333333333],vertical,"(390.0, 762.0)",0.5,0.642,1,1742.322,1
0,209,target,"[(1109, 760)]",[],[1],[0.06666666666666667],vertical,"(390.0, 762.0)",1.5333333333333332,0.035,0,1746.89,0
0,210,target,"[(1109, 776)]",[],[1],[0.35],horizontal,"(390.0, 262.0)",1.5166666666666666,0.313,1,1751.54,1
0,211,catch,"[(1103, 764)]",[],[1],[],horizontal,"(390.0, 762.0)",1.55,nan,1,1756.507,1
0,212,target,"[(1105, 787)]",[],[1],[0.6],horizontal,"(890.0, 762.0)",0.8833333333333333,0.562,1,1761.5,1
0,213,catch,"[(1131, 771)]",[],[1],[],vertical,"(890.0, 262.0)",1.6666666666666667,"('cti', 1.674),nan",0,1766.517,0
0,214,target,"[(1133, 748), (1079, 805)]",[],"[0, 1]",[0.3333333333333333],vertical,"(890.0, 762.0)",1.3666666666666667,0.297,1,1771.217,1
0,215,target,"[(1110, 774)]",[],[1],[0.85],horizontal,"(390.0, 762.0)",0.6333333333333333,nan,0,1777.683,0
0,216,target,"[(1077, 770)]",[],[1],[0.5666666666666667],vertical,"(390.0, 262.0)",1.2666666666666666,0.529,1,1782.266,1
0,217,target,"[(1103, 766)]",[],[1],[0.6],vertical,"(390.0, 262.0)",0.65,0.559,1,1787.555,1
0,218,target,"[(1082, 786)]",[],[1],[0.43333333333333335],vertical,"(890.0, 262.0)",1.5166666666666666,0.399,1,1792.522,1
0,219,target,"[(1108, 768)]",[],[1],[0.5666666666666667],vertical,"(390.0, 762.0)",0.95,0.542,1,1797.589,2
0,220,target,"[(1104, 798)]",[],[1],[0.6666666666666666],horizontal,"(890.0, 262.0)",0.5666666666666667,0.623,1,1802.393,2
0,221,target,"[(1108, 783)]",[],[1],[0.6166666666666667],horizontal,"(390.0, 262.0)",0.5333333333333333,0.584,1,1806.991,2
0,222,target,"[(1110, 772)]",[],[1],[0.3],vertical,"(890.0, 262.0)",1.5166666666666666,0.268,1,1812.121,2
0,223,target,"[(1110, 769)]",[],[1],[0.2833333333333333],vertical,"(390.0, 762.0)",1.5,0.245,1,1817.22,2
0,224,target,"[(1083, 786)]",[],[1],[0.85],vertical,"(390.0, 762.0)",0.5333333333333333,nan,0,1823.124,0
0,225,target,"[(1083, 791)]",[],[1],[0.4166666666666667],vertical,"(890.0, 262.0)",1.3833333333333333,0.378,1,1827.583,1
0,226,target,"[(1084, 763)]",[],[1],[0.6833333333333333],vertical,"(890.0, 262.0)",1.25,0.65,1,1832.823,1
0,227,target,"[(1099, 799)]",[],[1],[0.85],vertical,"(390.0, 762.0)",1.3666666666666667,nan,0,1837.873,0
0,228,target,"[(1088, 788)]",[],[1],[0.65],horizontal,"(390.0, 262.0)",0.8,0.608,1,1843.109,1
0,229,catch,"[(1106, 766)]",[],[1],[],horizontal,"(890.0, 762.0)",1.4666666666666666,nan,1,1848.04,1
0,230,target,"[(1109, 766)]",[],[1],[0.6166666666666667],vertical,"(390.0, 762.0)",1.0,0.579,1,1853.023,1
0,231,target,"[(1108, 767)]",[],[1],[0.23333333333333334],horizontal,"(890.0, 262.0)",1.5333333333333332,0.199,0,1857.903,0
0,232,catch,"[(1100, 782)]",[],[1],[],horizontal,"(890.0, 762.0)",1.5666666666666667,nan,1,1862.857,1
0,233,target,"[(1129, 782)]",[],[1],[0.4],vertical,"(890.0, 262.0)",1.3833333333333333,0.362,1,1867.809,1
0,234,target,"[(1128, 749), (1078, 790)]",[],"[0, 1]",[0.45],vertical,"(890.0, 262.0)",1.3666666666666667,0.411,1,1873.082,1
0,235,target,"[(1109, 774)]",[],[1],[0.5666666666666667],vertical,"(890.0, 762.0)",0.9,0.524,1,1879.9,2
0,236,catch,"[(1105, 785)]",[],[1],[],vertical,"(890.0, 762.0)",1.5666666666666667,nan,1,1885.256,2
0,237,target,"[(1110, 791)]",[],[1],[0.85],horizontal,"(890.0, 762.0)",0.5,nan,0,1890.373,0
0,238,target,"[(1069, 799)]",[],[1],[0.6],vertical,"(890.0, 262.0)",0.8,0.557,1,1894.523,1
0,239,target,"[(1102, 797)]",[],[1],[0.85],vertical,"(390.0, 762.0)",1.6,"('cti', 1.586),nan",0,1899.024,0
0,240,target,"[(1081, 788)]",[],[1],[0.7],vertical,"(390.0, 262.0)",0.6833333333333333,0.656,1,1904.758,1
0,241,target,"[(1074, 766)]",[],[1],[0.5833333333333334],vertical,"(390.0, 262.0)",1.05,0.543,1,1909.74,1
0,242,target,"[(1106, 789)]",[],[1],[0.85],vertical,"(390.0, 262.0)",0.75,nan,0,1914.724,0
0,243,target,"[(1082, 768)]",[],[1],[0.85],horizontal,"(390.0, 762.0)",0.7,nan,0,1919.04,0
0,244,target,"[(1104, 768)]",[],[1],[0.6],vertical,"(890.0, 762.0)",0.6,0.56,1,1923.879,1
0,245,target,"[(1105, 782)]",[],[1],[0.65],vertical,"(890.0, 262.0)",1.6,0.604,1,1928.34,1
0,246,target,"[(1096, 788)]",[],[1],[0.5333333333333333],horizontal,"(390.0, 762.0)",1.0666666666666667,0.498,1,1933.751,1
0,247,target,"[(1128, 762)]",[],[1],[0.85],horizontal,"(890.0, 762.0)",0.5333333333333333,nan,0,1939.125,0
0,248,target,"[(1062, 782)]",[],[1],[0.6166666666666667],horizontal,"(390.0, 762.0)",1.0333333333333332,0.57,1,1943.341,1
0,249,target,"[(1110, 773)]",[],[1],[0.5333333333333333],vertical,"(890.0, 262.0)",1.6333333333333333,0.494,1,1948.291,1
0,250,target,"[(1110, 757)]",[],[1],[0.6666666666666666],vertical,"(390.0, 762.0)",1.2333333333333334,0.623,1,1953.99,1
0,251,target,"[(1111, 776)]",[],[1],[0.6666666666666666],vertical,"(390.0, 762.0)",1.2666666666666666,0.622,1,1959.071,2
0,252,target,"[(1079, 781)]",[],[1],[0.65],vertical,"(390.0, 262.0)",0.8666666666666667,0.608,1,1964.915,2
0,253,target,"[(1106, 766)]",[],[1],[0.6666666666666666],horizontal,"(390.0, 762.0)",0.6,0.628,1,1970.508,2
0,254,catch,"[(1105, 784)]",[],[1],[],horizontal,"(890.0, 262.0)",1.4166666666666667,nan,1,1975.123,2
0,255,target,"[(1105, 782)]",[],[1],[],vertical,"(390.0, 262.0)",,"('cti', 1.434)",0,1980.229,0
0,256,target,"[(1106, 788)]",[],[1],[0.06666666666666667],horizontal,"(390.0, 762.0)",1.5,0.036,0,1985.09,0
0,257,target,"[(1102, 788)]",[],[1],[0.55],horizontal,"(390.0, 262.0)",1.45,0.51,1,1989.369,1
0,258,target,"[(1107, 790)]",[],[1],[0.7],horizontal,"(890.0, 262.0)",0.6666666666666666,0.653,1,1994.691,1
0,259,target,"[(1106, 787)]",[],[1],[0.5666666666666667],vertical,"(890.0, 262.0)",0.55,0.522,1,1999.641,1
0,260,target,"[(1139, 796)]",[],[1],[0.2833333333333333],vertical,"(890.0, 762.0)",1.4,0.249,1,2004.019,2
0,261,target,"[(1066, 766)]",[],[1],[0.18333333333333332],vertical,"(390.0, 762.0)",1.6333333333333333,0.151,0,2009.692,0
0,262,target,"[(1138, 786)]",[],[1],[0.7],horizontal,"(390.0, 762.0)",0.95,0.653,1,2014.469,1
0,263,target,"[(1109, 775)]",[],[1],[0.6],vertical,"(890.0, 262.0)",0.65,0.557,1,2019.608,1
0,264,target,"[(1141, 786)]",[],[1],[0.05],vertical,"(890.0, 262.0)",1.0166666666666666,0.019,0,2024.274,0
0,265,catch,"[(1079, 786)]",[],[1],[],horizontal,"(890.0, 262.0)",1.6833333333333333,nan,1,2028.525,1
0,266,target,"[(1076, 764)]",[],[1],[0.55],vertical,"(890.0, 262.0)",0.5833333333333334,0.509,1,2034.13,1
0,267,target,"[(1075, 786)]",[],[1],[0.26666666666666666],horizontal,"(390.0, 262.0)",1.5333333333333332,0.232,1,2038.858,1
0,268,target,"[(1105, 786)]",[],[1],[0.5333333333333333],horizontal,"(390.0, 762.0)",1.1333333333333333,0.494,1,2044.512,2
0,269,target,"[(1139, 776)]",[],[1],[0.5833333333333334],vertical,"(890.0, 762.0)",1.25,0.543,1,2049.863,2
0,270,target,"[(1107, 775)]",[],[1],[0.6166666666666667],vertical,"(390.0, 262.0)",0.9333333333333333,0.569,1,2055.742,2
0,271,target,"[(1079, 790)]",[],[1],[0.6333333333333333],vertical,"(890.0, 262.0)",0.5,0.586,1,2060.557,2
0,272,target,"[(1103, 776)]",[],[1],[0.85],horizontal,"(890.0, 262.0)",0.7666666666666666,nan,0,2065.69,0
0,273,target,"[(1075, 791)]",[],[1],[0.55],horizontal,"(890.0, 262.0)",1.0,0.513,1,2070.442,1
0,274,target,"[(1108, 778)]",[],[1],[0.43333333333333335],horizontal,"(890.0, 262.0)",1.2833333333333332,0.395,1,2075.441,1
0,275,target,"[(1139, 790)]",[],[1],[0.6333333333333333],horizontal,"(390.0, 262.0)",0.6,0.584,1,2080.701,1
0,276,target,"[(1100, 786)]",[],[1],[0.75],horizontal,"(390.0, 762.0)",0.85,0.709,1,2085.206,2
0,277,target,"[(1106, 781)]",[],[1],[0.7],horizontal,"(390.0, 762.0)",0.7666666666666666,0.653,1,2090.676,2
0,278,target,"[(1112, 781)]",[],[1],[],horizontal,"(890.0, 262.0)",,"('cti', 1.16)",0,2095.946,0
0,279,target,"[(1085, 764)]",[],[1],[0.6],horizontal,"(890.0, 762.0)",1.2166666666666666,0.554,1,2100.188,1
0,280,target,"[(1107, 781)]",[],[1],[0.5333333333333333],horizontal,"(890.0, 762.0)",1.1666666666666667,0.491,1,2105.399,1
0,281,target,"[(1103, 781)]",[],[1],[0.5666666666666667],vertical,"(890.0, 762.0)",1.1,0.525,1,2110.459,1
0,282,target,"[(1110, 789)]",[],[1],[0.5666666666666667],vertical,"(890.0, 762.0)",0.9666666666666667,0.524,1,2115.443,2
0,283,target,"[(1099, 781)]",[],[1],[0.4666666666666667],vertical,"(890.0, 762.0)",1.15,0.427,1,2120.533,2
0,284,target,"[(1092, 793)]",[],[1],[0.5333333333333333],horizontal,"(890.0, 262.0)",0.8,0.494,1,2125.726,2
0,285,target,"[(1110, 789)]",[],[1],[0.1],vertical,"(390.0, 762.0)",1.6,0.065,0,2131.115,0
0,286,target,"[(1107, 786)]",[],[1],[0.6166666666666667],horizontal,"(890.0, 262.0)",1.0833333333333333,0.57,1,2135.66,1
0,287,catch,"[(1097, 768)]",[],[1],[],vertical,"(890.0, 262.0)",1.5666666666666667,nan,1,2140.678,1
0,288,target,"[(1133, 751), (1068, 800)]",[],"[0, 1]",[0.2],horizontal,"(890.0, 262.0)",1.6333333333333333,0.169,0,2145.351,0
0,289,target,"[(1098, 786)]",[],[1],[],vertical,"(890.0, 762.0)",,"('cti', 1.611)",0,2151.048,0
0,290,target,"[(1100, 793)]",[],[1],[0.7166666666666667],vertical,"(390.0, 762.0)",1.2333333333333334,0.672,1,2155.507,1
0,291,target,"[(1100, 788)]",[],[1],[0.6666666666666666],vertical,"(390.0, 262.0)",0.5333333333333333,0.633,1,2160.786,1
0,292,target,"[(1109, 783)]",[],[1],[0.21666666666666667],horizontal,"(890.0, 262.0)",1.5333333333333332,0.181,0,2165.228,0
0,293,target,"[(1107, 800)]",[],[1],[0.6333333333333333],horizontal,"(390.0, 762.0)",0.8666666666666667,0.59,1,2170.273,1
0,294,catch,"[(1114, 761)]",[],[1],[],horizontal,"(390.0, 762.0)",1.5,nan,1,2175.341,1
0,295,target,"[(1110, 782)]",[],[1],[0.6166666666666667],horizontal,"(890.0, 762.0)",0.5666666666666667,0.574,1,2179.973,1
0,296,target,"[(1110, 791)]",[],[1],[0.6333333333333333],vertical,"(390.0, 762.0)",1.1166666666666667,0.593,1,2184.692,2
0,297,catch,"[(1116, 782)]",[],[1],[],horizontal,"(890.0, 262.0)",1.5166666666666666,nan,1,2190.475,2
0,298,target,"[(1107, 798)]",[],[1],[0.6166666666666667],vertical,"(390.0, 262.0)",0.5,0.57,1,2195.926,2
0,299,target,"[(1086, 769)]",[],[1],[0.55],vertical,"(390.0, 762.0)",0.8833333333333333,0.507,1,2201.103,2
0,300,target,"[(1107, 787)]",[],[1],[0.5666666666666667],horizontal,"(890.0, 262.0)",0.9833333333333333,0.523,1,2206.542,2
0,301,target,"[(1129, 772)]",[],[1],[0.6666666666666666],horizontal,"(390.0, 262.0)",0.8666666666666667,0.623,1,2212.125,3
0,302,catch,"[(1101, 759)]",[],[1],[],horizontal,"(890.0, 762.0)",1.45,nan,1,2217.685,3
0,303,catch,"[(1110, 797)]",[],[1],[],vertical,"(390.0, 762.0)",1.6833333333333333,nan,1,2223.475,3
0,304,target,"[(1096, 787)]",[],[1],[0.85],horizontal,"(390.0, 762.0)",0.65,nan,0,2228.909,0
0,305,target,"[(1066, 786)]",[],[1],[0.15],vertical,"(390.0, 262.0)",1.6666666666666667,0.114,0,2233.252,0
0,306,catch,"[(1080, 786)]",[],[1],[],horizontal,"(390.0, 262.0)",1.5333333333333332,nan,1,2237.835,1
0,307,target,"[(1127, 762)]",[],[1],[0.6333333333333333],vertical,"(390.0, 762.0)",0.8166666666666667,0.586,1,2242.927,1
0,308,target,"[(1110, 766)]",[],[1],[0.48333333333333334],vertical,"(890.0, 762.0)",1.1666666666666667,0.442,1,2247.352,1
0,309,target,"[(1089, 783)]",[],[1],[0.5333333333333333],horizontal,"(890.0, 262.0)",0.8666666666666667,0.492,1,2252.092,2
0,310,target,"[(1134, 775)]",[],[1],[0.65],horizontal,"(890.0, 762.0)",1.0666666666666667,0.61,1,2256.959,2
0,311,target,"[(1076, 762)]",[],[1],[0.5666666666666667],vertical,"(890.0, 762.0)",0.65,0.523,1,2262.442,2
0,312,target,"[(1108, 769)]",[],[1],[0.85],horizontal,"(890.0, 762.0)",0.5666666666666667,nan,0,2267.136,0
0,313,target,"[(1069, 781)]",[],[1],[0.7],horizontal,"(890.0, 262.0)",0.65,0.657,1,2271.348,1
0,314,target,"[(1070, 781)]",[],[1],[0.5666666666666667],horizontal,"(890.0, 262.0)",1.5333333333333332,0.527,1,2276.059,1
0,315,target,"[(1100, 768)]",[],[1],[0.13333333333333333],horizontal,"(890.0, 762.0)",1.7,0.1,0,2281.183,0
0,316,target,"[(1065, 786)]",[],[1],[0.21666666666666667],horizontal,"(390.0, 262.0)",1.6333333333333333,0.179,0,2285.929,0
0,317,target,"[(1074, 765)]",[],[1],[0.6],horizontal,"(390.0, 262.0)",1.15,0.555,1,2292.087,1
0,318,target,"[(1105, 773)]",[],[1],[0.5666666666666667],horizontal,"(890.0, 262.0)",0.9333333333333333,0.529,1,2297.23,1
0,319,target,"[(1143, 778)]",[],[1],[0.6333333333333333],vertical,"(890.0, 762.0)",1.5833333333333333,0.589,1,2301.965,1
0,320,target,"[(1076, 786)]",[],[1],[0.6],horizontal,"(890.0, 262.0)",1.1666666666666667,0.556,1,2307.895,2
0,321,target,"[(1110, 789)]",[],[1],[0.3833333333333333],horizontal,"(390.0, 762.0)",1.6333333333333333,0.346,1,2313.608,2
0,322,target,"[(1108, 763)]",[],[1],[0.43333333333333335],horizontal,"(390.0, 262.0)",1.2666666666666666,0.391,1,2319.698,2
0,323,target,"[(1075, 766)]",[],[1],[0.1],horizontal,"(390.0, 262.0)",1.65,0.067,0,2325.227,0
0,324,target,"[(1067, 786)]",[],[1],[0.65],vertical,"(890.0, 262.0)",0.9333333333333333,0.602,1,2330.083,1
0,325,target,"[(1076, 787)]",[],[1],[0.85],vertical,"(890.0, 762.0)",0.6,nan,0,2359.476,0
0,326,target,"[(1067, 782)]",[],[1],[0.6166666666666667],horizontal,"(390.0, 762.0)",1.05,0.571,1,2364.237,1
0,327,target,"[(1090, 777)]",[],[1],[0.31666666666666665],vertical,"(890.0, 262.0)",1.45,0.276,1,2369.196,1
0,328,target,"[(1105, 790)]",[],[1],[0.55],vertical,"(390.0, 262.0)",0.9833333333333333,0.507,1,2374.341,1
0,329,target,"[(1127, 787)]",[],[1],[0.3833333333333333],vertical,"(890.0, 262.0)",1.45,0.34,1,2379.242,2
0,330,target,"[(1135, 782)]",[],[1],[0.45],vertical,"(890.0, 762.0)",1.3,0.413,1,2384.976,2
0,331,target,"[(1128, 790)]",[],[1],[0.5833333333333334],horizontal,"(890.0, 762.0)",1.0333333333333332,0.546,1,2390.626,2
0,332,target,"[(1108, 792)]",[],[1],[0.85],horizontal,"(390.0, 762.0)",0.6833333333333333,nan,0,2396.003,0
0,333,target,"[(1082, 791)]",[],[1],[0.6666666666666666],vertical,"(890.0, 762.0)",0.7833333333333333,0.622,1,2400.671,1
0,334,target,"[(1104, 788)]",[],[1],[0.3],vertical,"(390.0, 762.0)",1.5166666666666666,0.268,1,2405.428,1
0,335,target,"[(1112, 790)]",[],[1],[0.6],horizontal,"(390.0, 762.0)",0.5166666666666666,0.557,1,2410.226,1
0,336,target,"[(1107, 785)]",[],[1],[0.5],vertical,"(890.0, 262.0)",1.1666666666666667,0.453,1,2415.027,2
0,337,target,"[(1105, 789)]",[],[1],[0.85],vertical,"(390.0, 762.0)",0.5166666666666666,nan,0,2420.415,0
0,338,catch,"[(1081, 790)]",[],[1],[],horizontal,"(390.0, 262.0)",1.55,nan,1,2425.06,1
0,339,target,"[(1113, 780)]",[],[1],[0.6333333333333333],horizontal,"(390.0, 262.0)",1.1,0.591,1,2430.569,1
0,340,target,"[(1095, 775)]",[],[1],[0.5666666666666667],vertical,"(390.0, 262.0)",1.0833333333333333,0.535,1,2435.383,1
0,341,target,"[(1128, 791)]",[],[1],[0.45],vertical,"(890.0, 762.0)",1.3,0.411,1,2440.34,2
0,342,target,"[(1105, 771)]",[],[1],[0.85],horizontal,"(890.0, 762.0)",0.7,nan,0,2445.743,0
0,343,target,"[(1126, 794)]",[],[1],[0.5333333333333333],vertical,"(390.0, 262.0)",1.1666666666666667,0.492,1,2450.262,1
0,344,target,"[(1131, 787)]",[],[1],[0.5666666666666667],horizontal,"(890.0, 262.0)",0.8333333333333334,0.527,1,2455.296,1
0,345,target,"[(1075, 792)]",[],[1],[0.23333333333333334],horizontal,"(890.0, 762.0)",1.5,0.197,0,2459.976,0
0,346,target,"[(1096, 781)]",[],[1],[0.85],vertical,"(390.0, 762.0)",0.7833333333333333,nan,0,2464.86,0
0,347,target,"[(1082, 797)]",[],[1],[0.7833333333333333],horizontal,"(890.0, 262.0)",0.8166666666666667,0.735,1,2469.429,1
0,348,target,"[(1111, 791)]",[],[1],[0.48333333333333334],horizontal,"(390.0, 762.0)",1.4833333333333334,0.447,1,2474.154,1
0,349,target,"[(1077, 786)]",[],[1],[0.05],horizontal,"(890.0, 762.0)",1.65,0.02,0,2479.345,0
0,350,target,"[(1082, 785)]",[],[1],[0.65],horizontal,"(890.0, 262.0)",0.85,0.606,1,2484.289,1
0,351,target,"[(1119, 781)]",[],[1],[0.5666666666666667],vertical,"(390.0, 762.0)",1.2,0.528,1,2488.963,1
0,352,catch,"[(1110, 786)]",[],[1],[],horizontal,"(390.0, 262.0)",1.5833333333333333,nan,1,2493.81,1
0,353,target,"[(1110, 784)]",[],[1],[0.6666666666666666],horizontal,"(890.0, 762.0)",1.2833333333333332,0.62,1,2498.528,2
0,354,target,"[(1123, 803)]",[],[1],[],horizontal,"(390.0, 762.0)",,"('cti', 1.263)",0,2504.726,0
0,355,target,"[(1070, 786)]",[],[1],[0.85],vertical,"(890.0, 262.0)",0.6333333333333333,nan,0,2509.243,0
0,356,target,"[(1072, 764)]",[],[1],[0.6],vertical,"(890.0, 262.0)",0.7833333333333333,0.559,1,2514.57,1
0,357,target,"[(1100, 762)]",[],[1],[0.6333333333333333],horizontal,"(890.0, 762.0)",0.8166666666666667,0.589,1,2519.573,1
0,358,target,"[(1120, 786)]",[],[1],[0.08333333333333333],vertical,"(390.0, 262.0)",1.6833333333333333,0.051,0,2524.096,0
0,359,target,"[(1075, 763)]",[],[1],[0.5666666666666667],horizontal,"(390.0, 262.0)",0.65,0.529,1,2529.167,1
0,360,target,"[(1105, 785)]",[],[1],[0.35],vertical,"(390.0, 262.0)",1.6166666666666667,0.314,1,2534.106,1
0,361,target,"[(1111, 769)]",[],[1],[],horizontal,"(390.0, 762.0)",,"('cti', 1.051)",0,2539.351,0
0,362,target,"[(1078, 786)]",[],[1],[0.43333333333333335],horizontal,"(890.0, 762.0)",1.3833333333333333,0.395,1,2543.777,1
0,363,target,"[(1099, 782)]",[],[1],[0.31666666666666665],horizontal,"(390.0, 262.0)",1.4,0.282,1,2548.977,1
0,364,target,"[(1082, 776)]",[],[1],[0.48333333333333334],vertical,"(890.0, 262.0)",1.3,0.44,1,2554.26,1
0,365,target,"[(1111, 783)]",[],[1],[0.25],horizontal,"(390.0, 762.0)",1.45,0.212,1,2559.323,2
0,366,target,"[(1126, 760)]",[],[1],[0.55],horizontal,"(390.0, 762.0)",1.1833333333333333,0.509,1,2564.573,2
0,367,target,"[(1108, 776)]",[],[1],[0.6666666666666666],horizontal,"(390.0, 262.0)",1.0166666666666666,0.619,1,2570.362,2
0,368,catch,"[(1072, 781)]",[],[1],[],horizontal,"(890.0, 262.0)",1.55,nan,1,2575.844,2
0,369,target,"[(1105, 769)]",[],[1],[0.6],vertical,"(890.0, 762.0)",0.8166666666666667,0.557,1,2581.427,2
0,370,target,"[(1123, 781)]",[],[1],[0.7],vertical,"(390.0, 262.0)",0.6166666666666667,0.66,1,2586.41,3
0,371,target,"[(1108, 786)]",[],[1],[0.5666666666666667],horizontal,"(890.0, 262.0)",0.75,0.532,1,2592.011,3
0,372,target,"[(1106, 800)]",[],[1],[0.11666666666666667],vertical,"(390.0, 762.0)",1.05,0.083,0,2597.836,0
0,373,target,"[(1072, 784)]",[],[1],[0.2833333333333333],horizontal,"(390.0, 262.0)",1.5333333333333332,0.249,1,2602.389,1
0,374,target,"[(1078, 777)]",[],[1],[0.6],horizontal,"(890.0, 262.0)",0.5666666666666667,0.557,1,2607.261,1
0,375,target,"[(1095, 805)]",[],[1],[0.26666666666666666],vertical,"(890.0, 762.0)",1.5166666666666666,0.228,1,2611.489,1
0,376,target,"[(1105, 776)]",[],[1],[0.11666666666666667],vertical,"(890.0, 762.0)",1.5333333333333332,0.087,0,2616.587,0
0,377,target,"[(1077, 783)]",[],[1],[0.5333333333333333],horizontal,"(390.0, 262.0)",1.25,0.499,1,2621.445,1
0,378,target,"[(1116, 762)]",[],[1],[0.3],horizontal,"(390.0, 262.0)",1.5666666666666667,0.263,1,2626.827,1
0,379,target,"[(1128, 790)]",[],[1],[0.6666666666666666],vertical,"(890.0, 762.0)",1.1666666666666667,0.626,1,2631.933,1
0,380,target,"[(1109, 781)]",[],[1],[],vertical,"(390.0, 262.0)",,"('cti', 0.484)",0,2636.861,0
0,381,target,"[(1072, 785)]",[],[1],[0.85],horizontal,"(890.0, 762.0)",0.55,nan,0,2640.851,0
0,382,target,"[(1074, 786)]",[],[1],[0.5333333333333333],horizontal,"(890.0, 762.0)",0.7166666666666667,0.494,1,2645.24,1
0,383,target,"[(1107, 781)]",[],[1],[0.6333333333333333],vertical,"(390.0, 262.0)",0.7333333333333333,0.588,1,2651.794,1
0,384,target,"[(1107, 777)]",[],[1],[0.36666666666666664],vertical,"(390.0, 762.0)",1.4166666666666667,0.328,1,2657.292,1
0,385,target,"[(1128, 767)]",[],[1],[0.5666666666666667],horizontal,"(890.0, 262.0)",0.7166666666666667,0.528,1,2662.627,2
0,386,target,"[(1110, 776)]",[],[1],[0.5],horizontal,"(890.0, 262.0)",1.0166666666666666,0.467,1,2667.194,2
0,387,target,"[(1110, 784)]",[],[1],[0.05],horizontal,"(890.0, 762.0)",1.6333333333333333,0.02,0,2672.245,0
0,388,target,"[(1101, 790)]",[],[1],[0.7166666666666667],vertical,"(890.0, 262.0)",0.5166666666666666,0.682,1,2676.72,1
0,389,target,"[(1131, 772)]",[],[1],[0.55],vertical,"(890.0, 762.0)",1.15,0.512,1,2681.479,1
0,390,target,"[(1110, 781)]",[],[1],[0.48333333333333334],vertical,"(390.0, 262.0)",1.4,0.44,1,2686.211,1
0,391,catch,"[(1110, 781)]",[],[1],[],horizontal,"(390.0, 762.0)",1.6833333333333333,nan,1,2691.256,2
0,392,target,"[(1132, 785)]",[],[1],[0.23333333333333334],horizontal,"(390.0, 762.0)",1.45,0.204,1,2696.741,2
0,393,target,"[(1129, 768)]",[],[1],[0.85],vertical,"(390.0, 762.0)",0.8166666666666667,nan,0,2702.178,0
0,394,catch,"[(1110, 788)]",[],[1],[],horizontal,"(390.0, 262.0)",1.5666666666666667,nan,1,2706.628,1
0,395,target,"[(1104, 791)]",[],[1],[0.5833333333333334],vertical,"(390.0, 262.0)",1.0,0.54,1,2711.461,1
0,396,target,"[(1108, 769)]",[],[1],[0.5333333333333333],horizontal,"(890.0, 262.0)",1.1,0.491,1,2716.085,1
0,397,target,"[(1112, 790)]",[],[1],[0.7333333333333333],horizontal,"(890.0, 262.0)",0.7,0.694,1,2720.812,2
0,398,target,"[(1076, 768)]",[],[1],[0.85],horizontal,"(390.0, 762.0)",0.7833333333333333,nan,0,2726.711,0
0,399,target,"[(1111, 865)]",[],[1],[0.5333333333333333],vertical,"(390.0, 762.0)",0.5833333333333334,0.497,1,2731.31,1
0,400,target,"[(1100, 799)]",[],[1],[0.4],horizontal,"(890.0, 262.0)",1.25,0.355,1,3422.098,1
0,401,target,"[(1099, 793)]",[],[1],[],horizontal,"(390.0, 262.0)",,"('cti', 1.555)",0,3427.131,0
0,402,target,"[(1106, 788)]",[],[1],[0.48333333333333334],vertical,"(390.0, 762.0)",0.8,0.447,1,3431.872,1
0,403,target,"[(1114, 796)]",[],[1],[0.6],horizontal,"(390.0, 262.0)",0.5833333333333334,0.557,1,3436.249,1
0,404,target,"[(1091, 783)]",[],[1],[0.4166666666666667],vertical,"(890.0, 762.0)",1.2166666666666666,0.375,1,3440.904,1
0,405,target,"[(1081, 778)]",[],[1],[0.3833333333333333],horizontal,"(890.0, 262.0)",1.6333333333333333,0.342,1,3445.764,2
0,406,catch,"[(1120, 789)]",[],[1],[],horizontal,"(390.0, 762.0)",,"('cti', 1.357),nan",0,3451.715,0
0,407,target,"[(1092, 790)]",[],[1],[0.26666666666666666],horizontal,"(890.0, 262.0)",1.6333333333333333,0.233,1,3456.449,1
0,408,target,"[(1107, 785)]",[],[1],[0.5666666666666667],vertical,"(890.0, 262.0)",0.6333333333333333,0.521,1,3461.42,1
0,409,target,"[(1079, 791)]",[],[1],[0.6333333333333333],vertical,"(390.0, 262.0)",0.85,0.589,1,3466.311,1
0,410,target,"[(1115, 791)]",[],[1],[0.55],horizontal,"(390.0, 762.0)",0.65,0.509,1,3470.991,2
0,411,target,"[(1127, 776)]",[],[1],[],vertical,"(390.0, 762.0)",,"('cti', 1.321)",0,3476.298,0
0,412,target,"[(1105, 790)]",[],[1],[0.85],horizontal,"(390.0, 762.0)",0.5333333333333333,nan,0,3480.313,0
0,413,catch,"[(1075, 791)]",[],[1],[],vertical,"(390.0, 262.0)",1.55,nan,1,3484.75,1
0,414,target,"[(1105, 785)]",[],[1],[0.85],horizontal,"(890.0, 762.0)",0.9,nan,0,3489.983,0
0,415,target,"[(1071, 796)]",[],[1],[0.85],horizontal,"(890.0, 762.0)",1.0,nan,0,3494.706,0
0,416,target,"[(1071, 828)]",[],[1],[0.6333333333333333],horizontal,"(390.0, 762.0)",1.05,0.591,1,3499.949,1
0,417,target,"[(1105, 773)]",[],[1],[0.36666666666666664],horizontal,"(890.0, 762.0)",1.3666666666666667,0.331,1,3504.914,1
0,418,target,"[(1109, 765)]",[],[1],[0.5333333333333333],horizontal,"(890.0, 262.0)",0.7,0.491,1,3510.014,1
0,419,target,"[(1111, 780)]",[],[1],[0.6],vertical,"(890.0, 262.0)",1.2,0.561,1,3514.166,2
0,420,target,"[(1130, 768)]",[],[1],[0.5166666666666666],vertical,"(890.0, 262.0)",0.6,0.475,1,3519.299,2
0,421,target,"[(1105, 786)]",[],[1],[0.5166666666666666],horizontal,"(890.0, 762.0)",1.0333333333333332,0.475,1,3524.165,2
0,422,catch,"[(1110, 767)]",[],[1],[],horizontal,"(390.0, 762.0)",,"('cti', 1.544),nan",0,3529.54,0
0,423,target,"[(1110, 792)]",[],[1],[0.6166666666666667],vertical,"(890.0, 762.0)",1.1333333333333333,0.57,1,3534.512,1
0,424,catch,"[(1109, 771)]",[],[1],[],horizontal,"(890.0, 762.0)",1.5,nan,1,3539.387,1
0,425,target,"[(1102, 788)]",[],[1],[0.6166666666666667],horizontal,"(890.0, 762.0)",0.9166666666666666,0.577,1,3544.5,1
0,426,catch,"[(1105, 789)]",[],[1],[],horizontal,"(390.0, 262.0)",1.6,nan,1,3549.667,2
0,427,target,"[(1118, 783)]",[],[1],[0.5333333333333333],vertical,"(890.0, 262.0)",0.8166666666666667,0.494,1,3554.714,2
0,428,catch,"[(1110, 787)]",[],[1],[],vertical,"(390.0, 262.0)",1.4666666666666666,nan,1,3560.065,2
0,429,target,"[(1128, 772)]",[],[1],[0.5833333333333334],vertical,"(390.0, 262.0)",1.05,0.538,1,3564.931,2
0,430,target,"[(1072, 754)]",[],[1],[0.55],vertical,"(890.0, 262.0)",0.7666666666666666,0.511,1,3570.129,2
0,431,target,"[(1110, 766)]",[],[1],[0.23333333333333334],vertical,"(390.0, 262.0)",1.6,0.201,1,3574.98,3
0,432,target,"[(1100, 790)]",[],[1],[0.13333333333333333],vertical,"(890.0, 262.0)",1.55,0.102,0,3580.681,0
0,433,target,"[(1095, 777)]",[],[1],[0.65],vertical,"(390.0, 762.0)",0.8666666666666667,0.603,1,3585.5,1
0,434,target,"[(1081, 769)]",[],[1],[0.5666666666666667],horizontal,"(890.0, 262.0)",0.7833333333333333,0.525,1,3590.052,1
0,435,target,"[(1122, 778)]",[],[1],[0.25],horizontal,"(890.0, 262.0)",1.4666666666666666,0.211,1,3594.767,1
0,436,target,"[(1103, 777)]",[],[1],[0.4666666666666667],vertical,"(890.0, 762.0)",1.0666666666666667,0.431,1,3599.747,2
0,437,target,"[(1124, 786)]",[],[1],[0.8166666666666667],horizontal,"(390.0, 762.0)",0.6,0.774,1,3605.448,2
0,438,target,"[(1100, 782)]",[],[1],[0.45],vertical,"(890.0, 762.0)",1.1833333333333333,0.41,1,3610.704,2
0,439,target,"[(1105, 790)]",[],[1],[0.5333333333333333],vertical,"(890.0, 262.0)",1.0,0.501,1,3615.972,2
0,440,target,"[(1100, 786)]",[],[1],[0.85],vertical,"(390.0, 762.0)",0.5,nan,0,3621.143,0
0,441,catch,"[(1081, 789)]",[],[1],[],horizontal,"(390.0, 262.0)",1.6666666666666667,nan,1,3625.375,1
0,442,catch,"[(1102, 764)]",[],[1],[],horizontal,"(390.0, 262.0)",1.4,nan,1,3630.134,1
0,443,target,"[(1118, 780)]",[],[1],[],vertical,"(890.0, 762.0)",,"('cti', 1.535)",0,3634.75,0
0,444,target,"[(1108, 764)]",[],[1],[0.5666666666666667],vertical,"(390.0, 262.0)",1.0,0.531,1,3639.322,1
0,445,target,"[(1086, 757)]",[],[1],[0.48333333333333334],vertical,"(390.0, 262.0)",1.3,0.451,1,3643.962,1
0,446,target,"[(1105, 758)]",[],[1],[0.5166666666666666],horizontal,"(890.0, 762.0)",1.3166666666666667,0.471,1,3649.171,1
0,447,catch,"[(1100, 769)]",[],[1],[],horizontal,"(890.0, 262.0)",1.6333333333333333,nan,1,3654.534,2
0,448,target,"[(1110, 781)]",[],[1],[0.7166666666666667],vertical,"(390.0, 262.0)",0.9166666666666666,0.671,1,3660.198,2
0,449,target,"[(1109, 761)]",[],[1],[0.3333333333333333],vertical,"(390.0, 762.0)",1.3666666666666667,0.295,1,3665.663,2
0,450,target,"[(1126, 788)]",[],[1],[0.6666666666666666],horizontal,"(890.0, 762.0)",0.7,0.625,1,3671.324,2
0,451,target,"[(1110, 781)]",[],[1],[0.6666666666666666],horizontal,"(890.0, 262.0)",0.6666666666666666,0.625,1,3676.216,2
0,452,target,"[(1118, 761)]",[],[1],[0.65],horizontal,"(890.0, 762.0)",0.6666666666666666,0.603,1,3681.095,3
0,453,target,"[(1108, 769)]",[],[1],[0.6666666666666666],vertical,"(390.0, 762.0)",0.7833333333333333,0.624,1,3686.533,3
0,454,target,"[(1121, 756)]",[],[1],[0.43333333333333335],vertical,"(890.0, 762.0)",1.1,0.389,1,3692.112,3
0,455,target,"[(1120, 791)]",[],[1],[0.3],vertical,"(890.0, 762.0)",1.3333333333333333,0.266,1,3697.917,3
0,456,target,"[(1108, 783)]",[],[1],[0.5666666666666667],vertical,"(390.0, 762.0)",0.9333333333333333,0.527,1,3703.934,3
0,457,target,"[(1107, 785)]",[],[1],[0.6666666666666666],vertical,"(390.0, 762.0)",1.1333333333333333,0.625,1,3709.384,3
0,458,target,"[(1086, 784)]",[],[1],[0.4666666666666667],vertical,"(390.0, 262.0)",1.3,0.425,1,3715.0,3
0,459,catch,"[(1108, 781)]",[],[1],[],vertical,"(890.0, 262.0)",,"('cti', 1.591),nan",0,3721.001,0
0,460,target,"[(1096, 790)]",[],[1],[0.7166666666666667],vertical,"(390.0, 762.0)",0.9166666666666666,0.674,1,3725.654,1
0,461,target,"[(1106, 766)]",[],[1],[0.85],horizontal,"(390.0, 762.0)",0.5166666666666666,nan,0,3730.618,0
0,462,target,"[(1105, 781)]",[],[1],[0.5166666666666666],horizontal,"(890.0, 262.0)",0.8833333333333333,0.479,1,3734.946,1
0,463,target,"[(1100, 782)]",[],[1],[0.5333333333333333],vertical,"(890.0, 762.0)",1.2333333333333334,0.491,1,3739.718,1
0,464,target,"[(1116, 770)]",[],[1],[0.23333333333333334],horizontal,"(890.0, 262.0)",1.4666666666666666,0.201,1,3744.383,1
0,465,target,"[(1105, 761)]",[],[1],[0.55],horizontal,"(390.0, 262.0)",1.1166666666666667,0.513,1,3749.217,2
0,466,catch,"[(1106, 788)]",[],[1],[],horizontal,"(890.0, 762.0)",1.5,nan,1,3754.778,2
0,467,catch,"[(1108, 775)]",[],[1],[],horizontal,"(390.0, 262.0)",1.4,nan,1,3760.433,2
0,468,catch,"[(1081, 789)]",[],[1],[],horizontal,"(890.0, 762.0)",,"('cti', 1.61),nan",0,3765.321,0
0,469,catch,"[(1110, 773)]",[],[1],[],vertical,"(390.0, 262.0)",1.6,nan,1,3769.833,1
0,470,target,"[(1115, 764)]",[],[1],[0.6333333333333333],vertical,"(390.0, 762.0)",1.15,0.593,1,3774.533,1
0,471,target,"[(1114, 781)]",[],[1],[0.85],horizontal,"(390.0, 762.0)",0.6833333333333333,nan,0,3779.533,0
0,472,target,"[(1068, 785)]",[],[1],[0.25],horizontal,"(890.0, 762.0)",1.5,0.217,1,3783.915,1
0,473,target,"[(1105, 747), (1100, 791)]",[],"[0, 1]",[0.6666666666666666],horizontal,"(390.0, 762.0)",0.7166666666666667,0.624,1,3788.608,1
0,474,target,"[(1083, 773)]",[],[1],[0.36666666666666664],horizontal,"(390.0, 262.0)",1.4666666666666666,0.329,1,3794.805,1
0,475,target,"[(1105, 783)]",[],[1],[0.48333333333333334],horizontal,"(390.0, 762.0)",1.1166666666666667,0.444,1,3800.318,2
0,476,target,"[(1102, 765)]",[],[1],[0.5166666666666666],horizontal,"(890.0, 262.0)",0.8,0.483,1,3806.122,2
0,477,catch,"[(1110, 759)]",[],[1],[0.03333333333333333],horizontal,"(890.0, 262.0)",1.5166666666666666,"0.018,nan",0,3811.135,0
0,478,target,"[(1108, 791)]",[],[1],[0.6666666666666666],vertical,"(390.0, 262.0)",0.5166666666666666,0.626,1,3815.672,1
0,479,target,"[(1091, 789)]",[],[1],[0.85],vertical,"(390.0, 762.0)",0.65,nan,0,3820.034,0
0,480,target,"[(1076, 776)]",[],[1],[0.55],horizontal,"(890.0, 262.0)",1.0333333333333332,0.508,1,3824.914,1
0,481,target,"[(1109, 772)]",[],[1],[0.85],vertical,"(890.0, 762.0)",0.5,nan,0,3829.968,0
0,482,target,"[(1066, 787)]",[],[1],[0.5666666666666667],vertical,"(390.0, 762.0)",1.1166666666666667,0.536,1,3834.314,1
0,483,target,"[(1107, 761)]",[],[1],[0.55],vertical,"(890.0, 262.0)",1.0166666666666666,0.517,1,3839.608,1
0,484,target,"[(1105, 764)]",[],[1],[0.2],horizontal,"(390.0, 762.0)",1.2666666666666666,0.169,0,3844.661,0
0,485,target,"[(1111, 789)]",[],[1],[0.5833333333333334],horizontal,"(890.0, 762.0)",1.1,0.543,1,3849.514,1
0,486,target,"[(1108, 786)]",[],[1],[0.65],horizontal,"(390.0, 762.0)",0.7166666666666667,0.612,1,3854.274,1
0,487,target,"[(1110, 761)]",[],[1],[0.06666666666666667],horizontal,"(890.0, 762.0)",1.5,0.036,0,3859.109,0
0,488,target,"[(1110, 782)]",[],[1],[0.23333333333333334],horizontal,"(390.0, 762.0)",1.3666666666666667,0.201,1,3863.351,1
0,489,target,"[(1105, 783)]",[],[1],[0.48333333333333334],horizontal,"(890.0, 762.0)",1.3,0.449,1,3868.569,1
0,490,target,"[(1110, 769)]",[],[1],[0.36666666666666664],horizontal,"(390.0, 762.0)",1.45,0.335,1,3873.621,1
0,491,target,"[(1123, 781)]",[],[1],[0.05],vertical,"(890.0, 762.0)",1.6333333333333333,0.02,0,3878.854,0
0,492,target,"[(1062, 786)]",[],[1],[0.5666666666666667],horizontal,"(890.0, 262.0)",0.5333333333333333,0.535,1,3883.503,1
0,493,target,"[(1074, 777)]",[],[1],[0.5166666666666666],horizontal,"(890.0, 762.0)",1.1333333333333333,0.481,1,3887.793,1
0,494,target,"[(1110, 777)]",[],[1],[0.65],vertical,"(390.0, 762.0)",0.9,0.607,1,3893.084,1
0,495,target,"[(1110, 760)]",[],[1],[0.43333333333333335],vertical,"(890.0, 262.0)",1.2166666666666666,0.399,1,3897.968,2
0,496,target,"[(1093, 780)]",[],[1],[0.5666666666666667],vertical,"(390.0, 262.0)",0.8166666666666667,0.528,1,3903.569,2
0,497,target,"[(1081, 777)]",[],[1],[0.5833333333333334],horizontal,"(390.0, 262.0)",0.8833333333333333,0.543,1,3908.892,2
0,498,target,"[(1081, 772)]",[],[1],[0.26666666666666666],vertical,"(390.0, 262.0)",1.5333333333333332,0.228,1,3914.185,2
0,499,target,"[(1105, 766)]",[],[1],[0.2],horizontal,"(890.0, 262.0)",1.5666666666666667,0.169,0,3919.219,0
0,500,target,"[(1110, 769)]",[],[1],[0.6666666666666666],vertical,"(890.0, 262.0)",0.5666666666666667,0.622,1,3924.172,1
0,501,target,"[(1131, 773)]",[],[1],[0.5333333333333333],horizontal,"(390.0, 262.0)",0.6166666666666667,0.492,1,3928.752,1
0,502,target,"[(1100, 782)]",[],[1],[0.5833333333333334],vertical,"(390.0, 762.0)",0.8833333333333333,0.543,1,3933.034,1
0,503,target,"[(1073, 778)]",[],[1],[0.3833333333333333],horizontal,"(890.0, 762.0)",0.9333333333333333,0.35,1,3937.96,2
0,504,target,"[(1076, 791)]",[],[1],[0.3],vertical,"(390.0, 762.0)",1.45,0.264,1,3943.347,2
0,505,target,"[(1098, 778)]",[],[1],[0.6],vertical,"(390.0, 262.0)",0.95,0.566,1,3948.851,2
0,506,target,"[(1075, 779)]",[],[1],[0.5833333333333334],horizontal,"(890.0, 762.0)",1.0833333333333333,0.544,1,3953.801,2
0,507,target,"[(1112, 794)]",[],[1],[0.5333333333333333],vertical,"(890.0, 762.0)",0.6333333333333333,0.495,1,3959.202,2
0,508,target,"[(1111, 782)]",[],[1],[0.5333333333333333],vertical,"(390.0, 762.0)",1.0333333333333332,0.497,1,3964.336,3
0,509,target,"[(1110, 771)]",[],[1],[0.31666666666666665],horizontal,"(390.0, 762.0)",1.5333333333333332,0.282,1,3969.867,3
0,510,target,"[(1110, 791)]",[],[1],[0.6166666666666667],horizontal,"(390.0, 762.0)",0.9166666666666666,0.575,1,3975.627,3
0,511,target,"[(1110, 792)]",[],[1],[0.5666666666666667],vertical,"(890.0, 262.0)",0.9333333333333333,0.521,1,3981.473,3
0,512,target,"[(1110, 781)]",[],[1],[0.85],vertical,"(390.0, 762.0)",0.75,nan,0,3987.418,0
0,513,target,"[(1075, 792)]",[],[1],[0.4],vertical,"(890.0, 762.0)",0.7666666666666666,0.367,1,3992.38,1
0,514,target,"[(1118, 787)]",[],[1],[0.65],horizontal,"(890.0, 262.0)",0.5833333333333334,0.608,1,3996.95,1
0,515,target,"[(1129, 792)]",[],[1],[0.85],horizontal,"(890.0, 762.0)",0.7333333333333333,nan,0,4001.424,0
0,516,target,"[(1110, 810)]",[],[1],[0.5],vertical,"(390.0, 262.0)",1.4,0.461,1,4006.201,1
0,517,target,"[(1131, 778)]",[],[1],[0.6],horizontal,"(890.0, 262.0)",1.3666666666666667,0.564,1,4010.985,1
0,518,target,"[(1110, 778)]",[],[1],[],horizontal,"(890.0, 762.0)",,"('cti', 1.212)",0,4016.053,0
0,519,target,"[(1100, 762)]",[],[1],[0.5666666666666667],vertical,"(390.0, 262.0)",0.9666666666666667,0.528,1,4020.709,1
0,520,target,"[(1125, 766)]",[],[1],[0.6166666666666667],horizontal,"(390.0, 262.0)",0.5166666666666666,0.573,1,4025.47,1
0,521,target,"[(1128, 787)]",[],[1],[0.55],horizontal,"(390.0, 762.0)",1.15,0.512,1,4029.943,1
0,522,target,"[(1111, 768)]",[],[1],[0.08333333333333333],horizontal,"(390.0, 262.0)",1.5833333333333333,0.051,0,4034.868,0
0,523,target,"[(1075, 790)]",[],[1],[0.5666666666666667],horizontal,"(890.0, 762.0)",1.4,0.527,1,4039.65,1
0,524,target,"[(1075, 793)]",[],[1],[0.08333333333333333],vertical,"(390.0, 262.0)",1.2833333333333332,0.054,0,4071.469,0
0,525,target,"[(1086, 774)]",[],[1],[0.5],horizontal,"(390.0, 262.0)",1.2333333333333334,0.47,1,4076.086,1
0,526,catch,"[(1107, 785)]",[],[1],[],horizontal,"(390.0, 262.0)",1.5,nan,1,4081.485,1
0,527,target,"[(1101, 791)]",[],[1],[0.5833333333333334],horizontal,"(390.0, 762.0)",0.6,0.547,1,4086.553,1
0,528,target,"[(1104, 800)]",[],[1],[0.5333333333333333],horizontal,"(390.0, 262.0)",0.6333333333333333,0.494,1,4090.935,2
0,529,target,"[(1105, 792)]",[],[1],[0.35],vertical,"(390.0, 262.0)",1.15,0.309,1,4096.118,2
0,530,target,"[(1075, 792)]",[],[1],[0.48333333333333334],vertical,"(890.0, 762.0)",1.2,0.442,1,4101.385,2
0,531,target,"[(1098, 795)]",[],[1],[0.3833333333333333],horizontal,"(890.0, 262.0)",1.2833333333333332,0.347,1,4106.687,2
0,532,target,"[(1108, 792)]",[],[1],[0.5166666666666666],vertical,"(390.0, 762.0)",1.1166666666666667,0.47,1,4112.285,2
0,533,target,"[(1107, 787)]",[],[1],[0.5],vertical,"(890.0, 262.0)",0.9166666666666666,0.458,1,4117.547,3
0,534,target,"[(1137, 787)]",[],[1],[0.85],horizontal,"(390.0, 762.0)",1.3833333333333333,nan,0,4123.337,0
0,535,target,"[(1110, 815)]",[],[1],[],vertical,"(390.0, 262.0)",,"('cti', 1.537)",0,4128.903,0
0,536,catch,"[(1091, 784)]",[],[1],[],horizontal,"(390.0, 762.0)",1.5333333333333332,nan,1,4133.814,1
0,537,target,"[(1114, 786)]",[],[1],[0.18333333333333332],horizontal,"(890.0, 262.0)",1.6166666666666667,0.151,0,4138.823,0
0,538,target,"[(1072, 784)]",[],[1],[0.48333333333333334],horizontal,"(390.0, 762.0)",1.2333333333333334,0.44,1,4143.987,1
0,539,target,"[(1126, 781)]",[],[1],[],horizontal,"(890.0, 262.0)",,"('cti', 1.549)",0,4149.003,0
0,540,target,"[(1110, 791)]",[],[1],[0.6],vertical,"(390.0, 762.0)",0.9,0.559,1,4153.738,1
0,541,target,"[(1112, 771)]",[],[1],[0.5666666666666667],horizontal,"(390.0, 762.0)",1.15,0.527,1,4158.652,1
0,542,target,"[(1122, 768)]",[],[1],[0.5333333333333333],horizontal,"(890.0, 262.0)",0.9,0.493,1,4163.29,1
0,543,target,"[(1109, 770)]",[],[1],[0.3833333333333333],vertical,"(390.0, 762.0)",1.3666666666666667,0.349,1,4168.326,2
0,544,target,"[(1120, 771)]",[],[1],[0.85],horizontal,"(390.0, 762.0)",0.5666666666666667,nan,0,4173.902,0
0,545,catch,"[(1112, 762)]",[],[1],[],vertical,"(390.0, 762.0)",1.5,nan,1,4178.32,1
0,546,target,"[(1129, 761)]",[],[1],[0.6333333333333333],vertical,"(890.0, 262.0)",1.1833333333333333,0.591,1,4183.439,1
0,547,target,"[(1119, 758)]",[],[1],[0.85],horizontal,"(390.0, 762.0)",0.7333333333333333,nan,0,4188.403,0
0,548,target,"[(1083, 783)]",[],[1],[0.26666666666666666],horizontal,"(390.0, 762.0)",1.4166666666666667,0.229,1,4192.973,1
0,549,target,"[(1138, 765)]",[],[1],[0.06666666666666667],vertical,"(390.0, 762.0)",1.5666666666666667,0.037,0,4198.84,0
0,550,target,"[(1116, 771)]",[],[1],[0.31666666666666665],horizontal,"(390.0, 262.0)",1.4166666666666667,0.281,1,4203.696,1
0,551,catch,"[(1115, 760)]",[],[1],[],horizontal,"(390.0, 262.0)",1.5166666666666666,nan,1,4208.861,1
0,552,target,"[(1091, 782)]",[],[1],[0.36666666666666664],vertical,"(390.0, 262.0)",1.4833333333333334,0.328,1,4213.292,1
0,553,target,"[(1129, 765)]",[],[1],[0.5333333333333333],horizontal,"(390.0, 762.0)",0.6166666666666667,0.496,1,4217.986,2
0,554,target,"[(1107, 781)]",[],[1],[0.15],vertical,"(390.0, 762.0)",1.55,0.118,0,4223.021,0
0,555,target,"[(1120, 781)]",[],[1],[0.5666666666666667],horizontal,"(890.0, 262.0)",0.8,0.528,1,4227.819,1
0,556,target,"[(1118, 788)]",[],[1],[0.5166666666666666],horizontal,"(890.0, 262.0)",1.1333333333333333,0.471,1,4232.49,1
0,557,target,"[(1112, 786)]",[],[1],[0.16666666666666666],vertical,"(890.0, 262.0)",1.3833333333333333,0.13,0,4237.374,0
0,558,target,"[(1086, 777)]",[],[1],[0.25],horizontal,"(390.0, 262.0)",1.4333333333333333,0.213,1,4242.236,1
0,559,target,"[(1125, 786)]",[],[1],[0.5666666666666667],vertical,"(890.0, 262.0)",0.6666666666666666,0.525,1,4247.554,1
0,560,target,"[(1117, 788)]",[],[1],[0.3333333333333333],vertical,"(890.0, 762.0)",1.2833333333333332,0.3,1,4251.987,1
0,561,target,"[(1118, 761)]",[],[1],[0.23333333333333334],vertical,"(390.0, 762.0)",1.4666666666666666,0.202,1,4256.533,2
0,562,target,"[(1120, 771)]",[],[1],[0.5833333333333334],vertical,"(890.0, 762.0)",0.5666666666666667,0.542,1,4262.199,2
0,563,target,"[(1113, 784)]",[],[1],[0.48333333333333334],vertical,"(390.0, 262.0)",1.4333333333333333,0.443,1,4267.165,2
0,564,target,"[(1120, 756)]",[],[1],[0.6166666666666667],vertical,"(390.0, 262.0)",1.2333333333333334,0.57,1,4272.552,2
0,565,target,"[(1110, 771)]",[],[1],[0.7],horizontal,"(390.0, 262.0)",0.9,0.658,1,4277.731,2
0,566,target,"[(1110, 792)]",[],[1],[0.85],horizontal,"(890.0, 762.0)",0.7666666666666666,nan,0,4282.787,0
0,567,target,"[(1096, 771)]",[],[1],[0.6333333333333333],horizontal,"(890.0, 762.0)",1.0,0.585,1,4287.104,1
0,568,target,"[(1115, 765)]",[],[1],[0.6333333333333333],horizontal,"(390.0, 762.0)",0.6333333333333333,0.588,1,4292.058,1
0,569,catch,"[(1133, 780)]",[],[1],[],vertical,"(890.0, 762.0)",,"('cti', 1.356),nan",0,4296.304,0
0,570,target,"[(1077, 789)]",[],[1],[0.6166666666666667],vertical,"(390.0, 262.0)",1.1166666666666667,0.58,1,4301.036,1
0,571,target,"[(1123, 790)]",[],[1],[0.5666666666666667],vertical,"(890.0, 262.0)",1.3166666666666667,0.523,1,4306.42,1
0,572,target,"[(1124, 783)]",[],[1],[0.5666666666666667],vertical,"(890.0, 762.0)",1.35,0.519,1,4311.27,1
0,573,target,"[(1075, 811)]",[],[1],[0.45],horizontal,"(890.0, 262.0)",0.8666666666666667,0.411,1,4316.703,2
0,574,target,"[(1108, 792)]",[],[1],[0.13333333333333333],horizontal,"(890.0, 262.0)",1.5666666666666667,0.1,0,4323.221,0
0,575,target,"[(1108, 849)]",[],[1],[0.6166666666666667],horizontal,"(390.0, 262.0)",0.6666666666666666,0.574,1,4327.855,1
0,576,target,"[(1110, 775)]",[],[1],[0.6166666666666667],vertical,"(890.0, 762.0)",0.7333333333333333,0.573,1,4394.876,1
0,577,target,"[(1087, 794)]",[],[1],[0.43333333333333335],horizontal,"(890.0, 262.0)",1.0333333333333332,0.393,1,4399.821,1
0,578,target,"[(1123, 772)]",[],[1],[0.1],horizontal,"(890.0, 762.0)",1.55,0.068,0,4404.922,0
0,579,target,"[(1109, 799)]",[],[1],[0.6166666666666667],horizontal,"(890.0, 762.0)",0.9666666666666667,0.573,1,4409.701,1
0,580,target,"[(1122, 799)]",[],[1],[0.7166666666666667],horizontal,"(390.0, 762.0)",0.5166666666666666,0.666,1,4414.544,1
0,581,target,"[(1105, 768)]",[],[1],[0.4],horizontal,"(890.0, 262.0)",1.4333333333333333,0.358,1,4419.022,1
0,582,target,"[(1109, 767)]",[],[1],[0.6833333333333333],horizontal,"(390.0, 762.0)",0.9166666666666666,0.64,1,4424.062,2
0,583,target,"[(1124, 776)]",[],[1],[0.6333333333333333],vertical,"(390.0, 262.0)",0.6833333333333333,0.588,1,4429.396,2
0,584,target,"[(1087, 760)]",[],[1],[0.11666666666666667],horizontal,"(390.0, 262.0)",1.45,0.083,0,4434.53,0
0,585,target,"[(1077, 776)]",[],[1],[0.6333333333333333],vertical,"(890.0, 762.0)",0.7,0.59,1,4439.315,1
0,586,target,"[(1134, 783)]",[],[1],[0.21666666666666667],horizontal,"(390.0, 262.0)",1.65,0.183,0,4443.961,0
0,587,target,"[(1111, 781)]",[],[1],[0.6166666666666667],horizontal,"(890.0, 762.0)",0.6,0.571,1,4448.704,1
0,588,target,"[(1103, 758)]",[],[1],[0.45],vertical,"(890.0, 762.0)",1.4666666666666666,0.405,1,4452.849,1
0,589,target,"[(1083, 767)]",[],[1],[0.5833333333333334],horizontal,"(890.0, 262.0)",0.5,0.542,1,4458.022,1
0,590,catch,"[(1109, 769)]",[],[1],[],horizontal,"(390.0, 262.0)",,"('cti', 1.478),nan",0,4462.604,0
0,591,target,"[(1105, 780)]",[],[1],[0.55],vertical,"(890.0, 262.0)",0.7333333333333333,0.509,1,4467.259,1
0,592,target,"[(1126, 769)]",[],[1],[0.5166666666666666],vertical,"(390.0, 762.0)",1.5166666666666666,0.471,1,4471.966,1
0,593,target,"[(1125, 790)]",[],[1],[0.65],vertical,"(890.0, 262.0)",0.7,0.611,1,4477.088,1
0,594,target,"[(1129, 794)]",[],[1],[0.21666666666666667],horizontal,"(390.0, 762.0)",1.25,0.185,0,4481.495,0
0,595,target,"[(1115, 790)]",[],[1],[0.55],horizontal,"(890.0, 762.0)",0.7666666666666666,0.509,1,4486.197,1
0,596,target,"[(1125, 764)]",[],[1],[0.6166666666666667],vertical,"(890.0, 762.0)",1.0333333333333332,0.579,1,4491.224,1
0,597,target,"[(1105, 773)]",[],[1],[0.65],horizontal,"(390.0, 262.0)",0.5833333333333334,0.615,1,4496.255,1
0,598,target,"[(1129, 796)]",[],[1],[0.5833333333333334],vertical,"(390.0, 762.0)",0.8833333333333333,0.543,1,4501.087,2
0,599,target,"[(1125, 782)]",[],[1],[0.6333333333333333],horizontal,"(390.0, 262.0)",0.7833333333333333,0.59,1,4506.453,2
0,600,target,"[(1087, 774)]",[],[1],[0.85],horizontal,"(390.0, 262.0)",0.5,nan,0,4511.145,0
0,601,target,"[(1075, 769)]",[],[1],[0.21666666666666667],horizontal,"(890.0, 262.0)",1.4833333333333334,0.18,0,4515.104,0
0,602,target,"[(1112, 781)]",[],[1],[],horizontal,"(390.0, 762.0)",,"('cti', 1.61)",0,4519.839,0
0,603,target,"[(1057, 802)]",[],[1],[0.6166666666666667],vertical,"(390.0, 262.0)",1.0833333333333333,0.573,1,4524.255,1
0,604,target,"[(1101, 782)]",[],[1],[0.5333333333333333],horizontal,"(890.0, 262.0)",0.9333333333333333,0.491,1,4529.387,1
0,605,target,"[(1130, 770)]",[],[1],[0.7333333333333333],horizontal,"(890.0, 762.0)",0.5666666666666667,0.68,1,4534.229,1
0,606,target,"[(1112, 773)]",[],[1],[0.25],horizontal,"(890.0, 762.0)",1.4166666666666667,0.215,1,4539.131,2
0,607,target,"[(1072, 786)]",[],[1],[0.1],vertical,"(390.0, 762.0)",1.4,0.071,0,4544.43,0
0,608,target,"[(1068, 787)]",[],[1],[],vertical,"(890.0, 762.0)",,"('cti', 1.506)",0,4549.454,0
0,609,target,"[(1063, 797)]",[],[1],[0.6],horizontal,"(390.0, 762.0)",0.9666666666666667,0.562,1,4554.244,1
0,610,catch,"[(1115, 780)]",[],[1],[],vertical,"(390.0, 262.0)",,"('cti', 1.284),nan",0,4559.271,0
0,611,target,"[(1066, 796)]",[],[1],[0.36666666666666664],horizontal,"(890.0, 762.0)",1.4,0.33,1,4563.214,1
0,612,target,"[(1114, 747), (1065, 789)]",[],"[0, 1]",[0.6],horizontal,"(890.0, 762.0)",0.9166666666666666,0.556,1,4568.289,1
0,613,target,"[(1109, 793)]",[],[1],[0.5833333333333334],horizontal,"(890.0, 762.0)",0.9166666666666666,0.542,1,4574.206,1
0,614,target,"[(1084, 796)]",[],[1],[0.5166666666666666],vertical,"(390.0, 262.0)",1.1166666666666667,0.477,1,4578.738,2
0,615,target,"[(1131, 766)]",[],[1],[0.85],vertical,"(390.0, 262.0)",0.7333333333333333,nan,0,4584.375,0
0,616,target,"[(1062, 781)]",[],[1],[0.5166666666666666],vertical,"(390.0, 762.0)",1.05,0.481,1,4588.739,1
0,617,target,"[(1129, 756)]",[],[1],[0.55],horizontal,"(890.0, 762.0)",0.7666666666666666,0.51,1,4593.991,1
0,618,catch,"[(1128, 761)]",[],[1],[],vertical,"(890.0, 762.0)",1.4166666666666667,nan,1,4598.608,1
0,619,target,"[(1134, 763)]",[],[1],[0.6166666666666667],vertical,"(890.0, 762.0)",0.5833333333333334,0.57,1,4603.33,2
0,620,target,"[(1112, 762)]",[],[1],[0.25],horizontal,"(390.0, 762.0)",1.35,0.214,1,4608.417,2
0,621,target,"[(1107, 779)]",[],[1],[0.3333333333333333],horizontal,"(390.0, 762.0)",1.4666666666666666,0.297,1,4613.891,2
0,622,target,"[(1120, 761)]",[],[1],[0.5],vertical,"(890.0, 262.0)",1.0666666666666667,0.457,1,4619.211,2
0,623,target,"[(1125, 788)]",[],[1],[0.55],vertical,"(390.0, 762.0)",0.6666666666666666,0.511,1,4624.261,2
0,624,target,"[(1110, 781)]",[],[1],[0.5333333333333333],vertical,"(390.0, 262.0)",0.55,0.493,1,4629.523,3
0,625,catch,"[(1129, 756)]",[],[1],[],horizontal,"(390.0, 262.0)",1.5166666666666666,nan,1,4635.018,3
0,626,target,"[(1110, 781)]",[],[1],[0.4166666666666667],vertical,"(890.0, 262.0)",1.2833333333333332,0.377,1,4640.873,3
0,627,target,"[(1106, 765)]",[],[1],[0.18333333333333332],vertical,"(890.0, 762.0)",1.4833333333333334,0.153,0,4646.733,0
0,628,target,"[(1114, 781)]",[],[1],[0.6166666666666667],horizontal,"(390.0, 762.0)",1.0166666666666666,0.57,1,4651.384,1
0,629,catch,"[(1118, 782)]",[],[1],[],vertical,"(390.0, 762.0)",,"('cti', 1.641),nan",0,4656.522,0
0,630,target,"[(1061, 756)]",[],[1],[0.65],horizontal,"(390.0, 762.0)",0.95,0.614,1,4660.994,1
0,631,target,"[(1129, 781)]",[],[1],[0.75],vertical,"(390.0, 762.0)",0.5666666666666667,0.702,1,4665.876,1
0,632,target,"[(1108, 767)]",[],[1],[0.5333333333333333],vertical,"(390.0, 262.0)",0.7166666666666667,0.5,1,4670.076,1
0,633,target,"[(1115, 786)]",[],[1],[0.6],horizontal,"(890.0, 262.0)",0.8333333333333334,0.554,1,4674.612,2
0,634,target,"[(1110, 786)]",[],[1],[0.2833333333333333],horizontal,"(390.0, 762.0)",1.3333333333333333,0.251,1,4679.555,2
0,635,target,"[(1110, 756)]",[],[1],[0.6166666666666667],horizontal,"(390.0, 262.0)",0.6166666666666667,0.569,1,4684.866,2
0,636,catch,"[(1109, 769)]",[],[1],[],horizontal,"(390.0, 262.0)",,"('cti', 1.628),nan",0,4690.002,0
0,637,target,"[(1110, 786)]",[],[1],[0.65],horizontal,"(890.0, 262.0)",0.9,0.607,1,4694.812,1
0,638,target,"[(1111, 765)]",[],[1],[0.85],vertical,"(390.0, 762.0)",0.6,nan,0,4699.422,0
0,639,target,"[(1081, 788)]",[],[1],[0.55],vertical,"(390.0, 762.0)",0.6833333333333333,0.51,1,4703.49,1
0,640,target,"[(1076, 760)]",[],[1],[0.4166666666666667],horizontal,"(390.0, 762.0)",1.5333333333333332,0.377,1,4708.285,1
0,641,target,"[(1132, 765)]",[],[1],[0.55],horizontal,"(390.0, 262.0)",0.5,0.51,1,4713.408,1
0,642,target,"[(1106, 780)]",[],[1],[],vertical,"(890.0, 262.0)",,"('cti', 1.587)",0,4718.097,0
0,643,target,"[(1111, 789)]",[],[1],[0.4666666666666667],horizontal,"(890.0, 262.0)",1.45,0.434,1,4722.323,1
0,644,target,"[(1172, 893)]",[],[1],[0.85],vertical,"(390.0, 262.0)",0.5666666666666667,nan,0,4727.346,0
