block,trial,trial_type,taps_start_loc_during_fix,taps_end_loc_during_fix,taps_on_lever_during_fix,taps_on_lever_s_during_fix,bar_orientation,target_xy,cti,rt,acc,time,pulses,fa_rate_recent100,actual_invalid_type
0,1,catch,"[(1133, 867)]",[],[1],[],vertical,"(390.0, 262.0)",1.7,nan,1,0.588,1,0.0,same
0,2,valid,"[(1093, 839)]",[],[1],[0.7166666666666667],horizontal,"(390.0, 762.0)",0.5833333333333334,0.697,1,12.289,1,0.0,same
0,3,valid,"[(1097, 844)]",[],[1],[0.85],horizontal,"(890.0, 762.0)",1.25,nan,0,43.864,0,0.0,same
0,4,valid,"[(1073, 851)]",[],[1],[0.75],vertical,"(390.0, 262.0)",0.8666666666666667,0.715,1,51.875,1,0.0,same
0,5,valid,"[(1131, 831)]",[],[1],[0.85],vertical,"(390.0, 262.0)",1.05,nan,0,57.736,0,0.0,same
0,6,valid,"[(1074, 841)]",[],[1],[0.85],horizontal,"(390.0, 762.0)",1.4833333333333334,"('cti', 1.493),nan",0,62.967,0,0.0,same
0,7,catch,"[(1070, 818)]",[],[1],[],vertical,"(890.0, 262.0)",,"('cti', 1.554),nan",0,72.536,0,0.14285714285714285,same
0,8,invalid_same_bar,"[(1114, 809)]",[],[1],[0.85],vertical,"(890.0, 762.0)",1.5333333333333332,nan,0,79.676,0,0.125,same
0,9,valid,"[(1099, 812)]",[],[1],[0.7],horizontal,"(390.0, 262.0)",0.7333333333333333,0.676,1,85.043,1,0.1111111111111111,same
0,10,valid,"[(1170, 803)]",[],[1],[0.6],horizontal,"(390.0, 262.0)",1.4166666666666667,0.556,1,90.26,1,0.1,same
0,11,valid,"[(1165, 790)]",[],[1],[0.6833333333333333],vertical,"(390.0, 262.0)",0.8666666666666667,0.661,1,95.857,1,0.09090909090909091,same
0,12,valid,"[(1161, 793)]",[],[1],[0.5833333333333334],horizontal,"(890.0, 762.0)",0.6,0.548,1,100.552,2,0.08333333333333333,same
0,13,valid,"[(1180, 796)]",[],[1],[0.5],horizontal,"(390.0, 762.0)",0.7333333333333333,0.472,1,105.823,2,0.07692307692307693,same
0,14,valid,"[(1173, 769)]",[],[1],[0.5666666666666667],vertical,"(390.0, 262.0)",1.0833333333333333,0.543,1,110.814,2,0.07142857142857142,same
0,15,valid,"[(1165, 770)]",[],[1],[0.65],vertical,"(890.0, 262.0)",0.5833333333333334,0.628,1,116.382,3,0.06666666666666667,same
0,16,catch,"[(1165, 758)]",[],[1],[],horizontal,"(890.0, 762.0)",1.7,nan,1,122.57,3,0.0625,same
0,17,valid,"[(1165, 773)]",[],[1],[0.6],vertical,"(890.0, 762.0)",0.5166666666666666,0.557,1,128.79,3,0.058823529411764705,same
0,18,valid,"[(1136, 761)]",[],[1],[0.5666666666666667],vertical,"(890.0, 762.0)",1.4333333333333333,0.544,1,133.85,3,0.05555555555555555,same
0,19,catch,"[(1183, 773)]","[(1117, 847)]",[1],[0.3833333333333333],horizontal,"(890.0, 762.0)",,"('bar', 0.391),nan",0,140.278,0,0.10526315789473684,same
0,20,valid,"[(1143, 816)]",[],[1],[0.5166666666666666],horizontal,"(890.0, 262.0)",0.7333333333333333,0.477,1,142.882,1,0.1,same
0,21,catch,"[(1176, 786)]",[],[1],[],horizontal,"(890.0, 762.0)",1.7,nan,1,147.551,1,0.09523809523809523,same
0,22,valid,"[(1138, 760)]",[],[1],[0.13333333333333333],vertical,"(390.0, 262.0)",1.5333333333333332,0.101,0,152.639,0,0.09090909090909091,same
0,23,catch,"[(1151, 819)]",[],[1],[],vertical,"(890.0, 762.0)",1.7,nan,1,157.827,1,0.08695652173913043,same
0,24,invalid_same_bar,"[(1176, 757)]",[],[1],[0.5666666666666667],vertical,"(890.0, 762.0)",1.35,0.541,1,163.309,1,0.08333333333333333,same
0,25,valid,"[(1176, 763)]",[],[1],[0.7166666666666667],vertical,"(390.0, 262.0)",0.3833333333333333,0.685,1,169.009,1,0.08,same
0,26,catch,"[(1183, 776)]",[],[1],[],horizontal,"(390.0, 262.0)",1.7,nan,1,173.616,2,0.07692307692307693,same
0,27,catch,"[(1181, 767)]",[],[1],[],horizontal,"(890.0, 262.0)",1.7,nan,1,179.584,2,0.07407407407407407,same
0,28,invalid_adjacent_other_bar,"[(1170, 780)]",[],[1],[0.5666666666666667],vertical,"(890.0, 262.0)",1.35,0.541,1,185.069,2,0.07142857142857142,other
0,29,valid,"[(1178, 760)]",[],[1],[0.75],vertical,"(390.0, 262.0)",0.3833333333333333,0.721,1,191.05,3,0.06896551724137931,same
0,30,valid,"[(1180, 774)]",[],[1],[0.6666666666666666],horizontal,"(890.0, 262.0)",1.2333333333333334,0.625,1,196.882,3,0.06666666666666667,same
0,31,valid,"[(1173, 757)]",[],[1],[0.7333333333333333],vertical,"(890.0, 762.0)",0.3833333333333333,0.691,1,202.766,3,0.06451612903225806,same
0,32,catch,"[(1175, 765)]",[],[1],[],vertical,"(890.0, 762.0)",1.7,nan,1,208.036,3,0.0625,same
0,33,invalid_same_bar,"[(1163, 773)]",[],[1],"[0.85, 0.85]",horizontal,"(390.0, 262.0)",1.25,"0.827,nan",0,214.282,0,0.06060606060606061,same
0,34,invalid_adjacent_other_bar,"[(1145, 782)]",[],[1],[0.23333333333333334],vertical,"(890.0, 762.0)",1.4666666666666666,0.2,1,219.208,1,0.058823529411764705,other
0,35,valid,"[(1166, 756)]",[],[1],[0.5833333333333334],horizontal,"(390.0, 762.0)",0.36666666666666664,0.547,1,224.641,1,0.05714285714285714,same
0,36,valid,"[(1165, 757)]",[],[1],[0.65],vertical,"(890.0, 262.0)",0.5,0.626,1,228.953,1,0.05555555555555555,same
0,37,valid,"[(1175, 757)]",[],[1],[0.65],vertical,"(390.0, 762.0)",0.65,0.627,1,233.547,2,0.05405405405405406,same
0,38,invalid_adjacent_other_bar,"[(1174, 774)]","[(1176, 817)]",[1],[0.5],horizontal,"(390.0, 762.0)",,"('bar', 0.527)",0,238.861,0,0.05263157894736842,other
0,39,catch,"[(1154, 794)]",[],[1],[],vertical,"(890.0, 762.0)",,"('cti', 1.144),nan",0,241.419,0,0.07692307692307693,same
0,40,valid,"[(1161, 791)]",[],[1],[0.35],horizontal,"(890.0, 262.0)",1.4833333333333334,0.317,1,245.853,1,0.075,same
0,41,valid,"[(1163, 765)]",[],[1],[0.65],vertical,"(390.0, 262.0)",0.6666666666666666,0.612,1,251.101,1,0.07317073170731707,same
0,42,valid,"[(1162, 772)]",[],[1],[0.25],vertical,"(390.0, 762.0)",1.5333333333333332,0.22,1,255.835,1,0.07142857142857142,same
0,43,valid,"[(1190, 756)]",[],[1],[0.5],vertical,"(390.0, 262.0)",1.0833333333333333,0.475,1,261.305,2,0.06976744186046512,same
0,44,catch,"[(1180, 774)]",[],[1],[],vertical,"(390.0, 762.0)",1.7,nan,1,267.111,2,0.06818181818181818,same
0,45,catch,"[(1174, 757)]",[],[1],[],vertical,"(890.0, 762.0)",1.7,nan,1,273.212,2,0.06666666666666667,same
0,46,catch,"[(1176, 769)]",[],[1],[],vertical,"(390.0, 762.0)",1.7,nan,1,279.151,3,0.06521739130434782,same
0,47,catch,"[(1180, 765)]",[],[1],[],horizontal,"(390.0, 762.0)",1.7,"('cti', 1.727),nan",0,285.266,0,0.0851063829787234,same
0,48,catch,"[(1170, 791)]",[],[1],[],vertical,"(390.0, 262.0)",1.7,nan,1,290.265,1,0.08333333333333333,same
0,49,valid,"[(1165, 776)]",[],[1],[0.2],vertical,"(890.0, 762.0)",0.9666666666666667,0.172,0,295.594,0,0.08163265306122448,same
0,50,invalid_adjacent_other_bar,"[(1149, 790)]",[],[1],[0.6],vertical,"(890.0, 262.0)",0.5333333333333333,0.563,1,299.763,1,0.08,other
0,51,valid,"[(1179, 766)]",[],[1],[0.7833333333333333],horizontal,"(390.0, 762.0)",0.8166666666666667,0.758,1,304.176,1,0.08,same
0,52,valid,"[(1135, 820)]",[],[1],[0.7166666666666667],vertical,"(390.0, 762.0)",0.8,0.689,1,309.282,1,0.08,same
0,53,invalid_adjacent_other_bar,"[(1160, 771)]",[],[1],[0.5166666666666666],vertical,"(890.0, 762.0)",0.55,0.492,1,314.208,2,0.08,other
0,54,invalid_adjacent_other_bar,"[(1165, 767)]",[],[1],[0.55],vertical,"(890.0, 762.0)",0.5,0.52,1,319.373,2,0.08,other
0,55,invalid_same_bar,"[(1160, 769)]",[],[1],[0.85],vertical,"(390.0, 762.0)",1.2666666666666666,nan,0,324.23,0,0.08,same
0,56,valid,"[(1138, 775)]",[],[1],[0.5166666666666666],vertical,"(890.0, 262.0)",0.7333333333333333,0.47,1,329.453,1,0.08,same
0,57,valid,"[(1175, 758)]",[],[1],[0.55],vertical,"(890.0, 262.0)",1.0166666666666666,0.52,1,334.055,1,0.06,same
0,58,valid,"[(1213, 776)]",[],[1],[0.7333333333333333],horizontal,"(890.0, 262.0)",0.8833333333333333,0.691,1,339.088,1,0.06,same
0,59,invalid_adjacent_other_bar,"[(1179, 782)]",[],[1],[0.85],vertical,"(390.0, 262.0)",1.3,nan,0,344.461,0,0.06,other
0,60,valid,"[(1169, 796)]",[],[1],[0.5666666666666667],vertical,"(390.0, 262.0)",0.7,0.524,1,349.651,1,0.06,same
0,61,valid,"[(1180, 772)]",[],[1],[0.5833333333333334],horizontal,"(890.0, 762.0)",0.8,0.54,1,354.133,1,0.06,same
0,62,invalid_adjacent_other_bar,"[(1184, 748), (1139, 818)]",[],"[0, 1]",[0.85],horizontal,"(390.0, 762.0)",0.7166666666666667,nan,0,359.155,0,0.06,other
0,63,catch,"[(1158, 786)]",[],[1],[],horizontal,"(890.0, 762.0)",,"('cti', 1.366),nan",0,365.005,0,0.08,same
0,64,catch,"[(1146, 804)]",[],[1],[],vertical,"(390.0, 262.0)",,"('cti', 0.716),nan",0,369.406,0,0.1,same
0,65,valid,"[(1155, 773)]",[],[1],[0.36666666666666664],horizontal,"(390.0, 262.0)",0.7,0.328,1,373.627,1,0.1,same
0,66,invalid_adjacent_other_bar,"[(1175, 772)]",[],[1],[0.48333333333333334],vertical,"(890.0, 262.0)",1.2833333333333332,0.442,1,378.737,1,0.1,other
0,67,valid,"[(1164, 766)]",[],[1],[0.5666666666666667],vertical,"(890.0, 262.0)",1.5166666666666666,0.526,1,384.048,1,0.1,same
0,68,valid,"[(1169, 776)]",[],[1],[0.6166666666666667],vertical,"(390.0, 762.0)",1.45,0.57,1,389.284,2,0.1,same
0,69,valid,"[(1162, 788)]",[],[1],[0.2833333333333333],horizontal,"(390.0, 762.0)",1.3166666666666667,0.252,1,395.285,2,0.08,same
0,70,valid,"[(1169, 775)]",[],[1],[0.5833333333333334],vertical,"(890.0, 262.0)",1.3833333333333333,0.54,1,401.146,2,0.08,same
0,71,valid,"[(1162, 774)]",[],[1],[0.55],vertical,"(890.0, 762.0)",0.5166666666666666,0.506,1,407.241,3,0.08,same
0,72,valid,"[(1182, 782)]",[],[1],[0.5166666666666666],vertical,"(890.0, 762.0)",0.6333333333333333,0.475,1,412.901,3,0.08,same
0,73,catch,"[(1180, 778)]",[],[1],[],horizontal,"(390.0, 262.0)",1.7,nan,1,418.44,3,0.08,same
0,74,valid,"[(1161, 790)]",[],[1],[0.5],vertical,"(390.0, 262.0)",0.8333333333333334,0.462,1,424.44,3,0.08,same
0,75,valid,"[(1170, 782)]",[],[1],[0.85],vertical,"(890.0, 262.0)",1.2833333333333332,nan,0,429.93,0,0.08,same
0,76,valid,"[(1155, 785)]",[],[1],[0.5333333333333333],horizontal,"(390.0, 762.0)",0.5833333333333334,0.49,1,434.823,1,0.08,same
0,77,valid,"[(1167, 762)]",[],[1],[0.6166666666666667],horizontal,"(390.0, 762.0)",1.4333333333333333,0.571,1,439.627,1,0.08,same
0,78,valid,"[(1167, 762)]",[],[1],[0.7833333333333333],vertical,"(890.0, 762.0)",0.35,0.734,1,445.339,1,0.08,same
0,79,valid,"[(1161, 782)]",[],[1],[0.6],vertical,"(890.0, 762.0)",0.55,0.557,1,449.764,2,0.08,same
0,80,invalid_adjacent_other_bar,"[(1179, 776)]",[],[1],[0.85],vertical,"(390.0, 762.0)",1.15,nan,0,455.073,0,0.08,other
0,81,invalid_adjacent_other_bar,"[(1159, 783)]",[],[1],[0.5333333333333333],vertical,"(890.0, 762.0)",0.5166666666666666,0.491,1,459.919,1,0.08,other
0,82,valid,"[(1166, 767)]",[],[1],[0.65],horizontal,"(390.0, 762.0)",0.7333333333333333,0.609,1,464.212,1,0.08,same
0,83,valid,"[(1176, 771)]",[],[1],[0.7333333333333333],vertical,"(390.0, 262.0)",1.1,0.688,1,469.197,1,0.08,same
0,84,catch,"[(1160, 782)]",[],[1],[],horizontal,"(890.0, 762.0)",1.7,nan,1,474.257,2,0.08,same
0,85,valid,"[(1172, 770)]",[],[1],[0.6],horizontal,"(890.0, 762.0)",1.1666666666666667,0.556,1,479.777,2,0.08,same
0,86,valid,"[(1170, 773)]",[],[1],[0.5166666666666666],horizontal,"(890.0, 262.0)",1.0166666666666666,0.479,1,485.803,2,0.08,same
0,87,invalid_adjacent_other_bar,"[(1170, 773)]",[],[1],[0.7833333333333333],vertical,"(390.0, 262.0)",1.5166666666666666,0.739,1,491.013,3,0.08,other
0,88,valid,"[(1180, 770)]",[],[1],[0.5333333333333333],vertical,"(390.0, 262.0)",0.75,0.493,1,497.613,3,0.08,same
0,89,invalid_adjacent_other_bar,"[(1174, 786)]",[],[1],[0.85],vertical,"(390.0, 762.0)",0.5666666666666667,nan,0,503.141,0,0.06,other
0,90,catch,"[(1159, 780)]",[],[1],[],vertical,"(890.0, 762.0)",1.7,nan,1,507.589,1,0.06,same
0,91,valid,"[(1180, 777)]",[],[1],[0.85],vertical,"(890.0, 762.0)",0.9166666666666666,nan,0,512.84,0,0.06,same
0,92,valid,"[(1155, 786)]",[],[1],[],vertical,"(890.0, 762.0)",,"('cti', 1.29)",0,517.619,0,0.06,same
0,93,catch,"[(1148, 782)]",[],[1],[],vertical,"(890.0, 762.0)",,"('cti', 0.896),nan",0,521.875,0,0.08,same
0,94,invalid_adjacent_other_bar,"[(1145, 786)]",[],[1],[0.55],vertical,"(390.0, 262.0)",0.9333333333333333,0.508,1,526.057,1,0.08,other
0,95,valid,"[(1162, 770)]",[],[1],[0.5333333333333333],vertical,"(390.0, 762.0)",1.4666666666666666,0.496,1,530.774,1,0.08,same
0,96,invalid_same_bar,"[(1185, 778)]",[],[1],[0.85],vertical,"(890.0, 262.0)",1.2166666666666666,nan,0,535.991,0,0.08,same
0,97,valid,"[(1154, 789)]",[],[1],[0.7],vertical,"(390.0, 762.0)",0.48333333333333334,0.655,1,540.706,1,0.06,same
0,98,valid,"[(1184, 763)]",[],[1],[0.25],horizontal,"(890.0, 262.0)",1.2833333333333332,0.218,1,545.282,1,0.06,same
0,99,valid,"[(1170, 786)]",[],[1],[0.6],vertical,"(390.0, 262.0)",1.1833333333333333,0.559,1,550.65,1,0.06,same
0,100,valid,"[(1175, 770)]",[],[1],[0.85],vertical,"(390.0, 262.0)",1.15,nan,0,555.79,0,0.06,same
0,101,valid,"[(1168, 795)]",[],[1],[0.65],horizontal,"(890.0, 262.0)",1.3,0.609,1,560.557,1,0.06,same
0,102,valid,"[(1173, 766)]",[],[1],[0.5833333333333334],horizontal,"(390.0, 762.0)",1.4833333333333334,0.543,1,565.839,1,0.06,same
0,103,valid,"[(1178, 786)]",[],[1],[0.5],vertical,"(890.0, 262.0)",0.7,0.461,1,571.69,1,0.06,same
0,104,catch,"[(1180, 790)]",[],[1],[],vertical,"(890.0, 262.0)",,"('cti', 0.031),nan",0,576.624,0,0.08,same
0,105,valid,"[(1158, 801)]",[],[1],[0.4166666666666667],horizontal,"(890.0, 762.0)",1.2166666666666666,0.377,1,579.539,1,0.08,same
0,106,catch,"[(1163, 772)]",[],[1],[],horizontal,"(890.0, 262.0)",1.7,nan,1,584.94,1,0.08,same
0,107,valid,"[(1180, 790)]",[],[1],[0.5666666666666667],horizontal,"(390.0, 762.0)",0.9666666666666667,0.523,1,590.223,1,0.08,same
0,108,valid,"[(1180, 767)]",[],[1],[0.85],vertical,"(390.0, 262.0)",1.2833333333333332,nan,0,595.456,0,0.08,same
0,109,valid,"[(1141, 772)]",[],[1],[0.5833333333333334],horizontal,"(390.0, 762.0)",1.35,0.542,1,600.913,1,0.08,same
0,110,valid,"[(1188, 772)]",[],[1],[0.7],horizontal,"(890.0, 262.0)",0.9833333333333333,0.657,1,606.09,1,0.08,same
0,111,catch,"[(1177, 759)]",[],[1],[],horizontal,"(890.0, 762.0)",1.7,nan,1,611.239,1,0.08,same
0,112,catch,"[(1165, 760)]",[],[1],[],horizontal,"(890.0, 762.0)",1.7,nan,1,616.186,2,0.08,same
0,113,valid,"[(1160, 756)]",[],[1],[0.5166666666666666],vertical,"(390.0, 262.0)",0.9833333333333333,0.474,1,622.307,2,0.06,same
0,114,valid,"[(1179, 783)]",[],[1],[0.6666666666666666],horizontal,"(890.0, 762.0)",0.5666666666666667,0.623,1,627.477,2,0.04,same
0,115,catch,"[(1181, 773)]",[],[1],[],vertical,"(390.0, 262.0)",1.7,nan,1,632.406,3,0.04,same
0,116,valid,"[(1169, 772)]",[],[1],[0.6166666666666667],vertical,"(390.0, 262.0)",1.4833333333333334,0.572,1,639.057,3,0.04,same
0,117,valid,"[(1155, 791)]",[],[1],[0.6],vertical,"(390.0, 262.0)",0.9166666666666666,0.557,1,645.357,3,0.04,same
0,118,catch,"[(1180, 792)]",[],[1],[],horizontal,"(890.0, 262.0)",1.7,nan,1,651.273,3,0.04,same
0,119,valid,"[(1165, 776)]",[],[1],[0.6833333333333333],vertical,"(390.0, 262.0)",0.5166666666666666,0.643,1,657.055,3,0.04,same
0,120,valid,"[(1169, 771)]",[],[1],[0.6166666666666667],horizontal,"(390.0, 262.0)",0.55,0.572,1,662.591,3,0.04,same
0,121,valid,"[(1180, 781)]",[],[1],[0.6666666666666666],horizontal,"(390.0, 262.0)",0.6666666666666666,0.621,1,668.303,3,0.04,same
0,122,invalid_adjacent_other_bar,"[(1180, 763)]",[],[1],[0.5166666666666666],horizontal,"(890.0, 262.0)",0.8,0.477,1,673.923,3,0.04,other
0,123,valid,"[(1165, 767)]",[],[1],[0.65],horizontal,"(390.0, 262.0)",1.4333333333333333,0.614,1,679.341,3,0.04,same
0,124,valid,"[(1170, 762)]",[],[1],[0.55],vertical,"(390.0, 262.0)",0.5333333333333333,0.515,1,686.089,3,0.04,same
0,125,valid,"[(1176, 754)]",[],[1],[0.5333333333333333],vertical,"(390.0, 762.0)",1.4666666666666666,0.486,1,691.457,3,0.04,same
0,126,valid,"[(1156, 774)]",[],[1],[0.5833333333333334],vertical,"(890.0, 762.0)",0.7333333333333333,0.541,1,697.891,3,0.04,same
0,127,valid,"[(1175, 767)]",[],[1],[0.6833333333333333],horizontal,"(890.0, 762.0)",1.4,0.636,1,703.49,3,0.04,same
0,128,invalid_adjacent_other_bar,"[(1163, 766)]",[],[1],[0.7],horizontal,"(390.0, 262.0)",1.25,0.652,1,709.927,3,0.04,other
0,129,valid,"[(1171, 781)]",[],[1],[0.5333333333333333],vertical,"(890.0, 762.0)",0.5166666666666666,0.499,1,716.243,3,0.04,same
0,130,valid,"[(1165, 752), (1137, 807)]",[],"[0, 1]",[0.6166666666666667],vertical,"(890.0, 262.0)",0.8666666666666667,0.568,1,721.539,3,0.04,same
0,131,invalid_same_bar,"[(1165, 791)]",[],[1],[0.85],horizontal,"(890.0, 262.0)",0.35,nan,0,728.973,0,0.04,same
0,132,valid,"[(1139, 765)]",[],[1],[0.5333333333333333],vertical,"(390.0, 262.0)",0.85,0.489,1,733.217,1,0.04,same
0,133,valid,"[(1168, 776)]",[],[1],[0.5333333333333333],vertical,"(390.0, 762.0)",1.4666666666666666,0.494,1,738.329,1,0.04,same
0,134,valid,"[(1180, 757)]",[],[1],[0.65],vertical,"(390.0, 762.0)",0.8666666666666667,0.598,1,743.457,1,0.04,same
0,135,valid,"[(1197, 777)]",[],[1],[0.5166666666666666],vertical,"(890.0, 262.0)",0.8833333333333333,0.473,1,748.541,2,0.04,same
0,136,valid,"[(1175, 765)]",[],[1],[0.85],horizontal,"(390.0, 762.0)",0.4,nan,0,753.989,0,0.04,same
0,137,valid,"[(1161, 788)]",[],[1],[0.5666666666666667],vertical,"(390.0, 262.0)",0.8833333333333333,0.522,1,758.273,1,0.04,same
0,138,valid,"[(1170, 768)]",[],[1],[0.5833333333333334],vertical,"(890.0, 762.0)",0.7666666666666666,0.543,1,763.249,1,0.04,same
0,139,valid,"[(1168, 768)]",[],[1],[0.85],vertical,"(890.0, 762.0)",0.85,nan,0,768.007,0,0.04,same
0,140,valid,"[(1142, 787)]",[],[1],[0.5666666666666667],horizontal,"(390.0, 262.0)",0.95,0.519,1,772.279,1,0.04,same
0,141,valid,"[(1158, 743), (1129, 802)]",[],"[0, 1]",[0.7166666666666667],vertical,"(390.0, 762.0)",0.4166666666666667,0.668,1,777.399,1,0.04,same
0,142,invalid_same_bar,"[(1171, 751), (1115, 789)]",[],"[0, 1]",[0.5333333333333333],vertical,"(890.0, 762.0)",1.0833333333333333,0.489,1,783.789,1,0.04,same
0,143,valid,"[(1161, 754)]",[],[1],[0.6],horizontal,"(890.0, 762.0)",1.2,0.555,1,790.165,2,0.02,same
0,144,valid,"[(1169, 767)]",[],[1],[0.6],vertical,"(890.0, 262.0)",1.35,0.566,1,796.05,2,0.02,same
0,145,valid,"[(1174, 765)]",[],[1],[0.6833333333333333],vertical,"(890.0, 262.0)",1.35,0.638,1,801.541,2,0.02,same
0,146,valid,"[(1163, 766)]",[],[1],[0.6166666666666667],vertical,"(390.0, 262.0)",0.65,0.569,1,807.956,3,0.02,same
0,147,valid,"[(1158, 781)]",[],[1],[0.85],horizontal,"(890.0, 762.0)",1.0666666666666667,nan,0,813.807,0,0.02,same
0,148,catch,"[(1160, 766)]",[],[1],[],vertical,"(390.0, 762.0)",1.7,nan,1,818.5,1,0.02,same
0,149,valid,"[(1166, 767)]",[],[1],[0.5166666666666666],horizontal,"(390.0, 262.0)",0.5833333333333334,0.471,1,823.398,1,0.02,same
0,150,valid,"[(1175, 786)]",[],[1],[0.5666666666666667],vertical,"(390.0, 762.0)",1.45,0.523,1,827.785,1,0.02,same
0,151,catch,"[(1155, 770)]",[],[1],[],horizontal,"(890.0, 262.0)",1.7,nan,1,833.507,2,0.02,same
0,152,catch,"[(1162, 773)]",[],[1],[],horizontal,"(890.0, 262.0)",1.7,nan,1,839.043,2,0.02,same
0,153,catch,"[(1157, 792)]",[],[1],[],horizontal,"(890.0, 762.0)",1.7,nan,1,844.549,2,0.02,same
0,154,invalid_adjacent_other_bar,"[(1175, 788)]",[],[1],[0.6],vertical,"(890.0, 762.0)",1.4666666666666666,0.553,1,850.215,3,0.0,other
0,155,valid,"[(1179, 776)]",[],[1],[0.5166666666666666],horizontal,"(890.0, 762.0)",0.95,0.475,1,857.025,3,0.0,same
0,156,invalid_adjacent_other_bar,"[(1175, 788)]",[],[1],[0.6],horizontal,"(890.0, 762.0)",1.0166666666666666,0.553,1,862.974,3,0.0,other
0,157,valid,"[(1179, 775)]",[],[1],[0.5666666666666667],vertical,"(890.0, 762.0)",1.5,0.526,1,868.857,3,0.0,same
0,158,valid,"[(1158, 766)]",[],[1],[0.7],vertical,"(390.0, 262.0)",1.4833333333333334,0.656,1,874.85,3,0.0,same
0,159,valid,"[(1180, 776)]",[],[1],[0.7333333333333333],horizontal,"(390.0, 262.0)",0.6833333333333333,0.689,1,881.475,3,0.0,same
0,160,valid,"[(1165, 781)]",[],[1],[0.6666666666666666],vertical,"(390.0, 762.0)",1.3166666666666667,0.624,1,886.89,3,0.0,same
0,161,catch,"[(1162, 769)]",[],[1],[],vertical,"(890.0, 762.0)",1.7,nan,1,893.109,3,0.0,same
0,162,valid,"[(1178, 759)]",[],[1],[0.7166666666666667],vertical,"(390.0, 762.0)",0.4166666666666667,0.666,1,899.475,3,0.0,same
0,163,catch,"[(1175, 785)]",[],[1],[],vertical,"(390.0, 262.0)",1.7,nan,1,904.958,3,0.0,same
0,164,catch,"[(1163, 775)]",[],[1],[],vertical,"(890.0, 762.0)",1.7,nan,1,911.24,3,0.0,same
0,165,valid,"[(1167, 770)]",[],[1],[0.6833333333333333],vertical,"(890.0, 762.0)",0.6833333333333333,0.643,1,917.191,3,0.0,same
0,166,catch,"[(1175, 765)]",[],[1],[],horizontal,"(890.0, 762.0)",1.7,nan,1,922.857,3,0.0,same
0,167,catch,"[(1178, 762)]",[],[1],[],vertical,"(390.0, 762.0)",1.7,nan,1,928.891,3,0.0,same
0,168,valid,"[(1160, 764)]",[],[1],[0.65],horizontal,"(390.0, 262.0)",1.2,0.603,1,934.661,3,0.0,same
0,169,valid,"[(1163, 769)]",[],[1],[0.5333333333333333],horizontal,"(390.0, 762.0)",1.5333333333333332,0.492,1,940.474,3,0.0,same
0,170,catch,"[(1174, 758)]",[],[1],[],vertical,"(890.0, 762.0)",1.7,nan,1,946.63,3,0.0,same
0,171,valid,"[(1170, 783)]",[],[1],[0.55],vertical,"(390.0, 262.0)",1.1,0.511,1,952.775,3,0.0,same
0,172,catch,"[(1167, 781)]",[],[1],[],vertical,"(390.0, 262.0)",1.7,nan,1,958.358,3,0.0,same
0,173,catch,"[(1173, 764)]",[],[1],[],horizontal,"(890.0, 262.0)",1.7,nan,1,964.124,3,0.0,same
0,174,valid,"[(1162, 769)]",[],[1],[0.5833333333333334],horizontal,"(890.0, 262.0)",1.3666666666666667,0.541,1,970.02,3,0.0,same
0,175,valid,"[(1164, 777)]",[],[1],[0.6333333333333333],vertical,"(890.0, 762.0)",1.2666666666666666,0.592,1,976.207,3,0.0,same
0,176,valid,"[(1170, 791)]",[],[1],[0.5],vertical,"(390.0, 762.0)",1.5333333333333332,0.462,1,982.517,3,0.0,same
0,177,valid,"[(1169, 764)]",[],[1],[0.5833333333333334],vertical,"(390.0, 262.0)",0.8666666666666667,0.538,1,988.807,3,0.0,same
0,178,invalid_adjacent_other_bar,"[(1153, 776)]",[],[1],[0.5666666666666667],horizontal,"(890.0, 262.0)",0.9333333333333333,0.522,1,994.49,3,0.0,other
0,179,catch,"[(1178, 774)]",[],[1],[],vertical,"(890.0, 762.0)",1.7,nan,1,1000.792,3,0.0,same
0,180,invalid_same_bar,"[(1160, 772)]",[],[1],[0.55],horizontal,"(890.0, 762.0)",1.4166666666666667,0.509,1,1006.618,3,0.0,same
0,181,valid,"[(1161, 769)]",[],[1],[0.5166666666666666],vertical,"(390.0, 762.0)",1.5166666666666666,0.473,1,1013.141,3,0.0,same
0,182,valid,"[(1177, 763)]",[],[1],[0.6833333333333333],vertical,"(890.0, 762.0)",0.3833333333333333,0.637,1,1019.303,3,0.0,same
0,183,catch,"[(1160, 781)]",[],[1],[],vertical,"(390.0, 262.0)",1.7,nan,1,1025.129,3,0.0,same
0,184,valid,"[(1180, 770)]",[],[1],[0.5333333333333333],vertical,"(390.0, 262.0)",1.0166666666666666,0.494,1,1031.169,3,0.0,same
0,185,valid,"[(1175, 777)]",[],[1],[0.6],vertical,"(390.0, 762.0)",0.8,0.554,1,1036.892,3,0.0,same
0,186,catch,"[(1161, 762)]",[],[1],[],vertical,"(890.0, 262.0)",1.7,nan,1,1042.346,3,0.0,same
0,187,valid,"[(1185, 761)]",[],[1],[0.85],horizontal,"(890.0, 762.0)",0.5333333333333333,nan,0,1048.708,0,0.0,same
0,188,valid,"[(1164, 756)]",[],[1],[0.6],vertical,"(890.0, 762.0)",0.8,0.554,1,1053.176,1,0.0,same
0,189,valid,"[(1161, 773)]",[],[1],[0.7833333333333333],horizontal,"(390.0, 762.0)",1.0166666666666666,0.737,1,1058.419,1,0.0,same
0,190,valid,"[(1170, 766)]",[],[1],[0.3833333333333333],horizontal,"(390.0, 762.0)",0.8666666666666667,0.353,1,1063.498,1,0.0,same
0,191,valid,"[(1180, 776)]",[],[1],[0.75],horizontal,"(390.0, 762.0)",0.9833333333333333,0.703,1,1068.608,2,0.0,same
0,192,invalid_same_bar,"[(1174, 767)]",[],[1],[0.6333333333333333],vertical,"(390.0, 262.0)",1.3833333333333333,0.591,1,1074.395,2,0.0,same
0,193,valid,"[(1180, 779)]",[],[1],[0.7166666666666667],horizontal,"(890.0, 262.0)",1.5,0.677,1,1080.21,2,0.0,same
0,194,catch,"[(1160, 787)]",[],[1],[],horizontal,"(890.0, 262.0)",1.7,nan,1,1086.831,3,0.0,same
0,195,catch,"[(1175, 783)]",[],[1],[],vertical,"(390.0, 262.0)",1.7,nan,1,1092.926,3,0.0,same
0,196,valid,"[(1162, 763)]",[],[1],[0.65],vertical,"(390.0, 762.0)",0.5,0.606,1,1098.89,3,0.0,same
0,197,valid,"[(1160, 765)]",[],[1],[0.5333333333333333],vertical,"(390.0, 262.0)",0.36666666666666664,0.5,1,1104.497,3,0.0,same
0,198,catch,"[(1155, 765)]",[],[1],[],vertical,"(890.0, 762.0)",1.7,nan,1,1109.526,3,0.0,same
0,199,valid,"[(1168, 765)]",[],[1],[0.8],horizontal,"(390.0, 762.0)",0.8166666666666667,0.749,1,1115.277,3,0.0,same
0,200,valid,"[(1165, 752), (1123, 803)]",[],"[0, 1]",[],vertical,"(390.0, 762.0)",,"('cti', 0.564)",0,1121.375,0,0.0,same
0,201,valid,"[(1150, 777)]",[],[1],[0.5333333333333333],vertical,"(890.0, 762.0)",1.1166666666666667,0.496,1,1126.216,1,0.0,same
0,202,valid,"[(1172, 776)]",[],[1],[0.6],horizontal,"(390.0, 762.0)",0.8,0.563,1,1131.291,1,0.0,same
0,203,valid,"[(1163, 775)]",[],[1],[0.5833333333333334],horizontal,"(390.0, 262.0)",0.4666666666666667,0.538,1,1136.107,1,0.0,same
0,204,valid,"[(1179, 779)]",[],[1],[0.5666666666666667],horizontal,"(890.0, 262.0)",1.0166666666666666,0.519,1,1140.796,2,0.0,same
0,205,valid,"[(1167, 768)]",[],[1],[0.5333333333333333],vertical,"(890.0, 262.0)",0.6333333333333333,0.489,1,1146.466,2,0.0,same
0,206,valid,"[(1161, 791)]",[],[1],[0.85],vertical,"(890.0, 762.0)",0.8666666666666667,nan,0,1151.791,0,0.0,same
0,207,valid,"[(1155, 788)]",[],[1],[0.3833333333333333],vertical,"(390.0, 762.0)",1.3666666666666667,0.347,1,1157.109,1,0.0,same
0,208,catch,"[(1176, 776)]",[],[1],[],vertical,"(890.0, 762.0)",1.7,nan,1,1162.819,1,0.0,same
0,209,catch,"[(1156, 787)]",[],[1],[],vertical,"(890.0, 262.0)",1.7,nan,1,1168.659,1,0.0,same
0,210,valid,"[(1175, 762)]",[],[1],[0.7],horizontal,"(890.0, 762.0)",1.4333333333333333,0.661,1,1174.453,2,0.0,same
0,211,valid,"[(1184, 776)]",[],[1],[0.65],vertical,"(390.0, 262.0)",0.5166666666666666,0.611,1,1180.594,2,0.0,same
0,212,catch,"[(1175, 770)]",[],[1],[],horizontal,"(890.0, 762.0)",1.7,nan,1,1185.691,2,0.0,same
0,213,valid,"[(1160, 757)]",[],[1],[0.5833333333333334],horizontal,"(890.0, 762.0)",1.0333333333333332,0.541,1,1191.896,3,0.0,same
0,214,valid,"[(1160, 772)]",[],[1],[0.5666666666666667],vertical,"(390.0, 762.0)",0.65,0.526,1,1198.107,3,0.0,same
0,215,valid,"[(1160, 766)]",[],[1],[0.6],vertical,"(890.0, 262.0)",1.3833333333333333,0.559,1,1203.576,3,0.0,same
0,216,catch,"[(1164, 772)]",[],[1],[],vertical,"(890.0, 762.0)",1.7,nan,1,1209.781,3,0.0,same
0,217,catch,"[(1150, 760)]",[],[1],[],horizontal,"(890.0, 262.0)",,"('cti', 0.868),nan",0,1215.575,0,0.02,same
0,218,valid,"[(1146, 782)]",[],[1],[0.5333333333333333],horizontal,"(390.0, 762.0)",1.2833333333333332,0.495,1,1220.143,1,0.02,same
0,219,valid,"[(1182, 776)]",[],[1],[0.6333333333333333],horizontal,"(890.0, 762.0)",0.4,0.594,1,1225.636,1,0.02,same
0,220,invalid_same_bar,"[(1140, 765)]",[],[1],[0.5166666666666666],horizontal,"(390.0, 262.0)",1.2833333333333332,0.476,1,1229.909,1,0.02,same
0,221,valid,"[(1175, 825)]",[],[1],[0.5833333333333334],horizontal,"(390.0, 262.0)",1.35,0.542,1,1234.924,2,0.02,same
0,222,valid,"[(1176, 787)]",[],[1],[0.65],horizontal,"(390.0, 762.0)",0.9333333333333333,0.607,1,1276.346,2,0.02,same
0,223,catch,"[(1160, 782)]",[],[1],[],vertical,"(890.0, 762.0)",1.7,nan,1,1282.55,2,0.02,same
0,224,valid,"[(1178, 776)]",[],[1],[0.7],horizontal,"(390.0, 262.0)",0.36666666666666664,0.656,1,1288.843,3,0.02,same
0,225,valid,"[(1170, 766)]",[],[1],[0.85],horizontal,"(890.0, 762.0)",1.0833333333333333,nan,0,1294.342,0,0.02,same
0,226,valid,"[(1146, 782)]",[],[1],[0.6],vertical,"(390.0, 762.0)",1.0833333333333333,0.568,1,1299.492,1,0.02,same
0,227,valid,"[(1185, 787)]",[],[1],[0.5166666666666666],horizontal,"(890.0, 262.0)",0.5,0.475,1,1304.493,1,0.02,same
0,228,valid,"[(1185, 763)]",[],[1],[0.7],horizontal,"(890.0, 762.0)",1.3,0.654,1,1309.192,1,0.02,same
0,229,valid,"[(1180, 786)]",[],[1],[0.5166666666666666],horizontal,"(890.0, 262.0)",1.3,0.481,1,1314.593,2,0.02,same
0,230,valid,"[(1185, 789)]",[],[1],[0.5166666666666666],horizontal,"(890.0, 762.0)",0.8333333333333334,0.477,1,1320.668,2,0.02,same
0,231,valid,"[(1170, 777)]",[],[1],[],vertical,"(890.0, 762.0)",,"('cti', 1.233)",0,1326.259,0,0.02,same
0,232,valid,"[(1146, 786)]",[],[1],[0.48333333333333334],vertical,"(890.0, 262.0)",0.7833333333333333,0.443,1,1330.592,1,0.02,same
0,233,valid,"[(1158, 767)]",[],[1],[0.6833333333333333],vertical,"(390.0, 262.0)",1.2333333333333334,0.649,1,1335.192,1,0.02,same
0,234,valid,"[(1167, 786)]",[],[1],[0.65],vertical,"(890.0, 262.0)",1.1833333333333333,0.608,1,1341.108,1,0.02,same
0,235,catch,"[(1157, 776)]",[],[1],[],horizontal,"(390.0, 262.0)",1.7,"('cti', 1.687),nan",0,1346.303,0,0.04,same
0,236,valid,"[(1148, 784)]",[],[1],[0.6],vertical,"(890.0, 762.0)",0.8,0.563,1,1351.294,1,0.04,same
0,237,catch,"[(1178, 775)]",[],[1],[],horizontal,"(890.0, 762.0)",,"('cti', 1.262),nan",0,1356.242,0,0.06,same
0,238,valid,"[(1166, 823)]",[],[1],[0.7333333333333333],vertical,"(390.0, 262.0)",1.35,0.687,1,1360.837,1,0.06,same
0,239,valid,"[(1155, 786)]",[],[1],[0.55],horizontal,"(890.0, 262.0)",0.6333333333333333,0.505,1,1366.502,1,0.06,same
0,240,valid,"[(1163, 792)]",[],[1],[0.5833333333333334],vertical,"(390.0, 762.0)",1.3833333333333333,0.542,1,1371.028,1,0.06,same
0,241,valid,"[(1205, 786)]",[],[1],[],horizontal,"(390.0, 762.0)",,"('fix', 0.461)",0,1376.229,0,0.06,same
0,242,valid,"[(1158, 791)]",[],[1],[0.5166666666666666],horizontal,"(890.0, 762.0)",1.5166666666666666,0.476,1,1378.509,1,0.06,same
0,243,invalid_adjacent_other_bar,"[(1162, 791)]",[],[1],[0.5166666666666666],vertical,"(890.0, 762.0)",0.7,0.486,1,1384.211,1,0.06,other
0,244,valid,"[(1180, 776)]",[],[1],[0.6833333333333333],horizontal,"(390.0, 762.0)",1.1333333333333333,0.64,1,1388.805,1,0.06,same
0,245,valid,"[(1187, 766)]",[],[1],[0.5666666666666667],horizontal,"(390.0, 762.0)",0.6166666666666667,0.519,1,1394.214,2,0.06,same
0,246,valid,"[(1159, 782)]",[],[1],[0.6],horizontal,"(890.0, 262.0)",1.2166666666666666,0.558,1,1399.027,2,0.06,same
0,247,valid,"[(1185, 790)]",[],[1],[0.6],horizontal,"(390.0, 762.0)",0.6666666666666666,0.556,1,1404.96,2,0.06,same
0,248,valid,"[(1179, 786)]",[],[1],[0.3],vertical,"(390.0, 762.0)",0.5333333333333333,0.263,1,1410.576,3,0.06,same
0,249,valid,"[(1172, 771)]",[],[1],[0.5],vertical,"(390.0, 262.0)",0.3833333333333333,0.467,1,1416.427,3,0.06,same
0,250,valid,"[(1152, 766)]",[],[1],[0.5666666666666667],horizontal,"(890.0, 262.0)",1.1166666666666667,0.529,1,1421.609,3,0.06,same
0,251,valid,"[(1164, 789)]",[],[1],[0.55],horizontal,"(390.0, 262.0)",0.5333333333333333,0.515,1,1427.892,3,0.06,same
0,252,valid,"[(1183, 770)]",[],[1],[],horizontal,"(390.0, 262.0)",,"('cti', 0.755)",0,1432.793,0,0.06,same
0,253,catch,"[(1181, 783)]",[],[1],[],vertical,"(890.0, 262.0)",1.7,nan,1,1436.725,1,0.06,same
0,254,valid,"[(1163, 787)]",[],[1],[0.6666666666666666],vertical,"(890.0, 262.0)",1.05,0.623,1,1441.91,1,0.06,same
0,255,catch,"[(1183, 786)]",[],[1],[],horizontal,"(390.0, 762.0)",1.7,nan,1,1447.109,1,0.06,same
0,256,valid,"[(1145, 796)]",[],[1],[0.75],horizontal,"(390.0, 262.0)",1.0833333333333333,0.706,1,1452.646,2,0.06,same
0,257,valid,"[(1179, 757)]",[],[1],[0.6333333333333333],horizontal,"(890.0, 762.0)",0.7166666666666667,0.595,1,1458.576,2,0.06,same
0,258,valid,"[(1181, 764)]",[],[1],[0.5],vertical,"(390.0, 262.0)",1.4333333333333333,0.46,1,1464.305,2,0.06,same
0,259,catch,"[(1179, 764)]",[],[1],[],vertical,"(390.0, 762.0)",1.7,nan,1,1470.542,3,0.06,same
0,260,valid,"[(1177, 779)]",[],[1],[0.5666666666666667],horizontal,"(390.0, 262.0)",1.5166666666666666,0.541,1,1476.842,3,0.06,same
0,261,valid,"[(1177, 768)]",[],[1],[0.5833333333333334],horizontal,"(890.0, 762.0)",0.5833333333333334,0.545,1,1483.228,3,0.06,same
0,262,valid,"[(1161, 769)]",[],[1],[0.55],vertical,"(390.0, 762.0)",0.4,0.507,1,1488.409,3,0.06,same
0,263,valid,"[(1181, 765)]",[],[1],[0.65],vertical,"(390.0, 762.0)",0.5666666666666667,0.602,1,1493.336,3,0.06,same
0,264,valid,"[(1163, 762)]",[],[1],[0.5833333333333334],vertical,"(890.0, 762.0)",0.9166666666666666,0.538,1,1499.092,3,0.06,same
0,265,valid,"[(1163, 768)]",[],[1],[0.48333333333333334],horizontal,"(890.0, 262.0)",1.2333333333333334,0.444,1,1504.676,3,0.06,same
0,266,valid,"[(1161, 765)]",[],[1],[0.6],horizontal,"(890.0, 262.0)",1.1833333333333333,0.558,1,1510.569,3,0.06,same
0,267,valid,"[(1183, 779)]",[],[1],[0.55],vertical,"(890.0, 262.0)",1.3333333333333333,0.506,1,1517.094,3,0.04,same
0,268,valid,"[(1155, 770)]",[],[1],[0.6],vertical,"(890.0, 762.0)",1.2666666666666666,0.567,1,1523.277,3,0.04,same
0,269,valid,"[(1176, 772)]",[],[1],[0.65],vertical,"(390.0, 762.0)",1.2,0.605,1,1529.527,3,0.04,same
0,270,catch,"[(1171, 774)]",[],[1],[],vertical,"(890.0, 762.0)",1.7,nan,1,1535.444,3,0.04,same
0,271,catch,"[(1166, 769)]",[],[1],[],vertical,"(890.0, 762.0)",1.7,nan,1,1541.793,3,0.04,same
0,272,valid,"[(1168, 786)]",[],[1],[0.6833333333333333],horizontal,"(890.0, 762.0)",1.1833333333333333,0.642,1,1548.091,3,0.04,same
0,273,valid,"[(1150, 791)]",[],[1],[0.5166666666666666],vertical,"(890.0, 262.0)",0.55,0.482,1,1554.293,3,0.04,same
0,274,catch,"[(1162, 753), (1126, 798)]",[],"[0, 1]",[],horizontal,"(890.0, 762.0)",1.7,nan,1,1559.544,3,0.04,same
0,275,valid,"[(1166, 772)]",[],[1],[0.85],vertical,"(890.0, 762.0)",0.9833333333333333,nan,0,1567.126,0,0.04,same
0,276,invalid_same_bar,"[(1150, 783)]",[],[1],[0.6],vertical,"(890.0, 762.0)",0.75,0.566,1,1572.027,1,0.04,same
0,277,catch,"[(1145, 807)]",[],[1],[],vertical,"(890.0, 262.0)",1.7,nan,1,1577.965,1,0.04,same
0,278,valid,"[(1170, 783)]",[],[1],[0.6333333333333333],vertical,"(390.0, 262.0)",1.25,0.598,1,1583.243,1,0.04,same
0,279,catch,"[(1160, 780)]",[],[1],[],horizontal,"(390.0, 762.0)",1.7,nan,1,1588.673,2,0.04,same
0,280,valid,"[(1173, 760)]",[],[1],[0.75],horizontal,"(390.0, 762.0)",1.0333333333333332,0.705,1,1594.277,2,0.04,same
0,281,valid,"[(1183, 766)]",[],[1],[0.55],horizontal,"(890.0, 762.0)",1.3833333333333333,0.505,1,1600.058,2,0.04,same
0,282,valid,"[(1184, 772)]",[],[1],[0.6],horizontal,"(390.0, 262.0)",1.4666666666666666,0.565,1,1606.077,3,0.04,same
0,283,valid,"[(1179, 774)]",[],[1],[0.85],vertical,"(390.0, 762.0)",0.35,nan,0,1612.444,0,0.04,same
0,284,catch,"[(1143, 778)]",[],[1],[],horizontal,"(890.0, 262.0)",1.7,nan,1,1616.844,1,0.04,same
0,285,catch,"[(1152, 776)]",[],[1],[],vertical,"(890.0, 262.0)",1.7,nan,1,1621.89,1,0.02,same
0,286,catch,"[(1162, 759)]",[],[1],[],vertical,"(890.0, 762.0)",1.7,nan,1,1627.21,1,0.02,same
0,287,catch,"[(1166, 782)]",[],[1],[],horizontal,"(390.0, 262.0)",1.7,nan,1,1632.158,2,0.0,same
0,288,valid,"[(1176, 772)]",[],[1],[0.5166666666666666],vertical,"(890.0, 262.0)",0.6333333333333333,0.483,1,1637.725,2,0.0,same
0,289,valid,"[(1185, 749), (1145, 802)]",[],"[0, 1]",[0.65],vertical,"(890.0, 262.0)",0.35,0.607,1,1642.676,2,0.0,same
0,290,valid,"[(1163, 791)]",[],[1],[0.6666666666666666],vertical,"(890.0, 762.0)",1.25,0.635,1,1648.804,3,0.0,same
0,291,valid,"[(1160, 757)]",[],[1],[0.65],horizontal,"(390.0, 762.0)",0.7666666666666666,0.61,1,1655.554,3,0.0,same
0,292,valid,"[(1145, 821)]",[],[1],[0.85],horizontal,"(390.0, 762.0)",0.5166666666666666,nan,0,1661.061,0,0.0,same
0,293,valid,"[(1148, 783)]",[],[1],[0.26666666666666666],vertical,"(890.0, 262.0)",0.9,0.231,1,1665.327,1,0.0,same
0,294,catch,"[(1167, 776)]",[],[1],[],vertical,"(890.0, 262.0)",1.7,nan,1,1670.344,1,0.0,same
0,295,valid,"[(1160, 757)]",[],[1],[0.5833333333333334],vertical,"(390.0, 762.0)",1.1833333333333333,0.546,1,1676.192,1,0.0,same
0,296,catch,"[(1162, 769)]",[],[1],[],horizontal,"(390.0, 762.0)",1.7,nan,1,1681.801,2,0.0,same
0,297,valid,"[(1164, 765)]",[],[1],[0.8],vertical,"(390.0, 762.0)",1.0333333333333332,0.754,1,1687.231,2,0.0,same
0,298,valid,"[(1180, 776)]",[],[1],[0.6333333333333333],vertical,"(890.0, 762.0)",0.5666666666666667,0.589,1,1692.982,2,0.0,same
0,299,invalid_same_bar,"[(1165, 765)]",[],[1],[],horizontal,"(890.0, 762.0)",,"('cti', 1.305)",0,1698.339,0,0.0,same
0,300,catch,"[(1143, 773)]",[],[1],[],vertical,"(390.0, 262.0)",1.7,nan,1,1703.21,1,0.0,same
0,301,catch,"[(1167, 774)]",[],[1],[],vertical,"(890.0, 762.0)",,"('cti', 1.198),nan",0,1708.594,0,0.02,same
0,302,valid,"[(1145, 776)]",[],[1],[0.55],vertical,"(890.0, 262.0)",1.2166666666666666,0.508,1,1712.911,1,0.02,same
0,303,catch,"[(1170, 789)]",[],[1],[],vertical,"(390.0, 262.0)",1.7,nan,1,1718.105,1,0.02,same
0,304,valid,"[(1145, 757)]",[],[1],[0.55],vertical,"(390.0, 262.0)",0.5166666666666666,0.518,1,1723.516,1,0.02,same
0,305,valid,"[(1183, 779)]",[],[1],[0.5833333333333334],horizontal,"(890.0, 262.0)",1.2166666666666666,0.541,1,1728.168,2,0.02,same
0,306,valid,"[(1165, 785)]",[],[1],[0.5666666666666667],vertical,"(390.0, 762.0)",0.8833333333333333,0.522,1,1734.017,2,0.02,same
0,307,catch,"[(1166, 785)]",[],[1],[],vertical,"(890.0, 262.0)",1.7,nan,1,1739.472,2,0.02,same
0,308,invalid_adjacent_other_bar,"[(1162, 770)]",[],[1],[0.85],vertical,"(890.0, 262.0)",0.6333333333333333,nan,0,1745.41,0,0.02,other
0,309,invalid_adjacent_other_bar,"[(1160, 777)]",[],[1],[0.85],horizontal,"(390.0, 762.0)",1.4,nan,0,1750.431,0,0.02,other
0,310,valid,"[(1160, 783)]",[],[1],[0.6166666666666667],horizontal,"(390.0, 762.0)",0.7666666666666666,0.578,1,1755.872,1,0.02,same
0,311,valid,"[(1161, 777)]",[],[1],[0.6166666666666667],vertical,"(390.0, 262.0)",1.3666666666666667,0.58,1,1761.051,1,0.02,same
0,312,valid,"[(1178, 759)]",[],[1],[0.5333333333333333],horizontal,"(890.0, 762.0)",0.9666666666666667,0.491,1,1766.461,1,0.02,same
0,313,catch,"[(1155, 776)]",[],[1],[],horizontal,"(390.0, 262.0)",1.7,nan,1,1771.228,2,0.02,same
0,314,valid,"[(1163, 767)]",[],[1],[0.7333333333333333],vertical,"(890.0, 262.0)",0.3833333333333333,0.705,1,1776.792,2,0.02,same
0,315,valid,"[(1171, 772)]",[],[1],[0.85],vertical,"(890.0, 262.0)",1.0166666666666666,nan,0,1781.945,0,0.02,same
0,316,valid,"[(1160, 769)]",[],[1],[0.65],horizontal,"(390.0, 262.0)",0.7333333333333333,0.602,1,1787.152,1,0.02,same
0,317,valid,"[(1145, 783)]",[],[1],[0.5166666666666666],vertical,"(890.0, 262.0)",0.7166666666666667,0.473,1,1791.984,1,0.02,same
0,318,valid,"[(1180, 762)]",[],[1],[0.6666666666666666],horizontal,"(890.0, 262.0)",0.4,0.628,1,1796.574,1,0.02,same
0,319,catch,"[(1159, 773)]",[],[1],[],vertical,"(390.0, 762.0)",1.7,nan,1,1801.26,2,0.02,same
0,320,valid,"[(1160, 780)]",[],[1],[0.6],vertical,"(390.0, 762.0)",0.7666666666666666,0.557,1,1806.848,2,0.02,same
0,321,invalid_adjacent_other_bar,"[(1180, 765)]",[],[1],[0.85],horizontal,"(390.0, 262.0)",1.0166666666666666,nan,0,1812.011,0,0.02,other
0,322,catch,"[(1143, 787)]",[],[1],[],horizontal,"(890.0, 762.0)",,"('cti', 0.62),nan",0,1817.176,0,0.04,same
0,323,catch,"[(1158, 762)]",[],[1],[],vertical,"(390.0, 762.0)",1.7,nan,1,1820.859,1,0.04,same
0,324,valid,"[(1203, 767)]",[],[1],[0.7666666666666666],horizontal,"(890.0, 762.0)",1.25,0.722,1,1826.045,1,0.04,same
0,325,valid,"[(1178, 775)]",[],[1],[],vertical,"(390.0, 262.0)",,"('cti', 1.016)",0,1831.263,0,0.04,same
0,326,catch,"[(1131, 832)]",[],[1],[],horizontal,"(390.0, 762.0)",1.7,nan,1,1835.477,1,0.04,same
0,327,valid,"[(1169, 772)]",[],[1],[0.5333333333333333],vertical,"(890.0, 762.0)",0.95,0.492,1,1848.566,1,0.04,same
0,328,invalid_same_bar,"[(1172, 764)]",[],[1],[0.85],vertical,"(390.0, 762.0)",0.5166666666666666,nan,0,1854.045,0,0.04,same
0,329,valid,"[(1164, 770)]",[],[1],[0.85],vertical,"(390.0, 762.0)",0.9166666666666666,nan,0,1858.795,0,0.04,same
0,330,valid,"[(1121, 772)]",[],[1],[0.55],vertical,"(390.0, 762.0)",0.6666666666666666,0.513,1,1863.777,1,0.04,same
0,331,valid,"[(1162, 760)]",[],[1],[0.5666666666666667],vertical,"(890.0, 262.0)",0.9833333333333333,0.526,1,1885.896,1,0.04,same
0,332,valid,"[(1162, 763)]",[],[1],[0.85],vertical,"(390.0, 762.0)",0.9666666666666667,nan,0,1891.149,0,0.04,same
0,333,valid,"[(1140, 795)]",[],[1],[],vertical,"(390.0, 262.0)",,"('cti', 1.001)",0,1896.012,0,0.04,same
0,334,valid,"[(1167, 779)]",[],[1],[0.6],vertical,"(890.0, 762.0)",0.7666666666666666,0.564,1,1900.042,1,0.04,same
0,335,valid,"[(1120, 773)]",[],[1],[0.6333333333333333],vertical,"(390.0, 762.0)",0.48333333333333334,0.591,1,1904.777,1,0.04,same
0,336,catch,"[(1163, 775)]",[],[1],[],horizontal,"(890.0, 762.0)",1.7,nan,1,1909.815,1,0.04,same
0,337,valid,"[(1178, 782)]",[],[1],[0.6666666666666666],vertical,"(390.0, 262.0)",1.2666666666666666,0.624,1,1915.361,2,0.04,same
0,338,valid,"[(1170, 782)]",[],[1],[0.6166666666666667],horizontal,"(390.0, 262.0)",0.75,0.58,1,1920.927,2,0.04,same
0,339,valid,"[(1169, 772)]",[],[1],[0.85],vertical,"(890.0, 762.0)",0.3833333333333333,nan,0,1926.095,0,0.04,same
0,340,valid,"[(1148, 791)]",[],[1],[0.85],vertical,"(890.0, 762.0)",1.1333333333333333,nan,0,1930.429,0,0.04,same
0,341,valid,"[(1140, 782)]",[],[1],[0.65],horizontal,"(890.0, 262.0)",1.0666666666666667,0.608,1,1935.494,1,0.04,same
0,342,invalid_adjacent_other_bar,"[(1170, 760)]",[],[1],[0.5666666666666667],horizontal,"(890.0, 762.0)",0.55,0.525,1,1940.949,1,0.04,other
0,343,valid,"[(1161, 772)]",[],[1],[0.6],horizontal,"(890.0, 762.0)",0.5666666666666667,0.556,1,1945.826,1,0.04,same
0,344,valid,"[(1179, 778)]",[],[1],[0.5833333333333334],vertical,"(390.0, 262.0)",1.0,0.54,1,1950.909,2,0.04,same
0,345,valid,"[(1185, 773)]",[],[1],[0.65],vertical,"(890.0, 262.0)",0.75,0.613,1,1956.486,2,0.04,same
0,346,catch,"[(1160, 763)]",[],[1],[],vertical,"(390.0, 762.0)",1.7,nan,1,1961.885,2,0.04,same
0,347,valid,"[(1179, 762)]",[],[1],[0.5],horizontal,"(390.0, 262.0)",0.35,0.462,1,1967.576,3,0.04,same
0,348,catch,"[(1165, 765)]",[],[1],[],vertical,"(890.0, 262.0)",1.7,nan,1,1972.827,3,0.04,same
0,349,valid,"[(1163, 765)]",[],[1],[0.55],vertical,"(390.0, 262.0)",0.8666666666666667,0.507,1,1978.678,3,0.04,same
0,350,catch,"[(1177, 776)]",[],[1],[],horizontal,"(890.0, 262.0)",1.7,nan,1,1984.687,3,0.04,same
0,351,invalid_adjacent_other_bar,"[(1180, 776)]",[],[1],[0.6166666666666667],horizontal,"(390.0, 762.0)",0.5333333333333333,0.575,1,1990.564,3,0.02,other
0,352,valid,"[(1161, 766)]",[],[1],[0.5833333333333334],vertical,"(390.0, 762.0)",1.4,0.541,1,1996.226,3,0.02,same
0,353,catch,"[(1177, 767)]",[],[1],[],horizontal,"(390.0, 262.0)",1.7,nan,1,2002.178,3,0.02,same
0,354,invalid_same_bar,"[(1175, 761)]",[],[1],[0.5333333333333333],vertical,"(390.0, 762.0)",0.8333333333333334,0.493,1,2008.328,3,0.02,same
0,355,catch,"[(1177, 758)]",[],[1],[],vertical,"(890.0, 762.0)",1.7,nan,1,2013.829,3,0.02,same
0,356,valid,"[(1159, 773)]",[],[1],[0.5333333333333333],horizontal,"(890.0, 262.0)",0.75,0.489,1,2019.843,3,0.02,same
0,357,catch,"[(1161, 778)]",[],[1],[],horizontal,"(390.0, 762.0)",1.7,nan,1,2025.45,3,0.02,same
0,358,valid,"[(1137, 786)]",[],[1],[0.5333333333333333],horizontal,"(890.0, 762.0)",1.1666666666666667,0.489,1,2031.752,3,0.02,same
0,359,catch,"[(1164, 767)]",[],[1],[],vertical,"(390.0, 262.0)",1.7,nan,1,2038.418,3,0.02,same
0,360,catch,"[(1159, 769)]",[],[1],[],horizontal,"(390.0, 262.0)",1.7,nan,1,2044.744,3,0.02,same
0,361,valid,"[(1180, 767)]",[],[1],[0.3833333333333333],horizontal,"(390.0, 762.0)",1.5166666666666666,0.35,1,2050.614,3,0.02,same
0,362,invalid_same_bar,"[(1180, 762)]",[],[1],[0.55],vertical,"(390.0, 262.0)",1.0333333333333332,0.508,1,2057.129,3,0.02,same
0,363,valid,"[(1163, 752), (1129, 794)]",[],"[0, 1]",[0.6166666666666667],vertical,"(890.0, 762.0)",1.2333333333333334,0.577,1,2063.014,3,0.02,same
0,364,catch,"[(1170, 754)]",[],[1],[],horizontal,"(890.0, 262.0)",1.7,nan,1,2071.114,3,0.02,same
0,365,catch,"[(1180, 762)]",[],[1],[],vertical,"(390.0, 762.0)",1.7,nan,1,2076.845,3,0.02,same
0,366,valid,"[(1160, 762)]",[],[1],[0.6833333333333333],vertical,"(390.0, 262.0)",1.3833333333333333,0.64,1,2082.711,3,0.02,same
0,367,invalid_adjacent_other_bar,"[(1162, 779)]",[],[1],[0.5833333333333334],horizontal,"(890.0, 762.0)",0.9166666666666666,0.541,1,2088.995,3,0.02,other
0,368,valid,"[(1178, 777)]",[],[1],[0.5333333333333333],vertical,"(390.0, 262.0)",1.4166666666666667,0.5,1,2095.129,3,0.02,same
0,369,valid,"[(1169, 760)]",[],[1],[0.6166666666666667],horizontal,"(390.0, 762.0)",0.65,0.57,1,2101.043,3,0.02,same
0,370,valid,"[(1175, 760)]",[],[1],[0.4166666666666667],horizontal,"(390.0, 262.0)",1.4,0.378,1,2106.448,3,0.02,same
0,371,catch,"[(1192, 768)]",[],[1],[],horizontal,"(390.0, 262.0)",1.7,nan,1,2113.045,3,0.02,same
0,372,valid,"[(1166, 752), (1135, 813)]",[],"[0, 1]",[0.3],horizontal,"(890.0, 762.0)",1.1833333333333333,0.264,1,2119.253,3,0.0,same
0,373,invalid_adjacent_other_bar,"[(1169, 751), (1120, 787)]",[],"[0, 1]",[0.25],horizontal,"(390.0, 262.0)",1.4166666666666667,0.215,1,2128.146,3,0.0,other
0,374,catch,"[(1181, 765)]",[],[1],[],vertical,"(390.0, 762.0)",1.7,nan,1,2136.091,3,0.0,same
0,375,catch,"[(1180, 772)]",[],[1],[],horizontal,"(890.0, 762.0)",1.7,nan,1,2142.496,3,0.0,same
0,376,valid,"[(1166, 772)]",[],[1],[0.55],vertical,"(890.0, 762.0)",0.9833333333333333,0.512,1,2148.543,3,0.0,same
0,377,valid,"[(1179, 767)]",[],[1],[0.7333333333333333],vertical,"(390.0, 762.0)",1.5166666666666666,0.697,1,2154.632,3,0.0,same
0,378,valid,"[(1164, 757)]",[],[1],[0.65],vertical,"(390.0, 762.0)",0.85,0.608,1,2161.08,3,0.0,same
0,379,valid,"[(1180, 766)]",[],[1],[0.7666666666666666],vertical,"(390.0, 262.0)",1.0333333333333332,0.727,1,2167.263,3,0.0,same
0,380,valid,"[(1160, 770)]",[],[1],[0.7],vertical,"(890.0, 262.0)",0.8,0.653,1,2173.696,3,0.0,same
0,381,valid,"[(1180, 764)]",[],[1],[0.6166666666666667],vertical,"(890.0, 262.0)",1.4,0.572,1,2179.318,3,0.0,same
0,382,valid,"[(1178, 769)]",[],[1],[0.6],horizontal,"(390.0, 762.0)",0.5166666666666666,0.568,1,2185.395,3,0.0,same
0,383,valid,"[(1166, 778)]",[],[1],[0.6],horizontal,"(390.0, 762.0)",0.95,0.562,1,2191.337,3,0.0,same
0,384,valid,"[(1155, 785)]",[],[1],[0.6166666666666667],vertical,"(390.0, 762.0)",1.15,0.575,1,2197.712,3,0.0,same
0,385,catch,"[(1175, 759)]",[],[1],[],vertical,"(890.0, 762.0)",1.7,nan,1,2204.135,3,0.0,same
0,386,catch,"[(1161, 748), (1159, 785)]",[],"[0, 1]",[],horizontal,"(390.0, 762.0)",,"('cti', 1.138),nan",0,2210.132,0,0.02,same
0,387,valid,"[(1153, 791)]",[],[1],[0.5166666666666666],vertical,"(890.0, 262.0)",1.4333333333333333,0.482,1,2217.01,1,0.02,same
0,388,valid,"[(1158, 770)]",[],[1],[0.8166666666666667],horizontal,"(390.0, 262.0)",1.35,0.761,1,2222.241,1,0.02,same
0,389,valid,"[(1180, 751), (1111, 796)]",[],"[0, 1]",[],horizontal,"(390.0, 262.0)",,"('cti', 1.317)",0,2227.595,0,0.02,same
0,390,valid,"[(1179, 820)]",[],[1],[0.85],vertical,"(890.0, 262.0)",1.0666666666666667,nan,0,2233.75,0,0.02,same
0,391,valid,"[(1150, 782)]",[],[1],[0.55],vertical,"(390.0, 762.0)",1.2833333333333332,0.509,1,2268.573,1,0.02,same
0,392,valid,"[(1164, 774)]",[],[1],[0.5833333333333334],horizontal,"(390.0, 262.0)",1.0666666666666667,0.54,1,2274.062,1,0.02,same
0,393,catch,"[(1175, 762)]",[],[1],[],vertical,"(390.0, 762.0)",1.7,nan,1,2279.0,1,0.02,same
0,394,valid,"[(1152, 754)]",[],[1],[0.5333333333333333],horizontal,"(390.0, 762.0)",0.5333333333333333,0.492,1,2284.23,2,0.02,same
0,395,invalid_adjacent_other_bar,"[(1180, 752), (1130, 812)]",[],"[0, 1]",[0.5833333333333334],vertical,"(390.0, 762.0)",1.4333333333333333,0.547,1,2289.545,2,0.02,other
0,396,valid,"[(1158, 772)]",[],[1],[0.7],horizontal,"(390.0, 262.0)",1.3333333333333333,0.657,1,2296.53,2,0.02,same
0,397,valid,"[(1158, 772)]",[],[1],[0.85],horizontal,"(390.0, 762.0)",1.0,nan,0,2302.863,0,0.02,same
0,398,valid,"[(1160, 785)]",[],[1],[0.5666666666666667],vertical,"(890.0, 762.0)",0.6666666666666666,0.532,1,2308.083,1,0.02,same
0,399,valid,"[(1155, 756)]",[],[1],[0.6833333333333333],horizontal,"(890.0, 762.0)",0.5166666666666666,0.648,1,2312.912,1,0.02,same
0,400,catch,"[(1180, 778)]",[],[1],[],vertical,"(890.0, 762.0)",1.7,nan,1,2318.058,1,0.02,same
0,401,catch,"[(1165, 794)]",[],[1],[],vertical,"(890.0, 762.0)",1.7,nan,1,2323.346,2,0.02,same
0,402,valid,"[(1183, 796)]",[],[1],[0.85],vertical,"(390.0, 262.0)",1.15,nan,0,2329.162,0,0.02,same
0,403,catch,"[(1136, 772)]",[],[1],[],horizontal,"(390.0, 762.0)",1.7,nan,1,2333.934,1,0.02,same
0,404,invalid_same_bar,"[(1167, 783)]",[],[1],[0.65],horizontal,"(890.0, 262.0)",0.55,0.605,1,2339.229,1,0.02,same
0,405,catch,"[(1140, 818)]",[],[1],[],vertical,"(890.0, 262.0)",1.7,nan,1,2343.54,1,0.02,same
0,406,valid,"[(1175, 792)]",[],[1],[0.35],horizontal,"(390.0, 262.0)",1.3666666666666667,0.314,1,2464.179,2,0.02,same
0,407,valid,"[(1165, 758)]",[],[1],[0.85],horizontal,"(890.0, 762.0)",0.5166666666666666,nan,0,2470.43,0,0.02,same
0,408,valid,"[(1137, 773)]","[(1119, 825)]",[1],[0.13333333333333333],vertical,"(890.0, 262.0)",,"('bar', 0.149)",0,2474.603,0,0.02,same
0,409,invalid_same_bar,"[(1131, 812)]",[],[1],[0.45],horizontal,"(890.0, 762.0)",1.3,0.418,1,2477.23,1,0.02,same
0,410,valid,"[(1179, 782)]",[],[1],[0.5166666666666666],vertical,"(890.0, 262.0)",0.48333333333333334,0.476,1,2492.662,1,0.02,same
0,411,valid,"[(1177, 767)]",[],[1],[0.5],horizontal,"(390.0, 262.0)",0.6,0.463,1,2496.997,1,0.02,same
0,412,valid,"[(1183, 775)]",[],[1],[0.6333333333333333],horizontal,"(890.0, 262.0)",0.4666666666666667,0.583,1,2501.547,2,0.02,same
0,413,catch,"[(1167, 782)]",[],[1],[],vertical,"(890.0, 262.0)",1.7,nan,1,2506.518,2,0.02,same
0,414,valid,"[(1175, 786)]",[],[1],[0.5166666666666666],vertical,"(890.0, 762.0)",1.0,0.478,1,2512.128,2,0.02,same
0,415,valid,"[(1178, 795)]","[(1169, 841)]",[1],[0.2833333333333333],vertical,"(390.0, 262.0)",,"('bar', 0.296)",0,2517.647,0,0.02,same
0,416,valid,"[(1127, 777)]",[],[1],[0.85],vertical,"(890.0, 762.0)",0.5666666666666667,nan,0,2520.266,0,0.02,same
0,417,catch,"[(1140, 783)]",[],[1],[],vertical,"(390.0, 762.0)",1.7,nan,1,2524.531,1,0.02,same
0,418,invalid_same_bar,"[(1170, 767)]",[],[1],[0.6166666666666667],horizontal,"(390.0, 762.0)",0.5833333333333334,0.572,1,2529.949,1,0.02,same
0,419,valid,"[(1180, 782)]",[],[1],[0.5333333333333333],horizontal,"(390.0, 762.0)",0.8,0.494,1,2534.89,1,0.02,same
0,420,valid,"[(1209, 777)]",[],[1],[0.85],horizontal,"(890.0, 262.0)",1.2833333333333332,nan,0,2539.913,0,0.02,same
0,421,valid,"[(1145, 807)]",[],[1],[0.55],horizontal,"(390.0, 762.0)",1.4833333333333334,0.509,1,2544.991,1,0.02,same
0,422,valid,"[(1205, 779)]",[],[1],[0.85],horizontal,"(390.0, 262.0)",0.6166666666666667,nan,0,2551.266,0,0.02,same
0,423,valid,"[(1146, 786)]",[],[1],[0.85],vertical,"(890.0, 262.0)",1.2166666666666666,nan,0,2555.629,0,0.02,same
0,424,valid,"[(1173, 780)]",[],[1],[0.6333333333333333],vertical,"(890.0, 762.0)",0.8,0.587,1,2560.628,1,0.02,same
0,425,valid,"[(1176, 775)]",[],[1],[0.85],vertical,"(890.0, 762.0)",0.6,nan,0,2565.352,0,0.02,same
0,426,valid,"[(1142, 779)]",[],[1],[0.5333333333333333],vertical,"(390.0, 262.0)",0.9333333333333333,0.493,1,2569.898,1,0.02,same
0,427,invalid_adjacent_other_bar,"[(1180, 765)]",[],[1],[0.7666666666666666],horizontal,"(890.0, 762.0)",1.4,0.728,1,2575.182,1,0.02,other
0,428,valid,"[(1175, 777)]",[],[1],[0.5333333333333333],horizontal,"(390.0, 762.0)",0.9,0.493,1,2580.748,1,0.02,same
0,429,valid,"[(1165, 783)]",[],[1],[0.5833333333333334],vertical,"(390.0, 762.0)",1.4833333333333334,0.542,1,2585.698,2,0.02,same
0,430,catch,"[(1145, 806)]",[],[1],[],vertical,"(390.0, 762.0)",1.7,nan,1,2592.047,2,0.02,same
0,431,valid,"[(1165, 777)]",[],[1],[0.6],vertical,"(390.0, 762.0)",1.3166666666666667,0.555,1,2597.932,2,0.02,same
0,432,catch,"[(1165, 772)]",[],[1],[],horizontal,"(390.0, 762.0)",1.7,nan,1,2603.873,3,0.02,same
0,433,catch,"[(1166, 760)]",[],[1],[],vertical,"(390.0, 762.0)",1.7,nan,1,2609.913,3,0.02,same
0,434,valid,"[(1164, 767)]",[],[1],[],horizontal,"(890.0, 262.0)",,"('cti', 0.969)",0,2615.698,0,0.02,same
0,435,valid,"[(1165, 778)]",[],[1],[0.7],vertical,"(390.0, 762.0)",0.48333333333333334,0.654,1,2619.98,1,0.02,same
0,436,valid,"[(1170, 773)]",[],[1],[0.85],vertical,"(390.0, 762.0)",1.0666666666666667,nan,0,2624.698,0,0.0,same
0,437,valid,"[(1157, 779)]",[],[1],[0.5666666666666667],vertical,"(890.0, 762.0)",1.3833333333333333,0.524,1,2630.1,1,0.0,same
0,438,valid,"[(1180, 775)]",[],[1],[0.7333333333333333],horizontal,"(890.0, 262.0)",1.45,0.688,1,2635.397,1,0.0,same
0,439,catch,"[(1161, 767)]",[],[1],[],vertical,"(390.0, 262.0)",1.7,nan,1,2641.281,1,0.0,same
0,440,catch,"[(1170, 769)]",[],[1],[],vertical,"(890.0, 262.0)",1.7,nan,1,2646.414,2,0.0,same
0,441,catch,"[(1155, 786)]",[],[1],[],horizontal,"(390.0, 762.0)",1.7,nan,1,2652.497,2,0.0,same
0,442,valid,"[(1178, 765)]",[],[1],[0.5333333333333333],vertical,"(390.0, 262.0)",1.5,0.493,1,2658.604,2,0.0,same
0,443,catch,"[(1178, 794)]",[],[1],[],vertical,"(890.0, 262.0)",1.7,nan,1,2664.683,3,0.0,same
0,444,valid,"[(1160, 763)]",[],[1],[0.85],horizontal,"(890.0, 262.0)",1.0166666666666666,nan,0,2671.195,0,0.0,same
0,445,catch,"[(1145, 791)]",[],[1],[],vertical,"(390.0, 762.0)",1.7,nan,1,2676.447,1,0.0,same
0,446,valid,"[(1165, 775)]",[],[1],[],horizontal,"(890.0, 262.0)",,"('cti', 0.325)",0,2681.528,0,0.0,same
0,447,catch,"[(1125, 812)]",[],[1],[],horizontal,"(890.0, 262.0)",1.7,nan,1,2685.075,1,0.0,same
0,448,valid,"[(1156, 813)]",[],[1],[0.85],horizontal,"(890.0, 762.0)",0.8,nan,0,2768.88,0,0.0,same
0,449,catch,"[(1119, 799)]",[],[1],[],vertical,"(390.0, 262.0)",1.7,nan,1,2773.964,1,0.0,same
0,450,catch,"[(1054, 799)]",[],[1],[],vertical,"(890.0, 762.0)",1.7,nan,1,2779.397,1,0.0,same
0,451,valid,"[(1180, 778)]",[],[1],[0.5833333333333334],horizontal,"(390.0, 262.0)",0.5833333333333334,0.538,1,2788.298,1,0.0,same
0,452,valid,"[(1164, 775)]",[],[1],[0.5333333333333333],vertical,"(890.0, 762.0)",0.45,0.494,1,2793.349,2,0.0,same
0,453,valid,"[(1147, 782)]",[],[1],[0.85],vertical,"(890.0, 262.0)",1.0166666666666666,nan,0,2798.498,0,0.0,same
0,454,valid,"[(1134, 799)]",[],[1],[0.4],vertical,"(390.0, 762.0)",0.9333333333333333,0.36,1,2803.265,1,0.0,same
0,455,valid,"[(1187, 795)]",[],[1],[0.7666666666666666],horizontal,"(390.0, 762.0)",0.85,0.717,1,2808.914,1,0.0,same
0,456,valid,"[(1189, 772)]",[],[1],[],horizontal,"(390.0, 262.0)",,"('cti', 1.047)",0,2813.998,0,0.0,same
0,457,catch,"[(1168, 765)]",[],[1],[],horizontal,"(890.0, 762.0)",,"('cti', 1.635),nan",0,2818.198,0,0.02,same
0,458,valid,"[(1090, 778)]",[],[1],[0.21666666666666667],vertical,"(890.0, 762.0)",1.2666666666666666,0.185,0,2823.014,0,0.02,same
0,459,catch,"[(1171, 772)]",[],[1],[],vertical,"(390.0, 262.0)",1.7,nan,1,2827.474,1,0.02,same
0,460,valid,"[(1184, 776)]",[],[1],[0.5833333333333334],horizontal,"(890.0, 762.0)",0.9333333333333333,0.542,1,2832.541,1,0.02,same
0,461,catch,"[(1192, 757)]",[],[1],[],vertical,"(890.0, 262.0)",1.7,nan,1,2837.838,1,0.02,same
0,462,valid,"[(1188, 777)]",[],[1],[],horizontal,"(890.0, 262.0)",,"('fix', 0.419)",0,2843.064,0,0.02,same
0,463,valid,"[(1155, 779)]",[],[1],[0.6],horizontal,"(890.0, 762.0)",1.0,0.553,1,2845.082,1,0.02,same
0,464,valid,"[(1180, 775)]",[],[1],[0.5833333333333334],vertical,"(390.0, 762.0)",0.5666666666666667,0.543,1,2850.404,1,0.02,same
0,465,catch,"[(1165, 765)]",[],[1],[],horizontal,"(890.0, 762.0)",1.7,nan,1,2855.281,1,0.02,same
0,466,valid,"[(1205, 768)]",[],[1],[0.6],horizontal,"(390.0, 762.0)",1.0166666666666666,0.566,1,2860.313,2,0.02,same
0,467,catch,"[(1165, 788)]",[],[1],[],vertical,"(890.0, 262.0)",1.7,nan,1,2865.982,2,0.02,same
0,468,valid,"[(1180, 765)]",[],[1],[0.5],vertical,"(390.0, 262.0)",0.6833333333333333,0.462,1,2871.398,2,0.02,same
0,469,valid,"[(1175, 776)]",[],[1],[0.5333333333333333],vertical,"(890.0, 762.0)",0.95,0.492,1,2876.981,3,0.02,same
0,470,valid,"[(1180, 767)]",[],[1],[0.65],horizontal,"(390.0, 762.0)",1.0333333333333332,0.607,1,2882.836,3,0.02,same
0,471,valid,"[(1180, 772)]",[],[1],[0.6833333333333333],horizontal,"(890.0, 262.0)",0.6,0.637,1,2888.797,3,0.02,same
0,472,catch,"[(1180, 762)]",[],[1],[],horizontal,"(890.0, 762.0)",1.7,nan,1,2894.18,3,0.02,same
0,473,valid,"[(1173, 768)]",[],[1],[0.5666666666666667],vertical,"(890.0, 262.0)",1.3833333333333333,0.527,1,2900.244,3,0.02,same
0,474,catch,"[(1186, 776)]",[],[1],[],horizontal,"(390.0, 262.0)",1.7,nan,1,2906.117,3,0.02,same
0,475,catch,"[(1180, 772)]",[],[1],[],vertical,"(890.0, 762.0)",1.7,nan,1,2912.231,3,0.02,same
0,476,catch,"[(1180, 782)]",[],[1],[],vertical,"(390.0, 762.0)",1.7,nan,1,2918.311,3,0.02,same
0,477,invalid_adjacent_other_bar,"[(1183, 772)]",[],[1],[0.5166666666666666],vertical,"(390.0, 762.0)",0.6166666666666667,0.476,1,2924.614,3,0.02,other
0,478,valid,"[(1167, 773)]",[],[1],[0.5166666666666666],vertical,"(890.0, 762.0)",0.3833333333333333,0.474,1,2929.858,3,0.02,same
0,479,catch,"[(1165, 795)]",[],[1],[],horizontal,"(890.0, 262.0)",1.7,nan,1,2934.931,3,0.02,same
0,480,valid,"[(1180, 780)]",[],[1],[0.7333333333333333],horizontal,"(390.0, 762.0)",0.5833333333333334,0.686,1,2943.882,3,0.02,same
0,481,valid,"[(1169, 774)]",[],[1],[0.6333333333333333],horizontal,"(890.0, 262.0)",0.8333333333333334,0.595,1,2949.464,3,0.02,same
0,482,valid,"[(1163, 821)]",[],[1],[0.5],horizontal,"(890.0, 262.0)",1.3333333333333333,0.46,1,2955.288,3,0.02,same
0,483,valid,"[(1180, 791)]",[],[1],[0.5],horizontal,"(390.0, 762.0)",0.7166666666666667,0.471,1,2976.648,3,0.02,same
0,484,valid,"[(1180, 765)]",[],[1],[0.6666666666666666],horizontal,"(890.0, 762.0)",1.5166666666666666,0.621,1,2982.215,3,0.02,same
0,485,valid,"[(1182, 771)]",[],[1],[0.5],horizontal,"(890.0, 262.0)",1.3166666666666667,0.457,1,2988.644,3,0.02,same
0,486,valid,"[(1174, 768)]",[],[1],[0.5333333333333333],horizontal,"(890.0, 262.0)",0.8166666666666667,0.495,1,2995.131,3,0.02,same
0,487,catch,"[(1192, 778)]",[],[1],[],vertical,"(390.0, 762.0)",1.7,nan,1,3000.781,3,0.02,same
0,488,catch,"[(1193, 773)]",[],[1],[],horizontal,"(890.0, 262.0)",1.7,nan,1,3007.039,3,0.02,same
0,489,valid,"[(1174, 778)]",[],[1],[0.43333333333333335],horizontal,"(390.0, 762.0)",1.5166666666666666,0.395,1,3013.179,3,0.02,same
0,490,valid,"[(1160, 765)]",[],[1],[0.5166666666666666],horizontal,"(390.0, 262.0)",0.7833333333333333,0.476,1,3019.746,3,0.02,same
0,491,catch,"[(1180, 772)]",[],[1],[],vertical,"(890.0, 262.0)",1.7,nan,1,3025.596,3,0.02,same
0,492,catch,"[(1186, 782)]",[],[1],[],horizontal,"(890.0, 762.0)",1.7,nan,1,3031.666,3,0.02,same
0,493,valid,"[(1169, 783)]",[],[1],[0.7],horizontal,"(890.0, 762.0)",0.4666666666666667,0.65,1,3037.98,3,0.02,same
0,494,invalid_same_bar,"[(1170, 770)]",[],[1],[0.48333333333333334],vertical,"(890.0, 262.0)",1.15,0.441,1,3043.911,3,0.02,same
0,495,valid,"[(1180, 767)]",[],[1],[0.6833333333333333],vertical,"(890.0, 262.0)",1.2,0.635,1,3049.709,3,0.02,same
0,496,catch,"[(1175, 782)]",[],[1],[],vertical,"(390.0, 762.0)",1.7,nan,1,3055.664,3,0.02,same
0,497,valid,"[(1179, 774)]",[],[1],[0.5],vertical,"(890.0, 762.0)",0.9333333333333333,0.458,1,3061.948,3,0.02,same
0,498,catch,"[(1181, 780)]",[],[1],[],vertical,"(890.0, 762.0)",1.7,nan,1,3067.62,3,0.02,same
0,499,valid,"[(1181, 769)]",[],[1],[0.75],horizontal,"(390.0, 262.0)",1.1666666666666667,0.7,1,3073.184,3,0.02,same
0,500,valid,"[(1183, 783)]",[],[1],[0.55],vertical,"(390.0, 762.0)",0.95,0.514,1,3079.382,3,0.02,same
0,501,catch,"[(1160, 781)]",[],[1],[],horizontal,"(390.0, 762.0)",1.7,nan,1,3084.726,3,0.02,same
0,502,catch,"[(1188, 789)]",[],[1],[],vertical,"(390.0, 262.0)",1.7,nan,1,3090.349,3,0.02,same
0,503,valid,"[(1170, 776)]",[],[1],[0.5666666666666667],vertical,"(890.0, 762.0)",1.3833333333333333,0.54,1,3096.64,3,0.02,same
0,504,catch,"[(1182, 774)]",[],[1],[],vertical,"(890.0, 762.0)",1.7,nan,1,3102.809,3,0.02,same
0,505,valid,"[(1184, 779)]",[],[1],[0.5333333333333333],vertical,"(390.0, 262.0)",0.9166666666666666,0.49,1,3108.866,3,0.02,same
0,506,valid,"[(1180, 773)]",[],[1],[0.6],vertical,"(890.0, 262.0)",1.2666666666666666,0.555,1,3114.415,3,0.02,same
0,507,invalid_adjacent_other_bar,"[(1176, 782)]",[],[1],[0.6166666666666667],horizontal,"(390.0, 262.0)",0.7166666666666667,0.568,1,3120.651,3,0.0,other
0,508,valid,"[(1167, 765)]",[],[1],[0.5333333333333333],vertical,"(890.0, 762.0)",1.15,0.491,1,3126.582,3,0.0,same
0,509,valid,"[(1175, 775)]",[],[1],[0.48333333333333334],horizontal,"(390.0, 262.0)",1.4,0.448,1,3132.315,3,0.0,same
0,510,valid,"[(1160, 769)]",[],[1],[0.65],vertical,"(890.0, 262.0)",0.75,0.61,1,3138.298,3,0.0,same
0,511,invalid_adjacent_other_bar,"[(1158, 788)]",[],[1],[0.55],vertical,"(390.0, 262.0)",1.2333333333333334,0.501,1,3144.202,3,0.0,other
0,512,catch,"[(1179, 787)]",[],[1],[],vertical,"(390.0, 762.0)",,"('cti', 1.662),nan",0,3150.533,0,0.02,same
0,513,valid,"[(1145, 800)]",[],[1],[],horizontal,"(390.0, 262.0)",,"('cti', 0.845)",0,3155.264,0,0.02,same
0,514,catch,"[(1121, 791)]",[],[1],[],horizontal,"(390.0, 262.0)",,"('cti', 1.064),nan",0,3370.874,0,0.04,same
0,515,valid,"[(1148, 793)]","[(1150, 822)]",[1],[0.6666666666666666],horizontal,"(390.0, 262.0)",,"('bar', 0.673)",0,3375.01,0,0.04,same
0,516,valid,"[(1142, 763)]",[],[1],[0.5],vertical,"(890.0, 262.0)",1.3666666666666667,0.462,1,3378.07,1,0.04,same
0,517,catch,"[(1162, 745), (1121, 786)]",[],"[0, 1]",[],horizontal,"(890.0, 762.0)",1.7,nan,1,3383.312,1,0.04,same
0,518,valid,"[(1165, 757)]",[],[1],[0.5],vertical,"(390.0, 762.0)",1.2833333333333332,0.46,1,3389.633,1,0.04,same
0,519,valid,"[(1180, 767)]",[],[1],[0.5],horizontal,"(890.0, 262.0)",0.35,0.459,1,3395.163,2,0.04,same
0,520,catch,"[(1156, 772)]",[],[1],[],vertical,"(890.0, 762.0)",1.7,nan,1,3399.682,2,0.04,same
0,521,invalid_same_bar,"[(1165, 791)]",[],[1],[0.6666666666666666],horizontal,"(390.0, 262.0)",0.55,0.623,1,3405.094,2,0.04,same
0,522,valid,"[(1167, 769)]",[],[1],[0.5166666666666666],vertical,"(390.0, 262.0)",0.5166666666666666,0.478,1,3410.665,3,0.04,same
0,523,catch,"[(1177, 774)]",[],[1],[],vertical,"(890.0, 262.0)",1.7,nan,1,3416.415,3,0.04,same
0,524,catch,"[(1175, 793)]",[],[1],[],vertical,"(890.0, 262.0)",1.7,nan,1,3422.071,3,0.04,same
0,525,valid,"[(1175, 779)]",[],[1],[0.85],horizontal,"(390.0, 762.0)",0.4,nan,0,3428.178,0,0.04,same
0,526,valid,"[(1142, 786)]",[],[1],[0.5333333333333333],horizontal,"(390.0, 762.0)",1.3166666666666667,0.494,1,3432.567,1,0.04,same
0,527,valid,"[(1179, 774)]",[],[1],[0.48333333333333334],vertical,"(890.0, 262.0)",0.5333333333333333,0.444,1,3438.183,1,0.04,same
0,528,invalid_adjacent_other_bar,"[(1177, 794)]",[],[1],[0.55],vertical,"(390.0, 762.0)",0.65,0.509,1,3442.539,1,0.04,other
0,529,valid,"[(1209, 786)]",[],[1],[0.6],horizontal,"(390.0, 262.0)",1.5166666666666666,0.551,1,3447.5,2,0.04,same
0,530,catch,"[(1211, 765)]",[],[1],[],vertical,"(890.0, 762.0)",1.7,nan,1,3453.301,2,0.04,same
0,531,invalid_adjacent_other_bar,"[(1197, 777)]",[],[1],[0.55],vertical,"(890.0, 762.0)",1.45,0.508,1,3459.315,2,0.04,other
0,532,invalid_same_bar,"[(1156, 778)]",[],[1],[0.5833333333333334],vertical,"(890.0, 762.0)",1.4166666666666667,0.54,1,3465.634,3,0.04,same
0,533,valid,"[(1186, 778)]",[],[1],[0.85],horizontal,"(890.0, 262.0)",1.05,nan,0,3472.417,0,0.04,same
0,534,valid,"[(1155, 785)]",[],[1],[0.6333333333333333],vertical,"(390.0, 762.0)",0.45,0.592,1,3477.182,1,0.04,same
0,535,catch,"[(1175, 774)]",[],[1],[],horizontal,"(890.0, 762.0)",1.7,nan,1,3481.399,1,0.04,same
0,536,valid,"[(1165, 772)]",[],[1],[0.85],vertical,"(390.0, 262.0)",0.6833333333333333,nan,0,3486.833,0,0.04,same
0,537,catch,"[(1140, 772)]",[],[1],[],horizontal,"(390.0, 762.0)",1.7,nan,1,3491.066,1,0.04,same
0,538,valid,"[(1175, 773)]",[],[1],[0.6],vertical,"(390.0, 262.0)",1.0833333333333333,0.56,1,3496.64,1,0.04,same
0,539,valid,"[(1175, 781)]",[],[1],[0.48333333333333334],horizontal,"(890.0, 762.0)",0.43333333333333335,0.448,1,3501.802,1,0.04,same
0,540,catch,"[(1140, 794)]",[],[1],[],vertical,"(390.0, 262.0)",1.7,nan,1,3506.401,2,0.04,same
0,541,valid,"[(1176, 769)]",[],[1],[0.55],vertical,"(890.0, 762.0)",1.1666666666666667,0.508,1,3512.649,2,0.04,same
0,542,valid,"[(1167, 772)]",[],[1],[],horizontal,"(390.0, 762.0)",,"('cti', 1.178)",0,3518.488,0,0.04,same
0,543,valid,"[(1139, 792)]",[],[1],[0.5833333333333334],vertical,"(890.0, 262.0)",0.6333333333333333,0.538,1,3522.533,1,0.04,same
0,544,catch,"[(1176, 769)]",[],[1],[],horizontal,"(390.0, 762.0)",1.7,nan,1,3527.627,1,0.04,same
0,545,valid,"[(1176, 789)]",[],[1],[0.85],vertical,"(390.0, 762.0)",1.2166666666666666,nan,0,3532.898,0,0.04,same
0,546,valid,"[(1137, 796)]",[],[1],[0.6],horizontal,"(390.0, 762.0)",1.1666666666666667,0.551,1,3537.649,1,0.04,same
0,547,valid,"[(1168, 759)]",[],[1],[0.5],horizontal,"(390.0, 762.0)",1.5,0.461,1,3544.284,1,0.04,same
0,548,valid,"[(1149, 800)]",[],[1],[0.5166666666666666],horizontal,"(390.0, 762.0)",0.4,0.475,1,3550.017,1,0.04,same
0,549,catch,"[(1175, 801)]",[],[1],[],horizontal,"(890.0, 762.0)",1.7,nan,1,3554.524,2,0.04,same
0,550,valid,"[(1155, 799)]",[],[1],[0.5666666666666667],horizontal,"(890.0, 262.0)",1.2,0.527,1,3560.2,2,0.04,same
0,551,catch,"[(1177, 766)]",[],[1],[],horizontal,"(890.0, 762.0)",1.7,nan,1,3565.988,2,0.04,same
0,552,valid,"[(1157, 795)]",[],[1],[0.5666666666666667],vertical,"(890.0, 762.0)",0.9,0.525,1,3571.516,3,0.04,same
0,553,valid,"[(1188, 776)]",[],[1],[0.5833333333333334],horizontal,"(390.0, 762.0)",1.2,0.543,1,3577.933,3,0.04,same
0,554,valid,"[(1155, 795)]",[],[1],[0.7166666666666667],vertical,"(890.0, 262.0)",0.7833333333333333,0.667,1,3583.884,3,0.04,same
0,555,valid,"[(1161, 769)]",[],[1],[0.5166666666666666],vertical,"(890.0, 762.0)",0.7666666666666666,0.477,1,3590.055,3,0.04,same
0,556,valid,"[(1177, 773)]",[],[1],[0.55],horizontal,"(890.0, 762.0)",1.4166666666666667,0.511,1,3595.76,3,0.04,same
0,557,valid,"[(1160, 768)]",[],[1],[0.5333333333333333],horizontal,"(390.0, 262.0)",1.3666666666666667,0.488,1,3602.271,3,0.04,same
0,558,valid,"[(1178, 788)]",[],[1],[0.65],horizontal,"(390.0, 262.0)",1.05,0.609,1,3608.476,3,0.04,same
0,559,invalid_same_bar,"[(1160, 799)]",[],[1],[0.6333333333333333],horizontal,"(890.0, 762.0)",0.4666666666666667,0.586,1,3614.9,3,0.04,same
0,560,catch,"[(1168, 772)]",[],[1],[],horizontal,"(390.0, 762.0)",1.7,nan,1,3620.634,3,0.04,same
0,561,valid,"[(1160, 766)]",[],[1],[0.7666666666666666],vertical,"(890.0, 262.0)",1.3833333333333333,0.718,1,3626.544,3,0.04,same
0,562,valid,"[(1185, 783)]",[],[1],[0.5333333333333333],vertical,"(890.0, 262.0)",1.1,0.49,1,3632.921,3,0.02,same
0,563,valid,"[(1168, 762)]",[],[1],[0.6166666666666667],vertical,"(890.0, 262.0)",0.5166666666666666,0.574,1,3638.534,3,0.02,same
0,564,catch,"[(1177, 772)]",[],[1],[],horizontal,"(890.0, 762.0)",1.7,nan,1,3644.065,3,0.0,same
0,565,valid,"[(1154, 780)]",[],[1],[0.6166666666666667],vertical,"(890.0, 762.0)",1.25,0.571,1,3649.939,3,0.0,same
0,566,valid,"[(1165, 761)]",[],[1],[0.5166666666666666],horizontal,"(890.0, 762.0)",0.3833333333333333,0.473,1,3656.034,3,0.0,same
0,567,valid,"[(1180, 773)]",[],[1],[0.5166666666666666],horizontal,"(390.0, 762.0)",0.5833333333333334,0.476,1,3661.528,3,0.0,same
0,568,valid,"[(1175, 775)]",[],[1],[0.5833333333333334],horizontal,"(890.0, 762.0)",1.5,0.541,1,3666.6,3,0.0,same
0,569,valid,"[(1178, 776)]",[],[1],[0.55],horizontal,"(390.0, 762.0)",0.6333333333333333,0.51,1,3673.024,3,0.0,same
0,570,catch,"[(1170, 771)]",[],[1],[],vertical,"(890.0, 262.0)",1.7,nan,1,3678.649,3,0.0,same
0,571,valid,"[(1176, 773)]",[],[1],[0.6666666666666666],vertical,"(890.0, 762.0)",1.4166666666666667,0.621,1,3684.584,3,0.0,same
0,572,valid,"[(1175, 798)]",[],[1],[0.5166666666666666],vertical,"(390.0, 262.0)",0.55,0.481,1,3690.878,3,0.0,same
0,573,invalid_same_bar,"[(1163, 763)]",[],[1],[0.6166666666666667],vertical,"(890.0, 762.0)",1.3666666666666667,0.588,1,3696.383,3,0.0,same
0,574,valid,"[(1180, 768)]",[],[1],[0.85],horizontal,"(890.0, 762.0)",0.5166666666666666,nan,0,3702.575,0,0.0,same
0,575,valid,"[(1150, 773)]",[],[1],[0.5166666666666666],horizontal,"(390.0, 262.0)",0.4,0.476,1,3706.85,1,0.0,same
0,576,valid,"[(1183, 765)]",[],[1],[0.7166666666666667],vertical,"(890.0, 762.0)",0.6666666666666666,0.668,1,3711.18,1,0.0,same
0,577,catch,"[(1175, 772)]",[],[1],[],horizontal,"(890.0, 762.0)",1.7,nan,1,3716.249,1,0.0,same
0,578,valid,"[(1210, 776)]",[],[1],[0.5],vertical,"(890.0, 262.0)",1.5,0.454,1,3721.559,2,0.0,same
0,579,catch,"[(1176, 789)]",[],[1],[],horizontal,"(390.0, 262.0)",1.7,nan,1,3727.714,2,0.0,same
0,580,valid,"[(1195, 764)]",[],[1],[0.55],horizontal,"(390.0, 262.0)",0.95,0.506,1,3733.222,2,0.0,same
0,581,valid,"[(1175, 780)]",[],[1],[0.5166666666666666],vertical,"(390.0, 762.0)",1.3833333333333333,0.475,1,3738.385,3,0.0,same
0,582,invalid_adjacent_other_bar,"[(1178, 787)]",[],[1],[0.5666666666666667],horizontal,"(890.0, 762.0)",1.2333333333333334,0.52,1,3745.003,3,0.0,other
0,583,valid,"[(1175, 772)]",[],[1],[0.6833333333333333],horizontal,"(390.0, 262.0)",1.2166666666666666,0.652,1,3751.268,3,0.0,same
0,584,valid,"[(1181, 791)]",[],[1],[0.6333333333333333],horizontal,"(390.0, 262.0)",0.6,0.607,1,3757.468,3,0.0,same
0,585,valid,"[(1175, 741), (1132, 816)]",[],"[0, 1]",[],vertical,"(390.0, 762.0)",,"('cti', 0.587)",0,3763.318,0,0.0,same
0,586,catch,"[(1145, 786)]",[],[1],[],horizontal,"(390.0, 762.0)",,"('cti', 1.667),nan",0,3768.368,0,0.02,same
0,587,valid,"[(1145, 783)]",[],[1],[0.5833333333333334],vertical,"(390.0, 262.0)",1.3333333333333333,0.541,1,3773.325,1,0.02,same
0,588,valid,"[(1180, 761)]",[],[1],[0.5166666666666666],horizontal,"(890.0, 762.0)",0.75,0.477,1,3779.034,1,0.02,same
0,589,invalid_same_bar,"[(1183, 779)]",[],[1],[0.5333333333333333],horizontal,"(890.0, 762.0)",1.2,0.494,1,3784.307,1,0.02,same
0,590,valid,"[(1184, 774)]",[],[1],[0.6833333333333333],horizontal,"(890.0, 762.0)",1.0,0.64,1,3789.834,2,0.02,same
0,591,valid,"[(1180, 796)]",[],[1],[0.6333333333333333],horizontal,"(890.0, 262.0)",1.1666666666666667,0.591,1,3795.252,2,0.02,same
0,592,valid,"[(1180, 773)]",[],[1],[0.6333333333333333],vertical,"(390.0, 762.0)",1.1833333333333333,0.589,1,3800.534,2,0.02,same
0,593,valid,"[(1180, 768)]",[],[1],[0.5166666666666666],vertical,"(890.0, 762.0)",0.8333333333333334,0.481,1,3806.65,3,0.02,same
0,594,valid,"[(1176, 787)]",[],[1],[0.85],horizontal,"(390.0, 262.0)",1.15,nan,0,3812.0,0,0.02,same
0,595,valid,"[(1155, 786)]","[(1156, 826)]",[1],[0.016666666666666666],vertical,"(390.0, 762.0)",,"('bar', 0.034)",0,3817.016,0,0.02,same
0,596,valid,"[(1140, 791)]",[],[1],[0.6166666666666667],vertical,"(390.0, 262.0)",0.9166666666666666,0.574,1,3819.363,1,0.02,same
0,597,valid,"[(1157, 800)]",[],[1],[0.5666666666666667],horizontal,"(890.0, 762.0)",0.8166666666666667,0.523,1,3824.861,1,0.02,same
0,598,valid,"[(1197, 781)]",[],[1],[0.5],vertical,"(890.0, 762.0)",1.2,0.463,1,3829.868,1,0.02,same
0,599,valid,"[(1150, 797)]",[],[1],[0.85],vertical,"(390.0, 262.0)",0.5,nan,0,3835.084,0,0.02,same
0,600,catch,"[(1148, 791)]",[],[1],[],vertical,"(890.0, 262.0)",1.7,nan,1,3859.201,1,0.02,same
0,601,invalid_same_bar,"[(1171, 772)]",[],[1],[0.5666666666666667],vertical,"(890.0, 262.0)",0.48333333333333334,0.534,1,3864.253,1,0.02,same
0,602,valid,"[(1160, 761)]",[],[1],[0.6333333333333333],horizontal,"(890.0, 262.0)",0.7333333333333333,0.598,1,3868.568,1,0.02,same
0,603,valid,"[(1167, 781)]",[],[1],[0.55],horizontal,"(890.0, 262.0)",1.5166666666666666,0.512,1,3873.774,2,0.02,same
0,604,valid,"[(1185, 770)]",[],[1],[0.5666666666666667],vertical,"(890.0, 762.0)",1.3666666666666667,0.526,1,3879.55,2,0.02,same
0,605,catch,"[(1180, 768)]",[],[1],[],vertical,"(390.0, 762.0)",1.7,nan,1,3885.288,2,0.02,same
0,606,invalid_adjacent_other_bar,"[(1165, 786)]",[],[1],[0.55],horizontal,"(390.0, 762.0)",0.9,0.509,1,3891.357,3,0.02,other
0,607,invalid_same_bar,"[(1161, 785)]",[],[1],[0.55],vertical,"(890.0, 762.0)",0.55,0.505,1,3897.162,3,0.02,same
0,608,catch,"[(1180, 779)]",[],[1],[],vertical,"(890.0, 262.0)",1.7,nan,1,3902.955,3,0.02,same
0,609,valid,"[(1175, 769)]",[],[1],[0.6166666666666667],horizontal,"(390.0, 262.0)",1.3333333333333333,0.572,1,3909.067,3,0.02,same
0,610,invalid_adjacent_other_bar,"[(1166, 783)]",[],[1],[0.85],horizontal,"(890.0, 762.0)",0.5333333333333333,nan,0,3915.285,0,0.02,other
0,611,valid,"[(1145, 785)]",[],[1],[0.5333333333333333],horizontal,"(890.0, 762.0)",1.1,0.496,1,3919.518,1,0.02,same
0,612,valid,"[(1174, 769)]",[],[1],[0.7333333333333333],horizontal,"(890.0, 262.0)",0.6166666666666667,0.687,1,3924.542,1,0.02,same
0,613,valid,"[(1179, 780)]",[],[1],[0.5],vertical,"(390.0, 262.0)",1.4833333333333334,0.462,1,3929.502,1,0.02,same
0,614,valid,"[(1155, 788)]",[],[1],[0.5333333333333333],horizontal,"(890.0, 762.0)",1.1,0.493,1,3935.418,2,0.02,same
0,615,valid,"[(1214, 782)]",[],[1],[0.6833333333333333],vertical,"(890.0, 262.0)",0.6833333333333333,0.641,1,3941.182,2,0.02,same
0,616,catch,"[(1170, 783)]",[],[1],[],vertical,"(390.0, 762.0)",1.7,nan,1,3946.387,2,0.02,same
0,617,invalid_same_bar,"[(1184, 778)]",[],[1],[0.6833333333333333],vertical,"(390.0, 262.0)",1.25,0.638,1,3952.017,3,0.02,same
0,618,valid,"[(1178, 776)]",[],[1],[0.5333333333333333],vertical,"(390.0, 262.0)",0.8833333333333333,0.492,1,3958.459,3,0.02,same
0,619,valid,"[(1140, 809)]",[],[1],[0.36666666666666664],vertical,"(890.0, 262.0)",1.3666666666666667,0.328,1,3964.335,3,0.02,same
0,620,valid,"[(1165, 786)]",[],[1],[0.55],vertical,"(890.0, 762.0)",1.4333333333333333,0.509,1,5274.036,3,0.02,same
0,621,catch,"[(1160, 770)]",[],[1],[],vertical,"(890.0, 262.0)",1.7,nan,1,5280.389,3,0.02,same
0,622,catch,"[(1170, 783)]",[],[1],[],horizontal,"(390.0, 762.0)",,"('cti', 1.54),nan",0,5286.172,0,0.04,same
0,623,catch,"[(1151, 807)]",[],[1],[],horizontal,"(890.0, 762.0)",1.7,nan,1,5290.822,1,0.04,same
0,624,catch,"[(1174, 781)]",[],[1],[],horizontal,"(390.0, 762.0)",1.7,nan,1,5295.825,1,0.04,same
0,625,valid,"[(1190, 796)]",[],[1],[0.5166666666666666],horizontal,"(890.0, 762.0)",1.4166666666666667,0.474,1,5300.907,1,0.04,same
0,626,catch,"[(1207, 796)]",[],[1],[],horizontal,"(890.0, 262.0)",1.7,nan,1,5306.261,2,0.04,same
0,627,valid,"[(1164, 764)]",[],[1],[0.5166666666666666],horizontal,"(390.0, 762.0)",0.9,0.475,1,5311.772,2,0.04,same
0,628,valid,"[(1162, 772)]",[],[1],[0.85],horizontal,"(390.0, 262.0)",0.43333333333333335,nan,0,5316.64,0,0.04,same
0,629,valid,"[(1161, 789)]",[],[1],[0.4666666666666667],horizontal,"(890.0, 762.0)",1.4166666666666667,0.427,1,5321.361,1,0.04,same
0,630,valid,"[(1176, 782)]",[],[1],[0.6166666666666667],horizontal,"(390.0, 762.0)",1.1666666666666667,0.572,1,5326.921,1,0.04,same
0,631,valid,"[(1179, 759)]",[],[1],[0.4666666666666667],horizontal,"(890.0, 762.0)",1.3,0.427,1,5332.059,1,0.04,same
0,632,catch,"[(1206, 786)]",[],[1],[],vertical,"(390.0, 762.0)",1.7,nan,1,5337.239,2,0.04,same
0,633,valid,"[(1165, 769)]",[],[1],[0.5833333333333334],horizontal,"(890.0, 262.0)",1.4833333333333334,0.537,1,5343.072,2,0.04,same
0,634,valid,"[(1199, 780)]",[],[1],[0.5166666666666666],horizontal,"(390.0, 762.0)",0.7,0.472,1,5348.839,2,0.04,same
0,635,valid,"[(1180, 769)]",[],[1],[0.5166666666666666],vertical,"(890.0, 762.0)",0.8166666666666667,0.473,1,5354.184,3,0.04,same
0,636,catch,"[(1200, 784)]",[],[1],[],vertical,"(390.0, 262.0)",1.7,nan,1,5360.074,3,0.02,same
0,637,valid,"[(1193, 786)]",[],[1],[0.5166666666666666],vertical,"(890.0, 762.0)",0.9666666666666667,0.471,1,5366.257,3,0.02,same
0,638,valid,"[(1175, 770)]",[],[1],[0.5833333333333334],vertical,"(890.0, 762.0)",0.95,0.535,1,5372.102,3,0.02,same
0,639,catch,"[(1164, 767)]",[],[1],[],horizontal,"(890.0, 762.0)",1.7,nan,1,5377.473,3,0.02,same
0,640,valid,"[(1185, 764)]",[],[1],[0.45],vertical,"(890.0, 262.0)",0.48333333333333334,0.42,1,5383.041,3,0.02,same
0,641,valid,"[(1175, 780)]",[],[1],[0.55],vertical,"(390.0, 262.0)",1.1,0.505,1,5388.324,3,0.02,same
0,642,invalid_same_bar,"[(1180, 787)]",[],[1],[0.5333333333333333],vertical,"(890.0, 262.0)",0.7833333333333333,0.494,1,5394.023,3,0.02,same
0,643,catch,"[(1180, 786)]",[],[1],[],horizontal,"(890.0, 262.0)",1.7,nan,1,5399.523,3,0.02,same
0,644,catch,"[(1176, 775)]",[],[1],[],vertical,"(890.0, 262.0)",1.7,nan,1,5405.54,3,0.02,same
0,645,valid,"[(1183, 772)]",[],[1],[0.5166666666666666],vertical,"(390.0, 762.0)",1.3833333333333333,0.471,1,5411.356,3,0.02,same
0,646,valid,"[(1180, 776)]",[],[1],[0.85],horizontal,"(390.0, 762.0)",1.1833333333333333,nan,0,5417.491,0,0.02,same
0,647,catch,"[(1165, 783)]",[],[1],[],horizontal,"(390.0, 762.0)",1.7,nan,1,5422.139,1,0.02,same
0,648,valid,"[(1160, 795)]",[],[1],[0.85],vertical,"(890.0, 762.0)",0.3833333333333333,nan,0,5427.651,0,0.02,same
0,649,valid,"[(1133, 766)]",[],[1],[0.5833333333333334],horizontal,"(890.0, 262.0)",0.8166666666666667,0.533,1,5432.081,1,0.02,same
0,650,valid,"[(1160, 770)]",[],[1],[0.85],vertical,"(390.0, 762.0)",1.2333333333333334,nan,0,5436.657,0,0.02,same
0,651,catch,"[(1164, 777)]",[],[1],[],horizontal,"(390.0, 762.0)",1.7,nan,1,5441.417,1,0.02,same
0,652,valid,"[(1180, 778)]",[],[1],[0.5],vertical,"(890.0, 762.0)",0.4,0.46,1,5446.748,1,0.02,same
0,653,valid,"[(1164, 769)]",[],[1],[0.6166666666666667],vertical,"(390.0, 262.0)",1.0166666666666666,0.573,1,5450.905,1,0.02,same
0,654,valid,"[(1125, 837)]",[],[1],[],horizontal,"(890.0, 762.0)",,"('cti', 0.194)",0,5455.852,0,0.02,same
0,655,invalid_same_bar,"[(1136, 815)]",[],[1],[0.85],horizontal,"(890.0, 262.0)",1.0166666666666666,nan,0,5974.917,0,0.02,same
0,656,valid,"[(1166, 837)]",[],[1],[0.6333333333333333],horizontal,"(890.0, 262.0)",1.05,0.588,1,6436.91,1,0.02,same
0,657,valid,"[(1163, 782)]",[],[1],[0.85],vertical,"(890.0, 262.0)",0.7833333333333333,nan,0,6447.836,0,0.02,same
0,658,valid,"[(1122, 816)]",[],[1],[0.6833333333333333],horizontal,"(890.0, 262.0)",0.6333333333333333,0.64,1,6452.529,1,0.02,same
0,659,valid,"[(1160, 789)]",[],[1],[0.85],vertical,"(390.0, 262.0)",0.4,nan,0,6483.994,0,0.02,same
0,660,catch,"[(1159, 765)]",[],[1],[],horizontal,"(890.0, 262.0)",1.7,nan,1,6488.125,1,0.02,same
0,661,invalid_adjacent_other_bar,"[(1175, 763)]",[],[1],[0.5833333333333334],vertical,"(890.0, 762.0)",0.8,0.545,1,6493.79,1,0.02,other
0,662,valid,"[(1161, 782)]",[],[1],[0.7333333333333333],horizontal,"(890.0, 762.0)",1.0833333333333333,0.685,1,6498.327,1,0.02,same
0,663,catch,"[(1188, 784)]",[],[1],[],vertical,"(890.0, 262.0)",1.7,nan,1,6503.608,2,0.02,same
0,664,valid,"[(1168, 783)]",[],[1],[0.45],vertical,"(890.0, 262.0)",0.7166666666666667,0.41,1,6509.456,2,0.02,same
0,665,valid,"[(1204, 785)]",[],[1],[0.5666666666666667],vertical,"(390.0, 762.0)",0.9,0.525,1,6514.477,2,0.02,same
0,666,catch,"[(1180, 786)]",[],[1],[],vertical,"(890.0, 762.0)",1.7,nan,1,6520.242,3,0.02,same
0,667,invalid_same_bar,"[(1178, 785)]",[],[1],[0.6166666666666667],vertical,"(890.0, 762.0)",1.1666666666666667,0.584,1,6526.297,3,0.02,same
0,668,valid,"[(1182, 777)]","[(1149, 854)]",[1],[0.25],vertical,"(890.0, 762.0)",,"('bar', 0.264)",0,6532.326,0,0.02,same
0,669,valid,"[(1166, 781)]",[],[1],[0.5666666666666667],horizontal,"(390.0, 262.0)",0.36666666666666664,0.534,1,6534.929,1,0.02,same
0,670,invalid_same_bar,"[(1163, 772)]",[],[1],[0.5833333333333334],horizontal,"(390.0, 262.0)",1.1333333333333333,0.544,1,6539.277,1,0.02,same
0,671,valid,"[(1202, 790)]",[],[1],[0.5333333333333333],horizontal,"(390.0, 762.0)",1.0833333333333333,0.493,1,6544.565,1,0.02,same
0,672,valid,"[(1145, 822)]",[],[1],[0.48333333333333334],vertical,"(390.0, 262.0)",1.3833333333333333,0.445,1,6550.181,2,0.0,same
0,673,invalid_same_bar,"[(1175, 791)]",[],[1],[0.85],vertical,"(390.0, 262.0)",0.43333333333333335,nan,0,6556.464,0,0.0,same
0,674,valid,"[(1155, 791)]",[],[1],[0.5666666666666667],vertical,"(390.0, 262.0)",1.1166666666666667,0.527,1,6561.405,1,0.0,same
0,675,valid,"[(1184, 768)]",[],[1],[0.48333333333333334],horizontal,"(890.0, 262.0)",0.9166666666666666,0.444,1,6566.276,1,0.0,same
0,676,valid,"[(1189, 797)]",[],[1],[0.5833333333333334],horizontal,"(890.0, 762.0)",0.6666666666666666,0.544,1,6571.393,1,0.0,same
0,677,invalid_adjacent_other_bar,"[(1153, 774)]",[],[1],[0.8333333333333334],horizontal,"(890.0, 762.0)",1.1166666666666667,0.81,0,6576.43,0,0.0,other
0,678,invalid_adjacent_other_bar,"[(1165, 781)]",[],[1],[0.65],vertical,"(390.0, 762.0)",1.15,0.609,1,6581.611,1,0.0,other
0,679,valid,"[(1181, 798)]",[],[1],[0.45],horizontal,"(390.0, 762.0)",1.4833333333333334,0.404,1,6586.727,1,0.0,same
0,680,valid,"[(1186, 771)]",[],[1],[0.5],horizontal,"(390.0, 762.0)",0.7833333333333333,0.459,1,6592.368,1,0.0,same
0,681,valid,"[(1167, 775)]",[],[1],[0.6],horizontal,"(390.0, 262.0)",1.4833333333333334,0.556,1,6596.694,2,0.0,same
0,682,valid,"[(1180, 787)]",[],[1],[0.5333333333333333],horizontal,"(390.0, 262.0)",1.2166666666666666,0.489,1,6603.056,2,0.0,same
0,683,valid,"[(1175, 763)]",[],[1],[0.6166666666666667],vertical,"(390.0, 762.0)",0.6666666666666666,0.576,1,6609.211,2,0.0,same
0,684,valid,"[(1175, 769)]",[],[1],[0.85],vertical,"(890.0, 262.0)",1.35,nan,0,6614.592,0,0.0,same
0,685,valid,"[(1163, 788)]",[],[1],[0.5],vertical,"(890.0, 762.0)",1.05,0.468,1,6619.736,1,0.0,same
0,686,valid,"[(1208, 779)]",[],[1],[0.5333333333333333],vertical,"(390.0, 262.0)",1.0333333333333332,0.493,1,6624.875,1,0.0,same
0,687,valid,"[(1208, 767)]",[],[1],[0.5166666666666666],horizontal,"(390.0, 262.0)",0.5166666666666666,0.476,1,6630.128,1,0.0,same
0,688,valid,"[(1177, 777)]",[],[1],[0.5666666666666667],vertical,"(890.0, 762.0)",0.3833333333333333,0.525,1,6634.861,2,0.0,same
0,689,valid,"[(1179, 777)]",[],[1],[0.4666666666666667],horizontal,"(890.0, 262.0)",1.2666666666666666,0.427,1,6639.699,2,0.0,same
0,690,valid,"[(1178, 786)]",[],[1],[0.5],horizontal,"(890.0, 762.0)",0.5166666666666666,0.466,1,6645.56,2,0.0,same
0,691,catch,"[(1162, 780)]",[],[1],[],vertical,"(390.0, 262.0)",1.7,nan,1,6650.944,3,0.0,same
0,692,catch,"[(1195, 772)]",[],[1],[],vertical,"(890.0, 262.0)",1.7,nan,1,6656.97,3,0.0,same
0,693,valid,"[(1183, 770)]",[],[1],[0.55],horizontal,"(390.0, 762.0)",1.3166666666666667,0.517,1,6663.011,3,0.0,same
0,694,valid,"[(1176, 765)]",[],[1],[0.6333333333333333],vertical,"(890.0, 262.0)",1.3333333333333333,0.593,1,6669.231,3,0.0,same
0,695,catch,"[(1177, 787)]",[],[1],[],horizontal,"(390.0, 262.0)",1.7,nan,1,6675.643,3,0.0,same
0,696,valid,"[(1177, 773)]",[],[1],[0.5666666666666667],vertical,"(890.0, 762.0)",1.4166666666666667,0.53,1,6681.56,3,0.0,same
0,697,catch,"[(1180, 761)]",[],[1],[],horizontal,"(890.0, 762.0)",1.7,nan,1,6687.711,3,0.0,same
0,698,catch,"[(1185, 764)]",[],[1],[],horizontal,"(890.0, 762.0)",1.7,nan,1,6694.21,3,0.0,same
0,699,valid,"[(1180, 777)]",[],[1],[0.5666666666666667],vertical,"(890.0, 262.0)",1.4333333333333333,0.527,1,6700.448,3,0.0,same
0,700,catch,"[(1180, 765)]",[],[1],[],vertical,"(390.0, 262.0)",1.7,nan,1,6706.444,3,0.0,same
0,701,catch,"[(1160, 776)]",[],[1],[],vertical,"(390.0, 762.0)",1.7,nan,1,6712.144,3,0.0,same
0,702,valid,"[(1185, 782)]",[],[1],[0.55],vertical,"(890.0, 762.0)",1.2166666666666666,0.509,1,6717.761,3,0.0,same
0,703,catch,"[(1176, 761)]",[],[1],[],horizontal,"(890.0, 762.0)",1.7,nan,1,6723.561,3,0.0,same
0,704,catch,"[(1209, 768)]",[],[1],[],horizontal,"(390.0, 762.0)",1.7,nan,1,6729.727,3,0.0,same
0,705,invalid_adjacent_other_bar,"[(1207, 787)]",[],[1],[0.85],horizontal,"(890.0, 262.0)",1.1,nan,0,6735.495,0,0.0,other
0,706,catch,"[(1174, 791)]",[],[1],[],vertical,"(390.0, 762.0)",1.7,nan,1,6740.427,1,0.0,same
0,707,valid,"[(1191, 786)]",[],[1],[0.7666666666666666],horizontal,"(890.0, 262.0)",1.2166666666666666,0.726,1,6745.318,1,0.0,same
0,708,invalid_adjacent_other_bar,"[(1183, 782)]",[],[1],[0.5666666666666667],vertical,"(890.0, 762.0)",0.4,0.527,1,6750.644,1,0.0,other
0,709,valid,"[(1187, 763)]",[],[1],[0.5833333333333334],horizontal,"(390.0, 262.0)",0.8,0.538,1,6754.929,2,0.0,same
0,710,valid,"[(1209, 785)]",[],[1],[0.48333333333333334],horizontal,"(390.0, 262.0)",1.1166666666666667,0.442,1,6759.91,2,0.0,same
0,711,valid,"[(1190, 799)]",[],[1],[0.55],vertical,"(890.0, 762.0)",1.0166666666666666,0.507,1,6765.562,2,0.0,same
0,712,catch,"[(1174, 781)]",[],[1],[],horizontal,"(890.0, 762.0)",1.7,nan,1,6770.984,3,0.0,same
0,713,catch,"[(1180, 782)]",[],[1],[],vertical,"(390.0, 262.0)",1.7,nan,1,6777.261,3,0.0,same
0,714,invalid_same_bar,"[(1180, 779)]",[],[1],[0.55],vertical,"(890.0, 762.0)",0.4166666666666667,0.508,1,6783.512,3,0.0,same
0,715,invalid_same_bar,"[(1177, 786)]",[],[1],[0.6],vertical,"(890.0, 762.0)",0.6666666666666666,0.566,1,6788.461,3,0.0,same
0,716,valid,"[(1181, 792)]",[],[1],[0.5166666666666666],vertical,"(890.0, 762.0)",0.3833333333333333,0.477,1,6793.761,3,0.0,same
0,717,valid,"[(1165, 798)]",[],[1],[0.5166666666666666],horizontal,"(390.0, 262.0)",1.55,0.477,1,6799.162,3,0.0,same
0,718,valid,"[(1171, 779)]",[],[1],[0.85],horizontal,"(890.0, 762.0)",0.8166666666666667,nan,0,6805.428,0,0.0,same
0,719,valid,"[(1175, 772)]",[],[1],[0.5333333333333333],horizontal,"(390.0, 762.0)",1.0333333333333332,0.491,1,6809.676,1,0.0,same
0,720,catch,"[(1180, 760)]",[],[1],[],vertical,"(890.0, 262.0)",1.7,nan,1,6814.995,1,0.0,same
0,721,valid,"[(1138, 837)]",[],[1],[0.5333333333333333],horizontal,"(390.0, 262.0)",0.8833333333333333,0.491,1,6820.176,1,0.0,same
0,722,catch,"[(1179, 779)]",[],[1],[],vertical,"(890.0, 762.0)",1.7,nan,1,6826.828,2,0.0,same
0,723,catch,"[(1180, 769)]",[],[1],[],horizontal,"(890.0, 262.0)",1.7,nan,1,6832.398,2,0.0,same
0,724,catch,"[(1180, 777)]",[],[1],[],vertical,"(390.0, 262.0)",1.7,nan,1,6838.029,2,0.0,same
0,725,valid,"[(1181, 803)]",[],[1],[0.55],vertical,"(890.0, 262.0)",0.7,0.514,1,6844.028,3,0.0,same
0,726,valid,"[(1194, 778)]",[],[1],[0.55],vertical,"(390.0, 762.0)",0.8,0.515,1,6849.962,3,0.0,same
0,727,valid,"[(1208, 782)]",[],[1],[0.5166666666666666],horizontal,"(890.0, 762.0)",0.7666666666666666,0.483,1,6855.695,3,0.0,same
0,728,valid,"[(1208, 782)]",[],[1],[0.5666666666666667],horizontal,"(890.0, 262.0)",1.3333333333333333,0.528,1,6860.981,3,0.0,same
0,729,valid,"[(1175, 790)]",[],[1],[0.7166666666666667],horizontal,"(890.0, 762.0)",0.4666666666666667,0.67,1,6867.028,3,0.0,same
0,730,catch,"[(1190, 806)]",[],[1],[],horizontal,"(890.0, 762.0)",1.7,nan,1,6872.828,3,0.0,same
0,731,valid,"[(1185, 790)]",[],[1],[0.5166666666666666],vertical,"(890.0, 762.0)",1.3666666666666667,0.473,1,6878.587,3,0.0,same
0,732,invalid_adjacent_other_bar,"[(1181, 777)]",[],[1],[0.5],vertical,"(890.0, 262.0)",0.4,0.458,1,6885.067,3,0.0,other
0,733,catch,"[(1181, 766)]",[],[1],[],vertical,"(390.0, 762.0)",1.7,nan,1,6890.443,3,0.0,same
0,734,catch,"[(1183, 770)]",[],[1],[],horizontal,"(390.0, 762.0)",1.7,nan,1,6896.578,3,0.0,same
0,735,catch,"[(1184, 768)]",[],[1],[],horizontal,"(890.0, 262.0)",1.7,nan,1,6902.161,3,0.0,same
0,736,valid,"[(1184, 769)]",[],[1],[0.8166666666666667],horizontal,"(390.0, 762.0)",0.9833333333333333,0.777,1,6908.396,3,0.0,same
0,737,valid,"[(1180, 760)]",[],[1],[0.6],horizontal,"(890.0, 762.0)",0.5666666666666667,0.555,1,6914.228,3,0.0,same
0,738,valid,"[(1184, 790)]",[],[1],[0.5166666666666666],horizontal,"(890.0, 762.0)",0.36666666666666664,0.48,1,6919.819,3,0.0,same
0,739,catch,"[(1165, 751), (1126, 813)]",[],"[0, 1]",[],horizontal,"(890.0, 262.0)",1.7,nan,1,6924.678,3,0.0,same
0,740,catch,"[(1165, 777)]",[],[1],[],horizontal,"(390.0, 762.0)",,"('cti', 1.154),nan",0,6931.928,0,0.02,same
0,741,catch,"[(1162, 781)]",[],[1],[],horizontal,"(390.0, 762.0)",1.7,nan,1,6936.472,1,0.02,same
0,742,catch,"[(1174, 783)]",[],[1],[],horizontal,"(390.0, 262.0)",1.7,nan,1,6941.879,1,0.02,same
0,743,valid,"[(1179, 800)]",[],[1],[0.5666666666666667],horizontal,"(390.0, 262.0)",0.7,0.533,1,6946.811,1,0.02,same
0,744,valid,"[(1184, 787)]",[],[1],[0.48333333333333334],vertical,"(390.0, 262.0)",0.7666666666666666,0.444,1,6951.65,2,0.02,same
0,745,valid,"[(1185, 776)]",[],[1],[0.4666666666666667],horizontal,"(890.0, 762.0)",1.45,0.427,1,6957.039,2,0.02,same
0,746,invalid_adjacent_other_bar,"[(1166, 798)]",[],[1],[0.85],vertical,"(390.0, 262.0)",1.05,nan,0,6962.795,0,0.02,other
0,747,valid,"[(1166, 779)]",[],[1],[0.4666666666666667],horizontal,"(390.0, 762.0)",0.85,0.429,1,6968.244,1,0.02,same
0,748,valid,"[(1197, 775)]",[],[1],[0.7166666666666667],vertical,"(890.0, 762.0)",0.4666666666666667,0.669,1,6973.191,1,0.02,same
0,749,catch,"[(1180, 773)]",[],[1],[],horizontal,"(390.0, 262.0)",1.7,nan,1,6978.125,1,0.02,same
0,750,valid,"[(1181, 786)]",[],[1],[0.7],horizontal,"(890.0, 762.0)",0.4666666666666667,0.659,1,6983.22,2,0.02,same
0,751,valid,"[(1180, 761)]",[],[1],[0.55],horizontal,"(390.0, 762.0)",1.45,0.511,1,6988.404,2,0.02,same
0,752,valid,"[(1163, 764)]",[],[1],[0.48333333333333334],vertical,"(890.0, 262.0)",0.8333333333333334,0.442,1,6994.129,2,0.02,same
0,753,valid,"[(1195, 770)]",[],[1],[0.6],horizontal,"(890.0, 762.0)",0.9333333333333333,0.555,1,6999.745,3,0.02,same
0,754,catch,"[(1164, 780)]",[],[1],[],horizontal,"(890.0, 262.0)",1.7,nan,1,7005.486,3,0.02,same
0,755,catch,"[(1170, 768)]",[],[1],[],horizontal,"(890.0, 762.0)",1.7,nan,1,7011.929,3,0.02,same
0,756,invalid_same_bar,"[(1183, 776)]",[],[1],[0.85],horizontal,"(890.0, 262.0)",1.2166666666666666,"('cti', 1.213),nan",0,7017.572,0,0.02,same
0,757,valid,"[(1123, 805)]",[],[1],[0.5333333333333333],horizontal,"(390.0, 762.0)",0.9166666666666666,0.487,1,7022.816,1,0.02,same
0,758,valid,"[(1145, 827)]",[],[1],[0.5333333333333333],vertical,"(390.0, 762.0)",0.7,0.484,1,7036.645,1,0.02,same
0,759,catch,"[(1185, 762)]",[],[1],[],horizontal,"(390.0, 762.0)",1.7,nan,1,7041.796,1,0.02,same
0,760,valid,"[(1192, 774)]",[],[1],[0.5833333333333334],horizontal,"(390.0, 262.0)",0.95,0.543,1,7047.161,2,0.02,same
0,761,valid,"[(1190, 778)]",[],[1],[0.5666666666666667],horizontal,"(890.0, 762.0)",1.3833333333333333,0.532,1,7052.463,2,0.02,same
0,762,valid,"[(1190, 786)]",[],[1],[0.48333333333333334],vertical,"(390.0, 762.0)",0.7833333333333333,0.444,1,7058.378,2,0.02,same
0,763,valid,"[(1196, 791)]",[],[1],[0.6666666666666666],vertical,"(390.0, 262.0)",1.0333333333333332,0.629,1,7063.895,3,0.02,same
0,764,valid,"[(1170, 744), (1140, 782)]",[],"[0, 1]",[0.3],vertical,"(890.0, 262.0)",1.4333333333333333,0.268,1,7070.495,3,0.02,same
0,765,valid,"[(1183, 784)]",[],[1],[0.5833333333333334],horizontal,"(390.0, 262.0)",1.2666666666666666,0.541,1,7078.48,3,0.02,same
0,766,valid,"[(1178, 786)]",[],[1],[0.5],horizontal,"(390.0, 262.0)",0.5166666666666666,0.459,1,7084.964,3,0.02,same
0,767,valid,"[(1183, 780)]",[],[1],[0.13333333333333333],vertical,"(890.0, 262.0)",1.1833333333333333,0.102,0,7090.312,0,0.02,same
0,768,valid,"[(1165, 781)]",[],[1],[0.5166666666666666],horizontal,"(390.0, 762.0)",0.8666666666666667,0.484,1,7094.71,1,0.02,same
0,769,invalid_same_bar,"[(1183, 775)]",[],[1],[0.85],horizontal,"(890.0, 262.0)",1.2833333333333332,nan,0,7099.829,0,0.02,same
0,770,catch,"[(1183, 783)]",[],[1],[],vertical,"(890.0, 762.0)",1.7,nan,1,7104.679,1,0.02,same
0,771,catch,"[(1183, 765)]",[],[1],[],horizontal,"(390.0, 262.0)",1.7,nan,1,7109.885,1,0.02,same
0,772,catch,"[(1189, 764)]",[],[1],[],horizontal,"(890.0, 262.0)",1.7,nan,1,7115.529,1,0.02,same
0,773,valid,"[(1182, 773)]",[],[1],[0.4666666666666667],vertical,"(890.0, 262.0)",0.9833333333333333,0.428,1,7120.645,2,0.02,same
0,774,valid,"[(1181, 757)]",[],[1],[0.85],horizontal,"(890.0, 762.0)",0.75,nan,0,7126.062,0,0.02,same
0,775,valid,"[(1165, 781)]",[],[1],[0.5],vertical,"(890.0, 262.0)",0.45,0.461,1,7130.554,1,0.02,same
0,776,valid,"[(1183, 756)]",[],[1],[0.6],vertical,"(390.0, 762.0)",1.3,0.563,1,7135.262,1,0.02,same
0,777,valid,"[(1183, 766)]",[],[1],[0.7666666666666666],vertical,"(390.0, 262.0)",0.95,0.73,1,7140.645,1,0.02,same
0,778,valid,"[(1185, 766)]",[],[1],[0.55],horizontal,"(390.0, 262.0)",1.1666666666666667,0.51,1,7146.295,2,0.02,same
0,779,invalid_adjacent_other_bar,"[(1176, 776)]",[],[1],[0.65],vertical,"(890.0, 762.0)",1.1166666666666667,0.609,1,7152.029,2,0.02,other
0,780,valid,"[(1191, 782)]",[],[1],[0.4666666666666667],vertical,"(890.0, 762.0)",1.1,0.429,1,7157.946,2,0.02,same
0,781,valid,"[(1170, 785)]",[],[1],[0.5833333333333334],vertical,"(890.0, 762.0)",1.0,0.54,1,7163.544,3,0.02,same
0,782,catch,"[(1165, 781)]",[],[1],[],vertical,"(890.0, 262.0)",1.7,nan,1,7169.662,3,0.02,same
0,783,catch,"[(1180, 781)]",[],[1],[],horizontal,"(890.0, 762.0)",1.7,nan,1,7176.079,3,0.02,same
0,784,valid,"[(1181, 786)]",[],[1],[0.75],horizontal,"(890.0, 762.0)",0.7,0.704,1,7182.355,3,0.02,same
0,785,catch,"[(1164, 772)]",[],[1],[],vertical,"(390.0, 262.0)",1.7,nan,1,7187.938,3,0.02,same
0,786,valid,"[(1163, 771)]",[],[1],[0.6166666666666667],vertical,"(390.0, 262.0)",0.7166666666666667,0.573,1,7194.136,3,0.02,same
0,787,catch,"[(1178, 763)]",[],[1],[],vertical,"(390.0, 262.0)",1.7,nan,1,7200.115,3,0.02,same
0,788,valid,"[(1166, 762)]",[],[1],[0.5333333333333333],vertical,"(390.0, 262.0)",1.2666666666666666,0.495,1,7205.962,3,0.02,same
0,789,valid,"[(1176, 778)]",[],[1],[0.6833333333333333],horizontal,"(890.0, 262.0)",0.4,0.641,1,7212.227,3,0.02,same
0,790,valid,"[(1183, 776)]",[],[1],[0.5166666666666666],vertical,"(390.0, 262.0)",0.43333333333333335,0.475,1,7217.1,3,0.0,same
0,791,catch,"[(1166, 785)]",[],[1],[],vertical,"(390.0, 262.0)",1.7,nan,1,7222.194,3,0.0,same
0,792,valid,"[(1175, 782)]",[],[1],[0.48333333333333334],horizontal,"(390.0, 762.0)",1.45,0.448,1,7228.392,3,0.0,same
0,793,valid,"[(1178, 778)]",[],[1],[0.5333333333333333],vertical,"(890.0, 262.0)",0.3833333333333333,0.493,1,7234.757,3,0.0,same
0,794,valid,"[(1173, 784)]",[],[1],[0.5333333333333333],horizontal,"(890.0, 262.0)",0.9,0.492,1,7240.035,3,0.0,same
0,795,invalid_same_bar,"[(1175, 746), (1091, 914)]","[(1093, 933)]","[0, 1]",[0.75],vertical,"(390.0, 262.0)",,"('bar', 0.762)",0,7245.394,0,0.0,same
0,796,invalid_adjacent_other_bar,"[(1135, 777)]",[],[1],[0.6],horizontal,"(390.0, 762.0)",0.55,0.561,1,7250.981,1,0.0,other
0,797,valid,"[(1166, 775)]",[],[1],[0.4666666666666667],horizontal,"(390.0, 262.0)",0.6666666666666666,0.429,1,7255.295,1,0.0,same
0,798,catch,"[(1175, 773)]",[],[1],[],vertical,"(390.0, 762.0)",1.7,nan,1,7259.92,1,0.0,same
0,799,valid,"[(1190, 772)]",[],[1],[0.55],vertical,"(890.0, 262.0)",0.9333333333333333,0.512,1,7265.129,2,0.0,same
0,800,catch,"[(1206, 790)]",[],[1],[],horizontal,"(890.0, 262.0)",1.7,nan,1,7270.814,2,0.0,same
0,801,catch,"[(1177, 800)]",[],[1],[],horizontal,"(390.0, 762.0)",1.7,nan,1,7276.564,2,0.0,same
0,802,catch,"[(1175, 784)]",[],[1],[],horizontal,"(390.0, 762.0)",1.7,nan,1,7282.65,3,0.0,same
0,803,valid,"[(1176, 785)]",[],[1],[0.5666666666666667],horizontal,"(890.0, 762.0)",0.4166666666666667,0.524,1,7289.214,3,0.0,same
0,804,valid,"[(1194, 765)]",[],[1],[0.55],horizontal,"(390.0, 262.0)",0.8666666666666667,0.511,1,7294.465,3,0.0,same
0,805,invalid_adjacent_other_bar,"[(1195, 774)]",[],[1],[0.5333333333333333],vertical,"(890.0, 262.0)",1.4,0.491,1,7300.385,3,0.0,other
0,806,valid,"[(1185, 769)]",[],[1],[0.65],horizontal,"(390.0, 262.0)",1.2333333333333334,0.606,1,7306.742,3,0.0,same
0,807,valid,"[(1184, 781)]",[],[1],[0.5],vertical,"(890.0, 762.0)",0.35,0.461,1,7312.979,3,0.0,same
0,808,valid,"[(1173, 783)]",[],[1],[0.6166666666666667],horizontal,"(890.0, 262.0)",0.5833333333333334,0.577,1,7318.231,3,0.0,same
0,809,valid,"[(1160, 783)]",[],[1],[0.7166666666666667],horizontal,"(890.0, 262.0)",1.05,0.679,1,7323.732,3,0.0,same
0,810,invalid_same_bar,"[(1173, 784)]",[],[1],[0.85],vertical,"(890.0, 262.0)",0.5833333333333334,nan,0,7330.029,0,0.0,same
0,811,valid,"[(1169, 789)]",[],[1],[0.55],horizontal,"(390.0, 262.0)",1.5333333333333332,0.513,1,7334.303,1,0.0,same
0,812,catch,"[(1195, 775)]",[],[1],[],horizontal,"(890.0, 762.0)",1.7,nan,1,7340.192,1,0.0,same
0,813,valid,"[(1171, 782)]",[],[1],[0.4666666666666667],vertical,"(390.0, 262.0)",0.4,0.431,1,7345.779,1,0.0,same
0,814,valid,"[(1178, 781)]",[],[1],[0.5666666666666667],vertical,"(390.0, 262.0)",1.3833333333333333,0.519,1,7349.847,2,0.0,same
0,815,catch,"[(1210, 789)]",[],[1],[],vertical,"(890.0, 762.0)",1.7,nan,1,7355.781,2,0.0,same
0,816,catch,"[(1185, 778)]",[],[1],[],vertical,"(390.0, 762.0)",1.7,nan,1,7361.121,2,0.0,same
0,817,valid,"[(1193, 770)]",[],[1],[0.75],vertical,"(390.0, 262.0)",0.9166666666666666,0.706,1,7366.93,3,0.0,same
0,818,valid,"[(1177, 770)]",[],[1],[0.5],vertical,"(890.0, 762.0)",0.95,0.457,1,7372.926,3,0.0,same
0,819,valid,"[(1172, 773)]",[],[1],[0.4666666666666667],horizontal,"(390.0, 762.0)",0.5833333333333334,0.43,1,7378.446,3,0.0,same
0,820,valid,"[(1177, 786)]",[],[1],[0.5166666666666666],horizontal,"(390.0, 262.0)",1.4833333333333334,0.478,1,7383.911,3,0.0,same
0,821,catch,"[(1176, 775)]",[],[1],[],vertical,"(890.0, 262.0)",1.7,nan,1,7390.614,3,0.0,same
0,822,valid,"[(1176, 785)]",[],[1],[0.6166666666666667],horizontal,"(390.0, 262.0)",1.1833333333333333,0.583,1,7396.73,3,0.0,same
0,823,valid,"[(1208, 811)]",[],[1],[0.85],vertical,"(390.0, 262.0)",0.43333333333333335,nan,0,7403.388,0,0.0,same
0,824,valid,"[(1163, 777)]",[],[1],[0.85],vertical,"(390.0, 762.0)",0.7833333333333333,nan,0,7407.547,0,0.0,same
0,825,catch,"[(1163, 791)]",[],[1],[],vertical,"(890.0, 262.0)",1.7,nan,1,7412.063,1,0.0,same
0,826,catch,"[(1198, 787)]",[],[1],[],vertical,"(890.0, 762.0)",1.7,nan,1,7416.961,1,0.0,same
0,827,invalid_adjacent_other_bar,"[(1167, 786)]",[],[1],[0.26666666666666666],horizontal,"(390.0, 262.0)",1.5333333333333332,0.231,1,7421.765,1,0.0,other
0,828,valid,"[(1206, 782)]",[],[1],[0.6666666666666666],vertical,"(890.0, 262.0)",1.05,0.626,1,7427.061,2,0.0,same
0,829,valid,"[(1185, 773)]",[],[1],[0.3833333333333333],horizontal,"(390.0, 262.0)",1.4166666666666667,0.347,1,7432.692,2,0.0,same
0,830,invalid_adjacent_other_bar,"[(1170, 773)]",[],[1],[0.7],horizontal,"(890.0, 262.0)",1.0833333333333333,0.654,1,7438.326,2,0.0,other
0,831,valid,"[(1209, 775)]",[],[1],[0.6333333333333333],vertical,"(890.0, 762.0)",0.45,0.589,1,7444.349,3,0.0,same
0,832,valid,"[(1205, 778)]",[],[1],[0.55],horizontal,"(390.0, 762.0)",1.2166666666666666,0.508,1,7449.576,3,0.0,same
0,833,valid,"[(1175, 766)]",[],[1],[0.5166666666666666],horizontal,"(890.0, 762.0)",0.6166666666666667,0.476,1,7455.476,3,0.0,same
0,834,catch,"[(1164, 796)]",[],[1],[],horizontal,"(390.0, 762.0)",1.7,nan,1,7460.828,3,0.0,same
0,835,catch,"[(1185, 767)]",[],[1],[],vertical,"(890.0, 762.0)",1.7,nan,1,7466.955,3,0.0,same
0,836,valid,"[(1169, 792)]",[],[1],[0.6833333333333333],horizontal,"(390.0, 262.0)",1.4166666666666667,0.639,1,7472.964,3,0.0,same
0,837,valid,"[(1188, 773)]",[],[1],[0.5],vertical,"(890.0, 762.0)",0.55,0.454,1,7479.084,3,0.0,same
0,838,valid,"[(1179, 779)]",[],[1],[0.5833333333333334],horizontal,"(390.0, 262.0)",0.35,0.544,1,7484.069,3,0.0,same
0,839,invalid_adjacent_other_bar,"[(1179, 795)]",[],[1],[0.3833333333333333],horizontal,"(890.0, 762.0)",1.4833333333333334,0.344,1,7489.273,3,0.0,other
0,840,catch,"[(1171, 789)]",[],[1],[],vertical,"(890.0, 762.0)",1.7,nan,1,7495.214,3,0.0,same
0,841,catch,"[(1181, 772)]",[],[1],[],vertical,"(390.0, 262.0)",,"('cti', 1.616),nan",0,7501.339,0,0.02,same
0,842,catch,"[(1135, 824)]",[],[1],[],vertical,"(390.0, 762.0)",1.7,nan,1,7506.214,1,0.02,same
0,843,valid,"[(1175, 789)]",[],[1],[0.85],vertical,"(890.0, 262.0)",1.0166666666666666,nan,0,7823.698,0,0.02,same
0,844,valid,"[(1160, 791)]",[],[1],[0.43333333333333335],horizontal,"(890.0, 762.0)",1.4666666666666666,0.395,1,7828.907,1,0.02,same
0,845,catch,"[(1208, 774)]",[],[1],[],vertical,"(890.0, 262.0)",,"('cti', 1.123),nan",0,7834.527,0,0.04,same
0,846,valid,"[(1163, 786)]",[],[1],[0.6333333333333333],horizontal,"(390.0, 762.0)",1.3666666666666667,0.588,1,7838.874,1,0.04,same
0,847,valid,"[(1171, 796)]",[],[1],[0.7166666666666667],horizontal,"(890.0, 762.0)",1.4166666666666667,0.667,1,7844.218,1,0.04,same
0,848,invalid_same_bar,"[(1172, 803)]",[],[1],[0.7],horizontal,"(390.0, 262.0)",1.5,0.652,1,7850.032,1,0.04,same
0,849,invalid_adjacent_other_bar,"[(1170, 791)]",[],[1],[0.5666666666666667],vertical,"(890.0, 762.0)",1.5,0.525,1,7855.784,2,0.04,other
0,850,valid,"[(1169, 782)]",[],[1],[0.6333333333333333],horizontal,"(890.0, 762.0)",1.2,0.587,1,7861.598,2,0.04,same
0,851,valid,"[(1170, 773)]",[],[1],[0.5666666666666667],horizontal,"(890.0, 762.0)",1.5333333333333332,0.519,1,7867.266,2,0.04,same
0,852,catch,"[(1209, 765)]",[],[1],[],vertical,"(890.0, 262.0)",1.7,nan,1,7873.117,3,0.04,same
0,853,valid,"[(1210, 803)]",[],[1],[0.85],horizontal,"(890.0, 762.0)",0.6333333333333333,nan,0,7879.245,0,0.04,same
0,854,valid,"[(1163, 789)]",[],[1],[0.85],vertical,"(890.0, 262.0)",0.5333333333333333,nan,0,7883.389,0,0.04,same
0,855,valid,"[(1165, 790)]",[],[1],[0.5166666666666666],vertical,"(890.0, 262.0)",0.75,0.474,1,7887.698,1,0.04,same
0,856,catch,"[(1188, 786)]",[],[1],[],vertical,"(890.0, 262.0)",1.7,nan,1,7893.331,1,0.04,same
0,857,valid,"[(1175, 752), (1121, 799)]",[],"[0, 1]",[0.5666666666666667],horizontal,"(390.0, 762.0)",1.0166666666666666,0.517,1,7898.93,1,0.04,same
0,858,valid,"[(1175, 785)]",[],[1],[0.6333333333333333],horizontal,"(890.0, 262.0)",1.3666666666666667,0.589,1,7906.452,2,0.04,same
0,859,valid,"[(1172, 785)]",[],[1],[0.5],horizontal,"(890.0, 262.0)",1.05,0.457,1,7912.498,2,0.04,same
