block,trial,trial_type,taps_start_loc_during_fix,taps_end_loc_during_fix,taps_on_lever_during_fix,taps_on_lever_s_during_fix,bar_orientation,target_xy,cti,rt,acc,time,pulses,fa_rate_recent100,actual_invalid_type
0,1,valid,"[(1097, 860)]",[],[1],[0.4666666666666667],vertical,"(390.0, 762.0)",1.3666666666666667,0.43,1,0.513,1,0.0,same
0,2,valid,"[(1091, 844)]",[],[1],[],horizontal,"(890.0, 762.0)",,"('fix', 0.332)",0,8.769,0,0.0,same
0,3,valid,"[(1084, 833)]",[],[1],[0.7833333333333333],vertical,"(890.0, 762.0)",0.6833333333333333,0.751,1,36.885,1,0.0,same
0,4,valid,"[(1125, 831)]",[],[1],[0.85],horizontal,"(390.0, 262.0)",1.35,nan,0,55.635,0,0.0,same
0,5,catch,"[(1130, 817)]",[],[1],[],horizontal,"(890.0, 762.0)",1.7,nan,1,60.505,1,0.0,same
0,6,valid,"[(1157, 804)]",[],[1],[0.85],horizontal,"(890.0, 762.0)",0.6,nan,0,65.902,0,0.0,same
0,7,valid,"[(1127, 828)]",[],[1],[],horizontal,"(390.0, 262.0)",,"('fix', 0.363)",0,70.185,0,0.0,same
0,8,valid,"[(1115, 821)]",[],[1],[0.85],vertical,"(390.0, 762.0)",0.7,nan,0,72.385,0,0.0,same
0,9,valid,"[(1131, 827)]",[],[1],[0.5666666666666667],vertical,"(890.0, 762.0)",1.1,0.536,1,87.475,1,0.0,same
0,10,invalid_same_bar,"[(1160, 800)]",[],[1],[0.48333333333333334],vertical,"(390.0, 262.0)",1.4833333333333334,0.451,1,92.573,1,0.0,same
0,11,valid,"[(1147, 792)]",[],[1],[0.55],horizontal,"(890.0, 262.0)",0.55,0.52,1,98.164,1,0.0,same
0,12,valid,"[(1127, 778)]",[],[1],[0.36666666666666664],horizontal,"(890.0, 762.0)",1.4333333333333333,0.331,1,102.693,2,0.0,same
0,13,valid,"[(1140, 792)]",[],[1],[0.85],vertical,"(390.0, 762.0)",0.6666666666666666,nan,0,108.481,0,0.0,same
0,14,catch,"[(1137, 795)]",[],[1],[],horizontal,"(390.0, 262.0)",1.7,nan,1,113.038,1,0.0,same
0,15,valid,"[(1139, 808)]",[],[1],[0.5333333333333333],horizontal,"(890.0, 262.0)",0.7833333333333333,0.502,1,118.084,1,0.0,same
0,16,valid,"[(1160, 786)]",[],[1],[0.5166666666666666],vertical,"(390.0, 762.0)",0.8666666666666667,0.481,1,128.426,1,0.0,same
0,17,catch,"[(1141, 799)]",[],[1],[],horizontal,"(390.0, 762.0)",1.7,nan,1,133.574,2,0.0,same
0,18,valid,"[(1148, 796)]",[],[1],[0.5333333333333333],vertical,"(890.0, 262.0)",0.85,0.503,1,139.242,2,0.0,same
0,19,invalid_same_bar,"[(1150, 789)]",[],[1],[0.85],vertical,"(890.0, 762.0)",0.8333333333333334,nan,0,144.76,0,0.0,same
0,20,valid,"[(1134, 798)]",[],[1],[0.85],vertical,"(890.0, 762.0)",0.5333333333333333,nan,0,149.677,0,0.0,same
0,21,valid,"[(1127, 820)]",[],[1],[],vertical,"(890.0, 262.0)",,"('cti', 1.499)",0,153.972,0,0.0,same
0,22,valid,"[(1140, 821)]",[],[1],[0.85],horizontal,"(390.0, 762.0)",1.4333333333333333,nan,0,1932.536,0,0.0,same
0,23,invalid_same_bar,"[(1131, 811)]",[],[1],[0.43333333333333335],horizontal,"(390.0, 262.0)",0.55,0.392,1,1938.821,1,0.0,same
0,24,valid,"[(1159, 793)]",[],[1],[0.85],horizontal,"(390.0, 262.0)",1.05,nan,0,1977.386,0,0.0,same
0,25,valid,"[(1136, 819)]",[],[1],[0.85],vertical,"(890.0, 762.0)",0.5,nan,0,1981.988,0,0.0,same
0,26,catch,"[(1092, 795)]",[],[1],[],horizontal,"(890.0, 262.0)",1.7,nan,1,2043.854,1,0.0,same
0,27,valid,"[(1172, 795)]",[],[1],[0.6833333333333333],horizontal,"(890.0, 762.0)",0.8333333333333334,0.634,1,2052.04,1,0.0,same
0,28,catch,"[(1163, 813)]",[],[1],[],vertical,"(890.0, 762.0)",,"('cti', 1.577),nan",0,2056.804,0,0.03571428571428571,same
0,29,invalid_same_bar,"[(1155, 819)]",[],[1],[0.85],vertical,"(890.0, 262.0)",1.25,nan,0,2061.521,0,0.034482758620689655,same
0,30,valid,"[(1124, 823)]",[],[1],[0.5],vertical,"(890.0, 762.0)",0.36666666666666664,0.456,1,2089.982,1,0.03333333333333333,same
0,31,valid,"[(1155, 812)]",[],[1],[0.6],vertical,"(890.0, 262.0)",1.0166666666666666,0.554,1,2096.302,1,0.03225806451612903,same
0,32,valid,"[(1175, 805)]",[],[1],[0.7],vertical,"(390.0, 262.0)",0.5166666666666666,0.65,1,2101.357,1,0.03125,same
0,33,valid,"[(1155, 768)]",[],[1],[0.7833333333333333],horizontal,"(890.0, 762.0)",1.3166666666666667,0.74,1,2106.041,2,0.030303030303030304,same
0,34,valid,"[(1160, 776)]",[],[1],"[0.85, 0.85]",vertical,"(390.0, 262.0)",1.1,"0.805,nan",0,2111.671,0,0.029411764705882353,same
0,35,catch,"[(1160, 801)]",[],[1],[],horizontal,"(390.0, 262.0)",1.7,nan,1,2116.937,1,0.02857142857142857,same
0,36,valid,"[(1153, 808)]",[],[1],[0.5666666666666667],horizontal,"(890.0, 262.0)",1.0166666666666666,0.523,1,2122.288,1,0.027777777777777776,same
0,37,valid,"[(1160, 786)]",[],[1],[0.5166666666666666],vertical,"(390.0, 262.0)",0.7833333333333333,0.475,1,2127.074,1,0.02702702702702703,same
0,38,valid,"[(1158, 797)]",[],[1],[0.6833333333333333],vertical,"(390.0, 262.0)",1.2666666666666666,0.64,1,2131.84,2,0.02631578947368421,same
0,39,valid,"[(1165, 799)]",[],[1],[0.85],vertical,"(390.0, 262.0)",0.35,nan,0,2137.855,0,0.02564102564102564,same
0,40,valid,"[(1125, 807)]",[],[1],[0.5333333333333333],horizontal,"(390.0, 762.0)",1.2333333333333334,0.489,1,2141.461,1,0.025,same
0,41,catch,"[(1158, 785)]",[],[1],[],horizontal,"(390.0, 262.0)",1.7,nan,1,2146.621,1,0.024390243902439025,same
0,42,valid,"[(1160, 778)]",[],[1],[0.5666666666666667],horizontal,"(890.0, 762.0)",0.55,0.531,1,2151.711,1,0.023809523809523808,same
0,43,valid,"[(1198, 802)]",[],[1],[0.6333333333333333],horizontal,"(390.0, 262.0)",1.1666666666666667,0.589,1,2156.69,2,0.023255813953488372,same
0,44,valid,"[(1140, 782)]",[],[1],[0.6333333333333333],vertical,"(390.0, 262.0)",1.1166666666666667,0.589,1,2161.971,2,0.022727272727272728,same
0,45,valid,"[(1161, 808)]",[],[1],[0.48333333333333334],vertical,"(390.0, 262.0)",0.9166666666666666,0.454,1,2167.805,2,0.022222222222222223,same
0,46,valid,"[(1161, 803)]",[],[1],[0.48333333333333334],vertical,"(890.0, 762.0)",1.05,0.446,1,2172.721,3,0.021739130434782608,same
0,47,valid,"[(1159, 838)]",[],[1],[0.7],vertical,"(890.0, 262.0)",0.9166666666666666,0.658,1,2178.632,3,0.02127659574468085,same
0,48,valid,"[(1162, 811)]",[],[1],[0.85],vertical,"(390.0, 762.0)",1.1666666666666667,nan,0,2326.505,0,0.020833333333333332,same
0,49,valid,"[(1142, 815)]",[],[1],[0.75],horizontal,"(390.0, 262.0)",0.8166666666666667,0.704,1,2331.205,1,0.02040816326530612,same
0,50,valid,"[(1162, 815)]",[],[1],[0.3833333333333333],vertical,"(890.0, 262.0)",1.35,0.346,1,2335.855,1,0.02,same
0,51,valid,"[(1141, 806)]",[],[1],[0.6333333333333333],vertical,"(390.0, 762.0)",1.2,0.588,1,2341.288,1,0.02,same
0,52,valid,"[(1169, 806)]",[],[1],[0.75],vertical,"(390.0, 262.0)",0.4,0.704,1,2346.409,2,0.02,same
0,53,valid,"[(1172, 796)]",[],[1],[0.85],vertical,"(890.0, 262.0)",1.2,nan,0,2351.444,0,0.02,same
0,54,catch,"[(1160, 811)]",[],[1],[],horizontal,"(890.0, 762.0)",1.7,nan,1,2356.08,1,0.02,same
0,55,invalid_same_bar,"[(1115, 830)]",[],[1],[0.85],horizontal,"(390.0, 262.0)",1.5,nan,0,2360.806,0,0.02,same
0,56,valid,"[(1151, 815)]",[],[1],[0.85],vertical,"(890.0, 262.0)",1.4,nan,0,3739.078,0,0.02,same
0,57,valid,"[(1150, 822)]",[],[1],[0.85],horizontal,"(890.0, 762.0)",0.45,nan,0,4217.947,0,0.02,same
0,58,valid,"[(1130, 827)]",[],[1],[0.5166666666666666],vertical,"(890.0, 262.0)",0.8,0.479,1,4221.93,1,0.02,same
0,59,valid,"[(1133, 802)]",[],[1],[0.65],horizontal,"(890.0, 262.0)",1.45,0.606,1,4227.141,1,0.02,same
0,60,catch,"[(1167, 833)]",[],[1],[],horizontal,"(390.0, 262.0)",1.7,nan,1,4232.93,1,0.02,same
0,61,valid,"[(1161, 821)]",[],[1],[0.4166666666666667],vertical,"(390.0, 762.0)",1.4333333333333333,0.375,1,4238.179,2,0.02,same
0,62,catch,"[(1160, 794)]",[],[1],[],horizontal,"(890.0, 262.0)",1.7,nan,1,4244.458,2,0.02,same
0,63,invalid_adjacent_other_bar,"[(1164, 793)]",[],[1],[0.85],horizontal,"(390.0, 762.0)",1.1666666666666667,nan,0,4249.878,0,0.02,other
0,64,catch,"[(1135, 792)]",[],[1],[],vertical,"(890.0, 262.0)",1.7,nan,1,4255.365,1,0.02,same
0,65,valid,"[(1042, 815)]",[],[1],[0.7],vertical,"(890.0, 762.0)",0.5166666666666666,0.661,1,4260.679,1,0.02,same
0,66,valid,"[(1175, 796)]",[],[1],[0.85],vertical,"(390.0, 262.0)",1.0,nan,0,4265.546,0,0.02,same
0,67,catch,"[(1160, 794)]",[],[1],[],horizontal,"(890.0, 262.0)",1.7,nan,1,4270.505,1,0.02,same
0,68,valid,"[(1160, 806)]",[],[1],[0.5833333333333334],horizontal,"(390.0, 262.0)",1.35,0.538,1,4275.599,1,0.02,same
0,69,valid,"[(1164, 810)]",[],[1],[0.65],vertical,"(890.0, 262.0)",0.7666666666666666,0.609,1,4280.722,1,0.02,same
0,70,valid,"[(1174, 811)]",[],[1],[0.65],vertical,"(890.0, 762.0)",0.5,0.612,1,4285.447,2,0.02,same
0,71,valid,"[(1155, 803)]",[],[1],[0.85],vertical,"(390.0, 762.0)",0.65,nan,0,4290.664,0,0.02,same
0,72,valid,"[(1160, 788)]",[],[1],[0.85],horizontal,"(890.0, 262.0)",1.1666666666666667,nan,0,4295.064,0,0.02,same
0,73,valid,"[(1155, 841)]",[],[1],[0.55],vertical,"(890.0, 262.0)",1.2666666666666666,0.514,1,4299.953,1,0.02,same
0,74,valid,"[(1118, 834)]",[],[1],[0.85],vertical,"(390.0, 762.0)",0.7,nan,0,4310.049,0,0.02,same
0,75,catch,"[(1136, 856)]",[],[1],[],horizontal,"(890.0, 262.0)",1.7,nan,1,8304.936,1,0.02,same
0,76,valid,"[(1150, 813)]",[],[1],[0.8166666666666667],horizontal,"(890.0, 762.0)",0.7,0.769,1,8881.199,1,0.02,same
0,77,valid,"[(1154, 850)]",[],[1],[0.85],horizontal,"(390.0, 762.0)",0.5666666666666667,nan,0,8885.849,0,0.02,same
0,78,valid,"[(1172, 821)]",[],[1],[0.6],horizontal,"(890.0, 762.0)",1.0,0.566,1,8890.029,1,0.0,same
0,79,valid,"[(1158, 803)]",[],[1],[0.6333333333333333],horizontal,"(890.0, 262.0)",1.0666666666666667,0.591,1,8895.416,1,0.0,same
0,80,valid,"[(1160, 803)]",[],[1],[0.5166666666666666],vertical,"(390.0, 262.0)",0.75,0.478,1,8900.565,1,0.0,same
0,81,valid,"[(1156, 776)]",[],[1],[0.5833333333333334],vertical,"(390.0, 262.0)",0.8666666666666667,0.542,1,8905.633,2,0.0,same
0,82,valid,"[(1155, 799)]",[],[1],[0.5],vertical,"(890.0, 762.0)",1.4333333333333333,0.462,1,8911.165,2,0.0,same
0,83,valid,"[(1161, 806)]",[],[1],[0.6166666666666667],vertical,"(390.0, 762.0)",1.2666666666666666,0.581,1,8917.033,2,0.0,same
0,84,catch,"[(1167, 792)]",[],[1],[],vertical,"(890.0, 762.0)",1.7,nan,1,8922.598,3,0.0,same
0,85,valid,"[(1173, 808)]",[],[1],[0.6333333333333333],horizontal,"(390.0, 762.0)",0.7833333333333333,0.589,1,8929.049,3,0.0,same
0,86,valid,"[(1155, 818)]",[],[1],[0.6166666666666667],horizontal,"(390.0, 762.0)",0.65,0.581,1,8934.698,3,0.0,same
0,87,valid,"[(1170, 800)]",[],[1],[0.85],horizontal,"(890.0, 262.0)",1.25,nan,0,8939.982,0,0.0,same
0,88,valid,"[(1175, 802)]",[],[1],[0.5166666666666666],horizontal,"(390.0, 262.0)",1.05,0.481,1,8945.298,1,0.0,same
0,89,valid,"[(1155, 785)]",[],[1],[0.5333333333333333],horizontal,"(390.0, 762.0)",0.8833333333333333,0.496,1,8950.419,1,0.0,same
0,90,valid,"[(1158, 796)]",[],[1],[0.6166666666666667],vertical,"(890.0, 262.0)",0.6333333333333333,0.583,1,8955.115,1,0.0,same
0,91,catch,"[(1190, 810)]",[],[1],[],horizontal,"(390.0, 762.0)",1.7,nan,1,8960.116,2,0.0,same
0,92,valid,"[(1160, 794)]",[],[1],[0.85],horizontal,"(890.0, 762.0)",0.5666666666666667,nan,0,8965.883,0,0.0,same
0,93,valid,"[(1153, 807)]",[],[1],[0.5166666666666666],horizontal,"(390.0, 262.0)",1.0833333333333333,0.479,1,8970.322,1,0.0,same
0,94,catch,"[(1159, 796)]",[],[1],[],horizontal,"(390.0, 262.0)",1.7,nan,1,8975.694,1,0.0,same
0,95,valid,"[(1160, 789)]",[],[1],[0.55],horizontal,"(390.0, 762.0)",0.9666666666666667,0.514,1,8980.744,1,0.0,same
0,96,catch,"[(1175, 818)]",[],[1],[],vertical,"(390.0, 262.0)",1.7,nan,1,8985.947,2,0.0,same
0,97,valid,"[(1161, 801)]",[],[1],[0.6333333333333333],vertical,"(390.0, 262.0)",1.1666666666666667,0.59,1,8991.633,2,0.0,same
0,98,valid,"[(1135, 804)]",[],[1],[0.48333333333333334],horizontal,"(890.0, 762.0)",1.1833333333333333,0.442,1,8997.295,2,0.0,same
0,99,valid,"[(1136, 806)]",[],[1],[0.75],horizontal,"(890.0, 762.0)",0.55,0.711,1,9002.695,3,0.0,same
0,100,catch,"[(1161, 795)]",[],[1],[],vertical,"(390.0, 762.0)",1.7,nan,1,9008.483,3,0.0,same
0,101,catch,"[(1121, 791)]",[],[1],[],horizontal,"(890.0, 262.0)",1.7,nan,1,9014.328,3,0.0,same
0,102,catch,"[(1161, 787)]",[],[1],[],horizontal,"(890.0, 762.0)",1.7,nan,1,9020.149,3,0.0,same
0,103,valid,"[(1175, 798)]",[],[1],[0.4666666666666667],horizontal,"(390.0, 262.0)",0.65,0.429,1,9026.171,3,0.0,same
0,104,valid,"[(1158, 784)]",[],[1],[0.65],horizontal,"(390.0, 762.0)",1.2333333333333334,0.604,1,9031.375,3,0.0,same
0,105,valid,"[(1150, 806)]",[],[1],[0.55],vertical,"(390.0, 262.0)",0.36666666666666664,0.511,1,9037.681,3,0.0,same
0,106,valid,"[(1155, 784)]",[],[1],[0.65],horizontal,"(890.0, 262.0)",1.0833333333333333,0.604,1,9042.849,3,0.0,same
0,107,invalid_same_bar,"[(1165, 816)]",[],[1],[0.85],horizontal,"(390.0, 262.0)",1.4333333333333333,nan,0,9048.766,0,0.0,same
0,108,valid,"[(1165, 794)]",[],[1],[0.5666666666666667],horizontal,"(390.0, 262.0)",0.4666666666666667,0.526,1,9053.837,1,0.0,same
0,109,valid,"[(1160, 786)]",[],[1],[0.5333333333333333],vertical,"(390.0, 262.0)",0.5166666666666666,0.494,1,9058.5,1,0.0,same
0,110,invalid_same_bar,"[(1150, 796)]",[],[1],[0.85],vertical,"(890.0, 262.0)",0.5666666666666667,nan,0,9063.099,0,0.0,same
0,111,valid,"[(1165, 819)]",[],[1],[0.7333333333333333],vertical,"(390.0, 262.0)",1.1,0.687,1,9067.761,1,0.0,same
0,112,valid,"[(1164, 785)]",[],[1],[0.5],horizontal,"(890.0, 262.0)",1.3166666666666667,0.463,1,9073.25,1,0.0,same
0,113,valid,"[(1175, 790)]",[],[1],[0.7333333333333333],vertical,"(390.0, 762.0)",0.6333333333333333,0.689,1,9078.583,1,0.0,same
0,114,catch,"[(1171, 787)]",[],[1],[],horizontal,"(390.0, 262.0)",1.7,nan,1,9083.831,2,0.0,same
0,115,catch,"[(1175, 796)]",[],[1],[],vertical,"(890.0, 262.0)",1.7,nan,1,9089.75,2,0.0,same
0,116,catch,"[(1165, 801)]",[],[1],[],horizontal,"(890.0, 762.0)",1.7,nan,1,9095.316,2,0.0,same
0,117,catch,"[(1160, 824)]",[],[1],[],horizontal,"(890.0, 262.0)",1.7,nan,1,9100.817,3,0.0,same
0,118,valid,"[(1165, 800)]",[],[1],[0.85],horizontal,"(390.0, 262.0)",0.6666666666666666,nan,0,9107.2,0,0.0,same
0,119,catch,"[(1170, 817)]",[],[1],[],horizontal,"(390.0, 262.0)",1.7,nan,1,9111.476,1,0.0,same
0,120,valid,"[(1165, 811)]",[],[1],[0.5],horizontal,"(390.0, 262.0)",0.7666666666666666,0.466,1,9116.76,1,0.0,same
0,121,valid,"[(1160, 777)]",[],[1],[0.5333333333333333],horizontal,"(390.0, 762.0)",1.15,0.494,1,9121.567,1,0.0,same
0,122,valid,"[(1165, 777)]",[],[1],[0.85],horizontal,"(890.0, 262.0)",1.2166666666666666,nan,0,9126.783,0,0.0,same
0,123,valid,"[(1163, 798)]",[],[1],[0.55],horizontal,"(890.0, 262.0)",1.3,0.509,1,9131.567,1,0.0,same
0,124,valid,"[(1162, 778)]",[],[1],[0.85],vertical,"(390.0, 762.0)",0.75,nan,0,9136.782,0,0.0,same
0,125,valid,"[(1128, 792)]",[],[1],[0.55],horizontal,"(390.0, 762.0)",1.0333333333333332,0.513,1,9141.1,1,0.0,same
0,126,valid,"[(1162, 803)]",[],[1],[0.5833333333333334],vertical,"(890.0, 262.0)",1.15,0.545,1,9146.633,1,0.0,same
0,127,catch,"[(1157, 796)]",[],[1],[],horizontal,"(390.0, 762.0)",1.7,nan,1,9151.721,1,0.0,same
0,128,catch,"[(1161, 817)]",[],[1],[],vertical,"(390.0, 762.0)",1.7,nan,1,9156.771,2,0.0,same
0,129,catch,"[(1130, 792)]",[],[1],[],horizontal,"(890.0, 262.0)",1.7,nan,1,9162.704,2,0.0,same
0,130,valid,"[(1171, 803)]",[],[1],[0.5166666666666666],vertical,"(890.0, 262.0)",1.3666666666666667,0.479,1,9168.302,2,0.0,same
0,131,valid,"[(1161, 777)]",[],[1],[0.48333333333333334],vertical,"(390.0, 762.0)",0.8166666666666667,0.443,1,9174.067,3,0.0,same
0,132,valid,"[(1164, 786)]",[],[1],[0.5166666666666666],horizontal,"(390.0, 262.0)",0.85,0.477,1,9179.636,3,0.0,same
0,133,valid,"[(1162, 801)]",[],[1],[0.5],vertical,"(890.0, 762.0)",0.6833333333333333,0.461,1,9185.71,3,0.0,same
0,134,catch,"[(1175, 793)]",[],[1],[],vertical,"(890.0, 262.0)",1.7,nan,1,9190.895,3,0.0,same
0,135,valid,"[(1182, 805)]",[],[1],[0.55],horizontal,"(890.0, 262.0)",1.3,0.509,1,9196.792,3,0.0,same
0,136,catch,"[(1165, 791)]",[],[1],[],vertical,"(390.0, 762.0)",1.7,nan,1,9203.033,3,0.0,same
0,137,catch,"[(1170, 792)]",[],[1],[],horizontal,"(390.0, 762.0)",1.7,nan,1,9209.133,3,0.0,same
0,138,valid,"[(1165, 785)]",[],[1],[0.85],horizontal,"(890.0, 762.0)",1.1166666666666667,nan,0,9215.0,0,0.0,same
0,139,invalid_same_bar,"[(1131, 821)]",[],[1],[0.5333333333333333],vertical,"(890.0, 762.0)",0.9833333333333333,0.497,1,9219.633,1,0.0,same
0,140,catch,"[(1165, 784)]",[],[1],[],horizontal,"(390.0, 262.0)",1.7,nan,1,9225.144,1,0.0,same
0,141,valid,"[(1165, 803)]",[],[1],[0.5333333333333333],vertical,"(390.0, 262.0)",1.2666666666666666,0.491,1,9230.201,1,0.0,same
0,142,valid,"[(1162, 800)]",[],[1],[0.55],vertical,"(890.0, 762.0)",1.3333333333333333,0.505,1,9235.32,2,0.0,same
0,143,valid,"[(1165, 788)]",[],[1],[0.5166666666666666],horizontal,"(890.0, 262.0)",0.85,0.473,1,9240.711,2,0.0,same
0,144,valid,"[(1164, 810)]",[],[1],[0.48333333333333334],horizontal,"(890.0, 762.0)",1.1833333333333333,0.44,1,9246.021,2,0.0,same
0,145,valid,"[(1130, 786)]",[],[1],[0.5166666666666666],vertical,"(890.0, 262.0)",0.8333333333333334,0.482,1,9251.417,3,0.0,same
0,146,valid,"[(1182, 805)]",[],[1],[0.85],horizontal,"(890.0, 762.0)",0.8,nan,0,9260.8,0,0.0,same
0,147,valid,"[(1141, 816)]",[],[1],[0.85],horizontal,"(390.0, 762.0)",0.6666666666666666,nan,0,9265.001,0,0.0,same
0,148,valid,"[(1141, 782)]",[],[1],[0.6333333333333333],horizontal,"(390.0, 262.0)",0.5666666666666667,0.593,1,9269.632,1,0.0,same
0,149,valid,"[(1163, 798)]",[],[1],[0.5],vertical,"(890.0, 262.0)",0.9833333333333333,0.459,1,9274.132,1,0.0,same
0,150,catch,"[(1174, 808)]",[],[1],[],horizontal,"(890.0, 262.0)",1.7,nan,1,9279.084,1,0.0,same
0,151,valid,"[(1167, 807)]",[],[1],[0.5833333333333334],horizontal,"(390.0, 762.0)",0.7,0.539,1,9284.301,2,0.0,same
0,152,valid,"[(1175, 782)]",[],[1],[0.5333333333333333],horizontal,"(390.0, 262.0)",0.4666666666666667,0.494,1,9289.941,2,0.0,same
0,153,valid,"[(1176, 790)]",[],[1],[0.5],vertical,"(890.0, 262.0)",0.85,0.463,1,9294.683,2,0.0,same
0,154,valid,"[(1133, 819)]",[],[1],[0.6],horizontal,"(890.0, 262.0)",1.3333333333333333,0.56,1,9300.083,3,0.0,same
0,155,valid,"[(1133, 809)]",[],[1],[0.55],horizontal,"(890.0, 762.0)",0.95,0.516,1,9306.243,3,0.0,same
0,156,valid,"[(1133, 806)]",[],[1],[0.5666666666666667],horizontal,"(890.0, 762.0)",1.1666666666666667,0.53,1,9312.148,3,0.0,same
0,157,catch,"[(1161, 817)]",[],[1],[],vertical,"(390.0, 262.0)",1.7,nan,1,9318.368,3,0.0,same
0,158,valid,"[(1158, 814)]",[],[1],[0.5833333333333334],vertical,"(390.0, 262.0)",0.9166666666666666,0.547,1,9324.533,3,0.0,same
0,159,valid,"[(1164, 807)]",[],[1],[0.5333333333333333],horizontal,"(390.0, 762.0)",1.2166666666666666,0.498,1,9330.517,3,0.0,same
0,160,valid,"[(1178, 809)]",[],[1],[0.6166666666666667],vertical,"(390.0, 762.0)",0.45,0.574,1,9336.518,3,0.0,same
0,161,valid,"[(1178, 788)]",[],[1],[0.5833333333333334],horizontal,"(890.0, 762.0)",1.15,0.542,1,9341.817,3,0.0,same
0,162,catch,"[(1146, 808)]",[],[1],[],horizontal,"(890.0, 762.0)",1.7,nan,1,9347.894,3,0.0,same
0,163,catch,"[(1178, 811)]",[],[1],[],horizontal,"(890.0, 762.0)",1.7,nan,1,9353.668,3,0.0,same
0,164,valid,"[(1156, 786)]",[],[1],[0.55],horizontal,"(390.0, 762.0)",1.0333333333333332,0.505,1,9359.739,3,0.0,same
0,165,valid,"[(1155, 791)]",[],[1],[0.5166666666666666],vertical,"(390.0, 762.0)",0.85,0.477,1,9365.489,3,0.0,same
0,166,valid,"[(1155, 786)]",[],[1],[0.6],vertical,"(890.0, 262.0)",1.3,0.561,1,9371.451,3,0.0,same
0,167,catch,"[(1160, 786)]",[],[1],[],horizontal,"(390.0, 262.0)",1.7,nan,1,9377.434,3,0.0,same
0,168,valid,"[(1165, 788)]",[],[1],[0.5333333333333333],vertical,"(390.0, 262.0)",0.85,0.5,1,9383.093,3,0.0,same
0,169,valid,"[(1158, 791)]",[],[1],[0.5333333333333333],vertical,"(890.0, 762.0)",0.8166666666666667,0.498,1,9388.945,3,0.0,same
0,170,valid,"[(1178, 814)]",[],[1],[0.6666666666666666],vertical,"(390.0, 762.0)",1.3833333333333333,0.623,1,9394.718,3,0.0,same
0,171,catch,"[(1150, 789)]",[],[1],[],horizontal,"(390.0, 262.0)",1.7,nan,1,9400.714,3,0.0,same
0,172,valid,"[(1161, 787)]",[],[1],[0.65],horizontal,"(390.0, 262.0)",0.7833333333333333,0.605,1,9406.847,3,0.0,same
0,173,catch,"[(1162, 789)]",[],[1],[],vertical,"(890.0, 762.0)",1.7,nan,1,9412.734,3,0.0,same
0,174,invalid_same_bar,"[(1158, 788)]",[],[1],[0.48333333333333334],horizontal,"(890.0, 262.0)",0.4,0.447,1,9418.658,3,0.0,same
0,175,valid,"[(1160, 780)]",[],[1],[0.55],horizontal,"(890.0, 762.0)",0.6666666666666666,0.507,1,9423.445,3,0.0,same
0,176,valid,"[(1160, 787)]",[],[1],[0.4666666666666667],vertical,"(390.0, 262.0)",0.35,0.428,1,9429.2,3,0.0,same
0,177,valid,"[(1160, 777)]",[],[1],[0.65],horizontal,"(390.0, 762.0)",0.7166666666666667,0.607,1,9434.016,3,0.0,same
0,178,valid,"[(1155, 809)]",[],[1],[0.6],horizontal,"(390.0, 762.0)",1.1,0.558,1,9439.585,3,0.0,same
0,179,valid,"[(1164, 799)]",[],[1],[0.8333333333333334],horizontal,"(390.0, 262.0)",1.1,0.781,1,9445.584,3,0.0,same
0,180,catch,"[(1142, 809)]",[],[1],[],horizontal,"(390.0, 762.0)",1.7,nan,1,9451.784,3,0.0,same
0,181,valid,"[(1157, 789)]",[],[1],[0.65],vertical,"(890.0, 262.0)",0.5166666666666666,0.6,1,9457.634,3,0.0,same
0,182,invalid_same_bar,"[(1160, 803)]",[],[1],[0.5666666666666667],vertical,"(890.0, 262.0)",1.1833333333333333,0.527,1,9462.867,3,0.0,same
0,183,valid,"[(1161, 793)]",[],[1],[0.5833333333333334],horizontal,"(390.0, 762.0)",1.2166666666666666,0.542,1,9468.466,3,0.0,same
0,184,invalid_adjacent_other_bar,"[(1162, 777)]",[],[1],[0.5666666666666667],horizontal,"(390.0, 762.0)",0.3833333333333333,0.524,1,9474.551,3,0.0,other
0,185,valid,"[(1179, 796)]",[],[1],[0.3833333333333333],vertical,"(390.0, 762.0)",1.4833333333333334,0.343,1,9479.817,3,0.0,same
0,186,valid,"[(1132, 806)]",[],[1],[0.5166666666666666],horizontal,"(890.0, 762.0)",0.6166666666666667,0.476,1,9485.756,3,0.0,same
0,187,catch,"[(1141, 806)]",[],[1],[],horizontal,"(390.0, 262.0)",1.7,nan,1,9491.15,3,0.0,same
0,188,valid,"[(1160, 813)]",[],[1],[0.85],vertical,"(890.0, 262.0)",0.3833333333333333,nan,0,9496.949,0,0.0,same
0,189,valid,"[(1146, 786)]",[],[1],[0.5166666666666666],horizontal,"(890.0, 262.0)",0.6333333333333333,0.476,1,9501.252,1,0.0,same
0,190,valid,"[(1156, 794)]",[],[1],[0.55],vertical,"(390.0, 762.0)",0.7166666666666667,0.508,1,9506.452,1,0.0,same
0,191,catch,"[(1166, 801)]",[],[1],[],vertical,"(390.0, 762.0)",1.7,nan,1,9511.589,1,0.0,same
0,192,valid,"[(1160, 810)]",[],[1],[0.6333333333333333],horizontal,"(890.0, 262.0)",0.9833333333333333,0.589,1,9516.779,2,0.0,same
0,193,valid,"[(1156, 777)]",[],[1],[0.75],vertical,"(890.0, 762.0)",0.9833333333333333,0.703,1,9522.235,2,0.0,same
0,194,catch,"[(1160, 799)]",[],[1],[],vertical,"(890.0, 262.0)",1.7,nan,1,9528.185,2,0.0,same
0,195,valid,"[(1178, 809)]",[],[1],[0.5833333333333334],horizontal,"(890.0, 262.0)",0.55,0.542,1,9534.081,3,0.0,same
0,196,valid,"[(1150, 809)]",[],[1],[0.6166666666666667],horizontal,"(890.0, 262.0)",1.2166666666666666,0.574,1,9540.02,3,0.0,same
0,197,valid,"[(1174, 810)]",[],[1],[0.65],vertical,"(890.0, 262.0)",1.1833333333333333,0.621,1,9546.416,3,0.0,same
0,198,valid,"[(1158, 790)]",[],[1],[0.5666666666666667],horizontal,"(890.0, 762.0)",0.6166666666666667,0.52,1,9552.617,3,0.0,same
0,199,valid,"[(1158, 800)]",[],[1],[0.65],vertical,"(390.0, 762.0)",0.4666666666666667,0.602,1,9558.018,3,0.0,same
0,200,catch,"[(1155, 808)]",[],[1],[],vertical,"(390.0, 262.0)",1.7,nan,1,9563.119,3,0.0,same
0,201,catch,"[(1138, 806)]",[],[1],[],vertical,"(390.0, 762.0)",1.7,nan,1,9569.002,3,0.0,same
0,202,valid,"[(1157, 785)]",[],[1],[0.6],vertical,"(390.0, 262.0)",0.6833333333333333,0.559,1,9575.052,3,0.0,same
0,203,valid,"[(1168, 784)]",[],[1],[0.48333333333333334],vertical,"(890.0, 262.0)",1.4166666666666667,0.442,1,9580.419,3,0.0,same
0,204,valid,"[(1160, 786)]",[],[1],[0.5666666666666667],vertical,"(890.0, 762.0)",0.6,0.523,1,9586.47,3,0.0,same
0,205,valid,"[(1136, 791)]",[],[1],[0.55],vertical,"(890.0, 262.0)",0.43333333333333335,0.512,1,9591.733,3,0.0,same
0,206,catch,"[(1145, 786)]",[],[1],[],vertical,"(390.0, 762.0)",1.7,nan,1,9597.393,3,0.0,same
0,207,valid,"[(1175, 811)]",[],[1],[0.7333333333333333],horizontal,"(890.0, 762.0)",0.7833333333333333,0.685,1,9603.818,3,0.0,same
0,208,invalid_same_bar,"[(1155, 786)]",[],[1],[0.55],horizontal,"(390.0, 762.0)",0.8833333333333333,0.509,1,9609.289,3,0.0,same
0,209,invalid_adjacent_other_bar,"[(1157, 792)]",[],[1],[0.75],horizontal,"(390.0, 262.0)",1.0166666666666666,0.705,1,9615.293,3,0.0,other
0,210,invalid_same_bar,"[(1135, 787)]",[],[1],[0.5666666666666667],vertical,"(390.0, 262.0)",0.75,0.522,1,9621.286,3,0.0,same
0,211,valid,"[(1160, 802)]",[],[1],[0.5666666666666667],horizontal,"(890.0, 762.0)",0.35,0.523,1,9626.528,3,0.0,same
0,212,invalid_adjacent_other_bar,"[(1170, 782)]",[],[1],[0.6333333333333333],horizontal,"(890.0, 762.0)",0.7166666666666667,0.585,1,9632.27,3,0.0,other
0,213,valid,"[(1157, 806)]",[],[1],[0.5666666666666667],horizontal,"(390.0, 262.0)",1.4333333333333333,0.522,1,9638.005,3,0.0,same
0,214,valid,"[(1176, 809)]",[],[1],[0.5833333333333334],vertical,"(890.0, 762.0)",1.15,0.542,1,9644.2,3,0.0,same
0,215,valid,"[(1156, 785)]",[],[1],[0.6333333333333333],vertical,"(390.0, 762.0)",0.7166666666666667,0.595,1,9650.118,3,0.0,same
0,216,valid,"[(1150, 810)]",[],[1],[0.35],vertical,"(890.0, 762.0)",1.4333333333333333,0.308,1,9656.034,3,0.0,same
0,217,valid,"[(1165, 785)]",[],[1],[0.55],horizontal,"(890.0, 762.0)",0.65,0.509,1,9662.185,3,0.0,same
0,218,valid,"[(1164, 807)]",[],[1],[0.7],horizontal,"(890.0, 762.0)",1.2333333333333334,0.659,1,9667.729,3,0.0,same
0,219,valid,"[(1155, 790)]",[],[1],[0.5666666666666667],vertical,"(890.0, 762.0)",1.5,0.525,1,9673.597,3,0.0,same
0,220,valid,"[(1150, 791)]",[],[1],[0.5],vertical,"(390.0, 262.0)",1.2,0.456,1,9679.741,3,0.0,same
0,221,valid,"[(1145, 809)]",[],[1],[0.6666666666666666],vertical,"(890.0, 762.0)",1.5166666666666666,0.622,1,9685.469,3,0.0,same
0,222,valid,"[(1160, 798)]",[],[1],[0.5166666666666666],horizontal,"(890.0, 762.0)",1.1166666666666667,0.48,1,9691.842,3,0.0,same
0,223,catch,"[(1170, 792)]",[],[1],[],horizontal,"(390.0, 762.0)",,"('cti', 1.272),nan",0,9697.686,0,0.02,same
0,224,valid,"[(1138, 811)]",[],[1],[0.85],horizontal,"(390.0, 262.0)",1.35,nan,0,9702.389,0,0.02,same
0,225,valid,"[(1172, 806)]",[],[1],[0.7166666666666667],horizontal,"(390.0, 762.0)",0.7833333333333333,0.67,1,9707.467,1,0.02,same
0,226,valid,"[(1120, 830)]",[],[1],[0.5666666666666667],horizontal,"(890.0, 262.0)",0.35,0.524,1,9712.426,1,0.02,same
0,227,valid,"[(1165, 791)]",[],[1],[0.6],vertical,"(390.0, 762.0)",0.7,0.553,1,9716.703,1,0.02,same
0,228,valid,"[(1155, 808)]",[],[1],[0.5833333333333334],vertical,"(890.0, 262.0)",1.1,0.541,1,9721.519,2,0.02,same
0,229,valid,"[(1162, 807)]",[],[1],[0.6166666666666667],vertical,"(890.0, 762.0)",0.7166666666666667,0.579,1,9727.168,2,0.02,same
0,230,valid,"[(1160, 809)]",[],[1],[0.7],horizontal,"(890.0, 262.0)",0.65,0.655,1,9732.102,2,0.02,same
0,231,valid,"[(1162, 781)]",[],[1],[0.7833333333333333],horizontal,"(890.0, 762.0)",0.4,0.739,1,9737.635,3,0.02,same
0,232,catch,"[(1161, 811)]",[],[1],[],horizontal,"(890.0, 262.0)",1.7,nan,1,9743.552,3,0.02,same
0,233,valid,"[(1147, 808)]",[],[1],[0.5666666666666667],vertical,"(890.0, 262.0)",0.7666666666666666,0.527,1,9749.619,3,0.02,same
0,234,valid,"[(1175, 806)]",[],[1],[0.7],horizontal,"(390.0, 762.0)",0.6,0.656,1,9755.452,3,0.02,same
0,235,valid,"[(1171, 789)]",[],[1],[0.7166666666666667],horizontal,"(890.0, 762.0)",0.5666666666666667,0.675,1,9761.002,3,0.02,same
0,236,catch,"[(1155, 805)]",[],[1],[],horizontal,"(890.0, 262.0)",,"('cti', 1.259),nan",0,9766.205,0,0.04,same
0,237,catch,"[(1160, 809)]",[],[1],[],vertical,"(390.0, 762.0)",1.7,nan,1,9770.669,1,0.04,same
0,238,valid,"[(1165, 787)]",[],[1],[0.5166666666666666],horizontal,"(390.0, 762.0)",0.8166666666666667,0.482,1,9777.185,1,0.04,same
0,239,valid,"[(1155, 811)]",[],[1],[0.6],horizontal,"(890.0, 262.0)",0.35,0.558,1,9781.593,1,0.04,same
0,240,valid,"[(1135, 801)]",[],[1],[0.5],vertical,"(890.0, 762.0)",1.5,0.47,1,9786.35,2,0.04,same
0,241,catch,"[(1155, 791)]",[],[1],[],vertical,"(390.0, 262.0)",1.7,nan,1,9792.402,2,0.04,same
0,242,valid,"[(1160, 808)]",[],[1],[0.85],vertical,"(390.0, 762.0)",0.35,nan,0,9798.369,0,0.04,same
0,243,valid,"[(1135, 816)]",[],[1],[0.65],vertical,"(390.0, 762.0)",1.3666666666666667,0.611,1,9802.461,1,0.04,same
0,244,valid,"[(1151, 809)]",[],[1],[0.5166666666666666],vertical,"(890.0, 762.0)",1.1166666666666667,0.478,1,9807.803,1,0.04,same
0,245,valid,"[(1155, 811)]",[],[1],[0.5],vertical,"(890.0, 262.0)",0.95,0.46,1,9812.942,1,0.04,same
0,246,catch,"[(1172, 810)]",[],[1],[],vertical,"(890.0, 762.0)",1.7,nan,1,9817.98,2,0.04,same
0,247,valid,"[(1175, 794)]",[],[1],[0.6166666666666667],horizontal,"(390.0, 262.0)",1.2,0.571,1,9823.665,2,0.04,same
0,248,valid,"[(1118, 815)]",[],[1],[0.5833333333333334],vertical,"(890.0, 262.0)",1.0666666666666667,0.545,1,9829.467,2,0.04,same
0,249,valid,"[(1160, 801)]",[],[1],[0.55],horizontal,"(390.0, 262.0)",0.75,0.514,1,9834.665,3,0.04,same
0,250,catch,"[(1155, 811)]",[],[1],[],vertical,"(890.0, 262.0)",1.7,nan,1,9840.251,3,0.04,same
0,251,valid,"[(1165, 789)]",[],[1],[0.6],horizontal,"(390.0, 762.0)",1.3166666666666667,0.555,1,9845.87,3,0.04,same
0,252,valid,"[(1162, 807)]",[],[1],[0.6],vertical,"(390.0, 762.0)",0.6333333333333333,0.557,1,9851.863,3,0.04,same
0,253,valid,"[(1135, 789)]",[],[1],[0.55],vertical,"(890.0, 262.0)",0.7833333333333333,0.505,1,9857.62,3,0.04,same
0,254,catch,"[(1138, 800)]",[],[1],[],vertical,"(390.0, 262.0)",1.7,nan,1,9863.136,3,0.04,same
0,255,catch,"[(1161, 791)]",[],[1],[],vertical,"(390.0, 762.0)",1.7,nan,1,9869.017,3,0.04,same
0,256,valid,"[(1140, 783)]",[],[1],[0.7666666666666666],vertical,"(390.0, 762.0)",0.9,0.722,1,9875.352,3,0.04,same
0,257,valid,"[(1160, 800)]",[],[1],[0.55],horizontal,"(390.0, 762.0)",0.9,0.51,1,9881.636,3,0.04,same
0,258,catch,"[(1159, 811)]",[],[1],[],vertical,"(390.0, 762.0)",1.7,nan,1,9887.469,3,0.04,same
0,259,valid,"[(1160, 787)]",[],[1],[0.6166666666666667],vertical,"(390.0, 762.0)",0.9833333333333333,0.575,1,9894.036,3,0.04,same
0,260,invalid_adjacent_other_bar,"[(1164, 808)]",[],[1],[0.5666666666666667],horizontal,"(390.0, 262.0)",0.9833333333333333,0.521,1,9900.169,3,0.04,other
0,261,catch,"[(1156, 789)]",[],[1],[],horizontal,"(390.0, 762.0)",1.7,nan,1,9905.636,3,0.04,same
0,262,catch,"[(1152, 802)]",[],[1],[],horizontal,"(890.0, 262.0)",1.7,nan,1,9911.566,3,0.04,same
0,263,valid,"[(1166, 807)]",[],[1],[0.6666666666666666],vertical,"(390.0, 262.0)",1.25,0.626,1,9917.52,3,0.04,same
0,264,valid,"[(1145, 795)]",[],[1],[0.5666666666666667],vertical,"(890.0, 762.0)",0.3833333333333333,0.523,1,9923.569,3,0.04,same
0,265,catch,"[(1077, 846)]",[],[1],[],horizontal,"(390.0, 762.0)",,"('cti', 1.37),nan",0,9928.774,0,0.06,same
0,266,valid,"[(1150, 782)]",[],[1],[0.6],horizontal,"(890.0, 262.0)",0.7666666666666666,0.556,1,9933.599,1,0.06,same
0,267,valid,"[(1162, 799)]",[],[1],[0.65],horizontal,"(890.0, 262.0)",1.5333333333333332,0.608,1,9938.335,1,0.06,same
0,268,catch,"[(1167, 802)]",[],[1],[],vertical,"(890.0, 262.0)",1.7,nan,1,9943.686,1,0.06,same
0,269,valid,"[(1155, 787)]",[],[1],[0.6333333333333333],horizontal,"(890.0, 262.0)",0.7166666666666667,0.594,1,9948.536,2,0.06,same
0,270,valid,"[(1165, 778)]",[],[1],[0.55],vertical,"(890.0, 762.0)",1.45,0.51,1,9953.887,2,0.06,same
0,271,valid,"[(1165, 778)]",[],[1],[0.5333333333333333],vertical,"(890.0, 762.0)",1.2333333333333334,0.494,1,9959.524,2,0.06,same
0,272,valid,"[(1160, 792)]",[],[1],[0.5666666666666667],horizontal,"(890.0, 262.0)",0.7166666666666667,0.53,1,9965.601,3,0.06,same
0,273,valid,"[(1168, 811)]",[],[1],[0.85],vertical,"(390.0, 262.0)",1.0833333333333333,nan,0,9971.281,0,0.04,same
0,274,valid,"[(1115, 795)]",[],[1],[0.65],vertical,"(390.0, 262.0)",0.4166666666666667,0.604,1,9975.737,1,0.04,same
0,275,valid,"[(1165, 791)]",[],[1],[0.48333333333333334],horizontal,"(390.0, 262.0)",1.4833333333333334,0.44,1,9980.495,1,0.04,same
0,276,valid,"[(1165, 782)]",[],[1],[0.7],vertical,"(890.0, 262.0)",0.9,0.654,1,9985.785,1,0.04,same
0,277,catch,"[(1165, 809)]",[],[1],[],vertical,"(890.0, 762.0)",1.7,nan,1,9990.645,2,0.04,same
0,278,valid,"[(1132, 830)]",[],[1],[0.65],vertical,"(390.0, 762.0)",0.36666666666666664,0.61,1,9996.803,2,0.04,same
0,279,catch,"[(1130, 812)]",[],[1],[],horizontal,"(390.0, 262.0)",1.7,nan,1,10002.219,2,0.04,same
0,280,valid,"[(1129, 813)]",[],[1],[0.4166666666666667],vertical,"(890.0, 262.0)",1.1833333333333333,0.381,1,10007.781,3,0.04,same
0,281,valid,"[(1145, 779)]",[],[1],[0.5666666666666667],horizontal,"(390.0, 262.0)",0.7333333333333333,0.526,1,10013.924,3,0.04,same
0,282,valid,"[(1130, 816)]",[],[1],[0.5333333333333333],vertical,"(390.0, 262.0)",0.6666666666666666,0.491,1,10019.203,3,0.04,same
0,283,valid,"[(1160, 808)]",[],[1],[0.48333333333333334],horizontal,"(890.0, 262.0)",1.05,0.441,1,10024.918,3,0.04,same
0,284,valid,"[(1162, 784)]",[],[1],[0.85],horizontal,"(890.0, 762.0)",0.43333333333333335,nan,0,10030.528,0,0.04,same
0,285,catch,"[(1133, 796)]",[],[1],[],vertical,"(390.0, 262.0)",1.7,nan,1,10034.605,1,0.04,same
0,286,catch,"[(1171, 781)]",[],[1],[],horizontal,"(390.0, 262.0)",1.7,nan,1,10040.132,1,0.02,same
0,287,catch,"[(1155, 786)]",[],[1],[],horizontal,"(390.0, 262.0)",1.7,nan,1,10045.321,1,0.02,same
0,288,valid,"[(1158, 788)]",[],[1],[0.5833333333333334],vertical,"(890.0, 262.0)",0.6,0.541,1,10050.259,2,0.02,same
0,289,invalid_adjacent_other_bar,"[(1168, 806)]",[],[1],[0.7833333333333333],horizontal,"(890.0, 262.0)",0.65,0.738,1,10055.077,2,0.02,other
0,290,invalid_adjacent_other_bar,"[(1158, 784)]",[],[1],[0.55],vertical,"(890.0, 262.0)",1.1666666666666667,0.51,1,10060.204,2,0.02,other
0,291,valid,"[(1157, 806)]",[],[1],[0.5333333333333333],horizontal,"(890.0, 762.0)",1.15,0.488,1,10065.669,3,0.02,same
0,292,valid,"[(1135, 812)]",[],[1],[0.6333333333333333],horizontal,"(890.0, 262.0)",0.5,0.592,1,10071.621,3,0.02,same
0,293,catch,"[(1165, 807)]",[],[1],[],horizontal,"(890.0, 262.0)",1.7,nan,1,10077.154,3,0.02,same
0,294,valid,"[(1169, 805)]",[],[1],[0.75],vertical,"(890.0, 262.0)",1.0666666666666667,0.706,1,10083.07,3,0.02,same
0,295,valid,"[(1159, 790)]",[],[1],[0.5833333333333334],horizontal,"(390.0, 262.0)",0.9833333333333333,0.54,1,10089.171,3,0.02,same
0,296,valid,"[(1157, 807)]",[],[1],[0.5166666666666666],vertical,"(890.0, 262.0)",0.85,0.478,1,10094.983,3,0.02,same
0,297,valid,"[(1172, 801)]",[],[1],[0.65],vertical,"(890.0, 262.0)",1.05,0.608,1,10100.536,3,0.02,same
0,298,catch,"[(1148, 782)]",[],[1],[],horizontal,"(890.0, 762.0)",1.7,nan,1,10106.303,3,0.02,same
0,299,valid,"[(1158, 806)]",[],[1],[0.5333333333333333],horizontal,"(390.0, 262.0)",0.6,0.488,1,10112.503,3,0.02,same
0,300,valid,"[(1160, 793)]",[],[1],[0.55],vertical,"(390.0, 262.0)",0.9666666666666667,0.506,1,10117.669,3,0.02,same
0,301,valid,"[(1157, 779)]",[],[1],[0.55],vertical,"(390.0, 762.0)",1.0333333333333332,0.511,1,10123.62,3,0.02,same
0,302,invalid_same_bar,"[(1141, 786)]",[],[1],[0.5],horizontal,"(890.0, 762.0)",0.8166666666666667,0.464,1,10129.421,3,0.02,same
0,303,valid,"[(1158, 782)]",[],[1],[0.75],vertical,"(390.0, 262.0)",1.25,0.701,1,10134.62,3,0.02,same
0,304,valid,"[(1154, 796)]",[],[1],[0.6],horizontal,"(390.0, 762.0)",1.1833333333333333,0.555,1,10140.523,3,0.02,same
0,305,catch,"[(1157, 795)]",[],[1],[],horizontal,"(390.0, 762.0)",,"('cti', 1.085),nan",0,10146.487,0,0.04,same
0,306,valid,"[(1140, 810)]",[],[1],[0.5833333333333334],horizontal,"(890.0, 762.0)",0.85,0.543,1,10150.869,1,0.04,same
0,307,catch,"[(1141, 805)]",[],[1],[],vertical,"(390.0, 762.0)",1.7,nan,1,10155.837,1,0.04,same
0,308,valid,"[(1160, 772)]",[],[1],[0.85],vertical,"(890.0, 262.0)",0.4166666666666667,nan,0,10160.871,0,0.04,same
0,309,valid,"[(1131, 811)]",[],[1],[0.4166666666666667],vertical,"(890.0, 762.0)",0.8666666666666667,0.375,1,10164.763,1,0.04,same
0,310,catch,"[(1152, 787)]",[],[1],[],horizontal,"(390.0, 762.0)",1.7,nan,1,10169.676,1,0.04,same
0,311,valid,"[(1167, 794)]",[],[1],[0.55],vertical,"(890.0, 262.0)",1.3166666666666667,0.508,1,10175.038,1,0.04,same
0,312,valid,"[(1159, 796)]",[],[1],[0.5333333333333333],vertical,"(890.0, 762.0)",1.1833333333333333,0.491,1,10180.137,2,0.04,same
0,313,valid,"[(1170, 794)]",[],[1],[0.4666666666666667],vertical,"(890.0, 762.0)",1.4,0.42,1,10185.669,2,0.04,same
0,314,catch,"[(1160, 806)]",[],[1],[],horizontal,"(390.0, 262.0)",1.7,nan,1,10191.518,2,0.04,same
0,315,valid,"[(1175, 810)]",[],[1],[0.6833333333333333],vertical,"(390.0, 762.0)",0.8833333333333333,0.639,1,10197.617,3,0.02,same
0,316,valid,"[(1174, 786)]",[],[1],[0.5166666666666666],vertical,"(890.0, 262.0)",1.3166666666666667,0.477,1,10203.521,3,0.02,same
0,317,catch,"[(1159, 792)]",[],[1],[],horizontal,"(890.0, 762.0)",1.7,nan,1,10209.619,3,0.02,same
0,318,valid,"[(1173, 806)]",[],[1],[0.7],vertical,"(890.0, 262.0)",1.1,0.656,1,10215.669,3,0.02,same
0,319,invalid_adjacent_other_bar,"[(1140, 786)]",[],[1],[0.5833333333333334],vertical,"(890.0, 262.0)",0.7833333333333333,0.545,1,10221.604,3,0.02,other
0,320,valid,"[(1159, 781)]",[],[1],[0.5333333333333333],horizontal,"(390.0, 262.0)",0.4666666666666667,0.49,1,10226.903,3,0.02,same
0,321,valid,"[(1155, 811)]",[],[1],[0.5333333333333333],vertical,"(390.0, 762.0)",0.6333333333333333,0.49,1,10232.119,3,0.02,same
0,322,catch,"[(1158, 786)]",[],[1],[],vertical,"(890.0, 762.0)",1.7,nan,1,10237.248,3,0.02,same
0,323,valid,"[(1158, 775)]",[],[1],[0.55],vertical,"(890.0, 762.0)",0.65,0.503,1,10243.137,3,0.02,same
0,324,catch,"[(1160, 796)]",[],[1],[],horizontal,"(890.0, 762.0)",1.7,nan,1,10248.288,3,0.02,same
0,325,valid,"[(1160, 796)]",[],[1],[0.5333333333333333],vertical,"(890.0, 762.0)",1.3333333333333333,0.49,1,10254.337,3,0.02,same
0,326,catch,"[(1162, 777)]",[],[1],[],vertical,"(890.0, 762.0)",1.7,nan,1,10260.304,3,0.02,same
0,327,catch,"[(1169, 806)]",[],[1],[],horizontal,"(390.0, 262.0)",1.7,nan,1,10266.303,3,0.02,same
0,328,catch,"[(1165, 797)]",[],[1],[],horizontal,"(890.0, 262.0)",1.7,nan,1,10272.3,3,0.02,same
0,329,valid,"[(1176, 792)]",[],[1],[0.6],horizontal,"(890.0, 262.0)",0.6833333333333333,0.557,1,10277.942,3,0.02,same
0,330,catch,"[(1141, 799)]",[],[1],[],horizontal,"(890.0, 262.0)",1.7,nan,1,10283.422,3,0.02,same
0,331,invalid_same_bar,"[(1155, 783)]",[],[1],[0.6166666666666667],horizontal,"(890.0, 762.0)",0.7166666666666667,0.571,1,10289.046,3,0.02,same
0,332,valid,"[(1140, 799)]",[],[1],[0.48333333333333334],horizontal,"(390.0, 262.0)",1.3666666666666667,0.443,1,10294.754,3,0.02,same
0,333,valid,"[(1139, 784)]",[],[1],[0.7333333333333333],vertical,"(390.0, 762.0)",0.6166666666666667,0.683,1,10300.971,3,0.02,same
0,334,valid,"[(1141, 791)]",[],[1],[0.5333333333333333],horizontal,"(890.0, 762.0)",1.3166666666666667,0.49,1,10306.565,3,0.02,same
0,335,catch,"[(1157, 782)]",[],[1],[],horizontal,"(390.0, 262.0)",1.7,nan,1,10312.289,3,0.02,same
0,336,valid,"[(1157, 776)]",[],[1],[0.5666666666666667],vertical,"(390.0, 762.0)",0.65,0.529,1,10318.291,3,0.02,same
0,337,catch,"[(1160, 792)]",[],[1],[],vertical,"(890.0, 762.0)",1.7,nan,1,10323.771,3,0.02,same
0,338,valid,"[(1142, 787)]",[],[1],[0.6],horizontal,"(390.0, 762.0)",1.25,0.554,1,10329.769,3,0.02,same
0,339,valid,"[(1149, 786)]",[],[1],[0.6],vertical,"(390.0, 762.0)",0.8333333333333334,0.557,1,10336.09,3,0.02,same
0,340,valid,"[(1163, 791)]",[],[1],[0.55],horizontal,"(890.0, 262.0)",1.3666666666666667,0.506,1,10341.936,3,0.02,same
0,341,valid,"[(1147, 793)]",[],[1],[0.6333333333333333],vertical,"(390.0, 762.0)",0.7166666666666667,0.586,1,10347.738,3,0.02,same
0,342,valid,"[(1138, 806)]",[],[1],[0.5666666666666667],vertical,"(390.0, 262.0)",1.2333333333333334,0.523,1,10353.499,3,0.02,same
0,343,valid,"[(1143, 791)]",[],[1],[0.5333333333333333],vertical,"(890.0, 762.0)",0.85,0.494,1,10359.689,3,0.02,same
0,344,valid,"[(1174, 817)]",[],[1],[0.6666666666666666],vertical,"(390.0, 762.0)",0.43333333333333335,0.618,1,10365.668,3,0.02,same
0,345,valid,"[(1134, 793)]",[],[1],[0.5666666666666667],horizontal,"(890.0, 762.0)",0.36666666666666664,0.525,1,10370.956,3,0.02,same
0,346,valid,"[(1130, 782)]",[],[1],[0.5333333333333333],vertical,"(390.0, 262.0)",0.5666666666666667,0.488,1,10376.156,3,0.02,same
0,347,valid,"[(1155, 806)]",[],[1],[0.5833333333333334],vertical,"(890.0, 762.0)",1.05,0.539,1,10381.771,3,0.02,same
0,348,valid,"[(1160, 783)]",[],[1],[0.1],horizontal,"(890.0, 262.0)",1.5,0.071,0,10387.338,0,0.02,same
0,349,valid,"[(1135, 790)]",[],[1],[0.5833333333333334],vertical,"(890.0, 762.0)",0.9666666666666667,0.542,1,10392.139,1,0.02,same
0,350,catch,"[(1136, 791)]",[],[1],[],vertical,"(890.0, 262.0)",1.7,nan,1,10397.316,1,0.02,same
0,351,valid,"[(1168, 791)]",[],[1],[0.5833333333333334],vertical,"(890.0, 762.0)",0.8166666666666667,0.543,1,10402.471,1,0.02,same
0,352,valid,"[(1144, 784)]",[],[1],[0.85],vertical,"(390.0, 262.0)",0.5166666666666666,nan,0,10407.305,0,0.02,same
0,353,catch,"[(1130, 786)]",[],[1],[],vertical,"(890.0, 762.0)",1.7,nan,1,10412.032,1,0.02,same
0,354,valid,"[(1172, 806)]",[],[1],[0.85],horizontal,"(890.0, 262.0)",0.6166666666666667,nan,0,10417.521,0,0.02,same
0,355,valid,"[(1145, 792)]",[],[1],[0.5666666666666667],horizontal,"(390.0, 762.0)",1.3666666666666667,0.53,1,10422.038,1,0.0,same
0,356,valid,"[(1139, 809)]",[],[1],[0.5333333333333333],vertical,"(890.0, 762.0)",0.4166666666666667,0.493,1,10427.704,1,0.0,same
0,357,catch,"[(1175, 806)]",[],[1],[],horizontal,"(390.0, 762.0)",1.7,nan,1,10432.121,1,0.0,same
0,358,catch,"[(1171, 782)]",[],[1],[],horizontal,"(890.0, 262.0)",1.7,nan,1,10437.771,2,0.0,same
0,359,valid,"[(1157, 792)]",[],[1],[0.5833333333333334],vertical,"(890.0, 262.0)",0.8833333333333333,0.537,1,10443.217,2,0.0,same
0,360,valid,"[(1146, 811)]",[],[1],[0.55],vertical,"(390.0, 762.0)",1.1833333333333333,0.504,1,10449.271,2,0.0,same
0,361,catch,"[(1135, 792)]",[],[1],[],horizontal,"(390.0, 262.0)",1.7,nan,1,10454.76,3,0.0,same
0,362,valid,"[(1160, 779)]",[],[1],[0.55],vertical,"(890.0, 762.0)",0.85,0.504,1,10460.642,3,0.0,same
0,363,valid,"[(1160, 791)]",[],[1],[0.65],horizontal,"(390.0, 262.0)",1.4166666666666667,0.601,1,10466.366,3,0.0,same
0,364,valid,"[(1133, 787)]",[],[1],[0.4666666666666667],horizontal,"(890.0, 262.0)",1.4166666666666667,0.423,1,10472.455,3,0.0,same
0,365,catch,"[(1175, 806)]",[],[1],[],horizontal,"(890.0, 262.0)",1.7,nan,1,10478.733,3,0.0,same
0,366,valid,"[(1157, 787)]",[],[1],[0.5833333333333334],horizontal,"(390.0, 762.0)",1.1333333333333333,0.535,1,10484.788,3,0.0,same
0,367,valid,"[(1155, 805)]",[],[1],[0.85],horizontal,"(890.0, 762.0)",1.1666666666666667,nan,0,10490.421,0,0.0,same
0,368,valid,"[(1121, 816)]",[],[1],[0.55],horizontal,"(390.0, 762.0)",0.7666666666666666,0.51,1,10495.139,1,0.0,same
0,369,catch,"[(1162, 776)]",[],[1],[],vertical,"(390.0, 262.0)",1.7,nan,1,10500.092,1,0.0,same
0,370,valid,"[(1160, 790)]",[],[1],[0.7],horizontal,"(390.0, 762.0)",1.0166666666666666,0.651,1,10505.295,1,0.0,same
0,371,catch,"[(1140, 772)]",[],[1],[],vertical,"(890.0, 262.0)",1.7,nan,1,10510.26,2,0.0,same
0,372,valid,"[(1161, 810)]",[],[1],[0.6166666666666667],horizontal,"(890.0, 262.0)",0.75,0.574,1,10515.972,2,0.0,same
0,373,valid,"[(1158, 775)]",[],[1],[0.6],vertical,"(890.0, 762.0)",0.8666666666666667,0.554,1,10521.109,2,0.0,same
0,374,valid,"[(1155, 811)]",[],[1],[0.55],vertical,"(890.0, 762.0)",1.0166666666666666,0.505,1,10526.139,3,0.0,same
0,375,valid,"[(1153, 809)]",[],[1],[0.5666666666666667],horizontal,"(390.0, 762.0)",1.2666666666666666,0.526,1,10531.806,3,0.0,same
0,376,valid,"[(1146, 780)]",[],[1],[0.6],vertical,"(390.0, 262.0)",1.4,0.558,1,10538.105,3,0.0,same
0,377,catch,"[(1161, 781)]",[],[1],[],vertical,"(890.0, 262.0)",1.7,nan,1,10543.888,3,0.0,same
0,378,valid,"[(1155, 806)]",[],[1],[0.5833333333333334],vertical,"(890.0, 762.0)",0.7166666666666667,0.539,1,10550.033,3,0.0,same
0,379,valid,"[(1150, 782)]",[],[1],[0.85],horizontal,"(390.0, 262.0)",0.5166666666666666,nan,0,10555.189,0,0.0,same
0,380,catch,"[(1116, 808)]",[],[1],[],vertical,"(890.0, 762.0)",1.7,nan,1,10559.0,1,0.0,same
0,381,invalid_adjacent_other_bar,"[(1135, 805)]",[],[1],[0.6],vertical,"(890.0, 762.0)",1.3666666666666667,0.556,1,10564.361,1,0.0,other
0,382,valid,"[(1135, 800)]",[],[1],[0.6333333333333333],horizontal,"(890.0, 262.0)",0.6833333333333333,0.584,1,10569.709,1,0.0,same
0,383,catch,"[(1166, 782)]",[],[1],[],vertical,"(890.0, 762.0)",1.7,nan,1,10574.799,2,0.0,same
0,384,valid,"[(1145, 811)]",[],[1],[0.7],horizontal,"(890.0, 262.0)",0.95,0.661,1,10580.793,2,0.0,same
0,385,valid,"[(1155, 791)]",[],[1],[0.6],vertical,"(890.0, 762.0)",0.5333333333333333,0.557,1,10586.922,2,0.0,same
0,386,valid,"[(1145, 815)]",[],[1],[0.55],horizontal,"(890.0, 262.0)",1.4166666666666667,0.505,1,10592.456,3,0.0,same
0,387,catch,"[(1145, 811)]",[],[1],[],horizontal,"(390.0, 762.0)",1.7,nan,1,10598.894,3,0.0,same
0,388,valid,"[(1157, 788)]",[],[1],[0.6333333333333333],horizontal,"(390.0, 762.0)",1.0333333333333332,0.589,1,10605.055,3,0.0,same
0,389,valid,"[(1154, 790)]",[],[1],[0.6166666666666667],vertical,"(390.0, 262.0)",0.45,0.569,1,10610.747,3,0.0,same
0,390,catch,"[(1174, 807)]",[],[1],[],horizontal,"(890.0, 762.0)",1.7,nan,1,10616.006,3,0.0,same
0,391,valid,"[(1131, 786)]",[],[1],[0.6],vertical,"(890.0, 262.0)",0.9166666666666666,0.556,1,10621.778,3,0.0,same
0,392,valid,"[(1166, 786)]",[],[1],[0.5833333333333334],vertical,"(390.0, 762.0)",0.5833333333333334,0.547,1,10627.676,3,0.0,same
0,393,catch,"[(1164, 790)]",[],[1],[],horizontal,"(890.0, 762.0)",1.7,nan,1,10633.268,3,0.0,same
0,394,valid,"[(1171, 791)]",[],[1],[0.5666666666666667],vertical,"(390.0, 262.0)",1.5,0.527,1,10639.408,3,0.0,same
0,395,catch,"[(1130, 806)]",[],[1],[],vertical,"(890.0, 262.0)",,"('cti', 1.605),nan",0,10645.422,0,0.02,same
0,396,valid,"[(1150, 794)]",[],[1],[0.5333333333333333],vertical,"(390.0, 762.0)",1.0333333333333332,0.487,1,10650.056,1,0.02,same
0,397,valid,"[(1160, 803)]",[],[1],[0.6166666666666667],horizontal,"(890.0, 262.0)",1.2833333333333332,0.568,1,10655.338,1,0.02,same
0,398,valid,"[(1141, 796)]",[],[1],[0.6333333333333333],horizontal,"(390.0, 262.0)",0.8,0.585,1,10660.673,1,0.02,same
0,399,valid,"[(1155, 787)]",[],[1],[0.4166666666666667],vertical,"(890.0, 762.0)",1.4,0.377,1,10665.773,2,0.02,same
0,400,catch,"[(1155, 803)]",[],[1],[],vertical,"(390.0, 762.0)",1.7,nan,1,10671.587,2,0.02,same
0,401,catch,"[(1160, 800)]",[],[1],[],horizontal,"(390.0, 262.0)",1.7,nan,1,10677.355,2,0.02,same
0,402,valid,"[(1159, 796)]",[],[1],[0.6],horizontal,"(390.0, 262.0)",1.5166666666666666,0.555,1,10683.041,3,0.02,same
0,403,valid,"[(1155, 802)]",[],[1],[0.5166666666666666],vertical,"(890.0, 262.0)",0.6,0.477,1,10689.572,3,0.02,same
0,404,valid,"[(1159, 790)]",[],[1],[0.85],vertical,"(390.0, 762.0)",0.7333333333333333,nan,0,10694.904,0,0.02,same
0,405,valid,"[(1135, 796)]",[],[1],[0.6],horizontal,"(390.0, 262.0)",1.2833333333333332,0.558,1,10699.54,1,0.02,same
0,406,valid,"[(1159, 791)]",[],[1],"[0.85, 0.85]",vertical,"(890.0, 762.0)",1.3,"0.808,nan",0,10704.989,0,0.02,same
0,407,valid,"[(1124, 806)]",[],[1],[0.6],horizontal,"(390.0, 762.0)",1.4166666666666667,0.556,1,10710.489,1,0.02,same
0,408,catch,"[(1149, 784)]",[],[1],[],horizontal,"(390.0, 762.0)",1.7,nan,1,10715.973,1,0.02,same
0,409,valid,"[(1147, 767)]",[],[1],[0.85],vertical,"(390.0, 762.0)",0.5,nan,0,10720.956,0,0.02,same
0,410,valid,"[(1135, 799)]",[],[1],[0.5333333333333333],horizontal,"(390.0, 262.0)",1.4833333333333334,0.488,1,10725.074,1,0.02,same
0,411,valid,"[(1130, 824)]",[],[1],[0.85],horizontal,"(390.0, 762.0)",0.5,nan,0,10730.79,0,0.02,same
0,412,valid,"[(1138, 809)]",[],[1],[0.55],vertical,"(890.0, 262.0)",1.05,0.504,1,10734.773,1,0.02,same
0,413,valid,"[(1135, 804)]",[],[1],[0.85],horizontal,"(890.0, 762.0)",0.9333333333333333,nan,0,10739.806,0,0.02,same
0,414,valid,"[(1146, 799)]",[],[1],[0.5666666666666667],vertical,"(890.0, 762.0)",1.4,0.522,1,10744.655,1,0.02,same
0,415,valid,"[(1160, 809)]",[],[1],[0.6833333333333333],horizontal,"(390.0, 262.0)",1.2166666666666666,0.637,1,10750.492,1,0.02,same
0,416,valid,"[(1139, 809)]",[],[1],[0.75],horizontal,"(890.0, 262.0)",0.8833333333333333,0.7,1,10755.583,1,0.02,same
0,417,catch,"[(1160, 787)]",[],[1],[],horizontal,"(890.0, 762.0)",1.7,nan,1,10760.722,2,0.02,same
0,418,valid,"[(1157, 798)]",[],[1],[0.4666666666666667],vertical,"(890.0, 762.0)",1.3666666666666667,0.426,1,10766.94,2,0.02,same
0,419,catch,"[(1142, 802)]",[],[1],[],vertical,"(890.0, 262.0)",1.7,nan,1,10773.033,2,0.02,same
0,420,invalid_adjacent_other_bar,"[(1157, 790)]",[],[1],[0.6833333333333333],horizontal,"(390.0, 762.0)",1.3333333333333333,0.642,1,10778.935,3,0.02,other
0,421,catch,"[(1160, 776)]",[],[1],[],vertical,"(890.0, 262.0)",1.7,nan,1,10785.356,3,0.02,same
0,422,catch,"[(1157, 790)]",[],[1],[],vertical,"(390.0, 262.0)",,"('cti', 1.139),nan",0,10791.405,0,0.04,same
0,423,valid,"[(1153, 825)]",[],[1],[0.6],vertical,"(890.0, 762.0)",1.4166666666666667,0.556,1,10795.605,1,0.04,same
0,424,valid,"[(1157, 804)]",[],[1],[0.7833333333333333],vertical,"(390.0, 762.0)",0.5333333333333333,0.731,1,10815.507,1,0.04,same
0,425,catch,"[(1157, 806)]",[],[1],[],vertical,"(890.0, 762.0)",1.7,nan,1,10820.57,1,0.04,same
0,426,valid,"[(1159, 792)]",[],[1],[0.5833333333333334],vertical,"(890.0, 762.0)",1.1,0.542,1,10825.796,2,0.04,same
0,427,valid,"[(1160, 786)]",[],[1],[0.5333333333333333],vertical,"(390.0, 762.0)",0.65,0.49,1,10831.589,2,0.04,same
0,428,valid,"[(1174, 788)]",[],[1],[0.5166666666666666],horizontal,"(890.0, 262.0)",0.9166666666666666,0.472,1,10836.374,2,0.04,same
0,429,valid,"[(1160, 775)]",[],[1],[0.6333333333333333],vertical,"(890.0, 762.0)",0.8333333333333334,0.589,1,10841.74,3,0.04,same
0,430,valid,"[(1150, 807)]",[],[1],[0.55],vertical,"(890.0, 262.0)",1.4,0.503,1,10847.401,3,0.04,same
0,431,valid,"[(1157, 809)]",[],[1],[0.8],horizontal,"(890.0, 762.0)",0.4,0.757,1,10853.691,3,0.04,same
0,432,valid,"[(1160, 792)]",[],[1],[0.48333333333333334],vertical,"(390.0, 762.0)",1.5,0.442,1,10859.023,3,0.04,same
0,433,valid,"[(1144, 798)]",[],[1],[0.7166666666666667],horizontal,"(890.0, 262.0)",0.48333333333333334,0.667,1,10865.09,3,0.04,same
0,434,valid,"[(1148, 776)]",[],[1],[0.5],horizontal,"(890.0, 262.0)",0.4666666666666667,0.459,1,10870.447,3,0.04,same
0,435,valid,"[(1150, 792)]",[],[1],[0.6],horizontal,"(390.0, 762.0)",0.6,0.55,1,10875.891,3,0.04,same
0,436,valid,"[(1157, 787)]",[],[1],[0.5166666666666666],horizontal,"(390.0, 762.0)",0.6333333333333333,0.478,1,10881.305,3,0.04,same
0,437,valid,"[(1130, 793)]",[],[1],[0.5333333333333333],horizontal,"(890.0, 262.0)",1.1333333333333333,0.486,1,10886.393,3,0.04,same
0,438,catch,"[(1174, 783)]",[],[1],[],vertical,"(390.0, 762.0)",1.7,nan,1,10892.136,3,0.04,same
0,439,valid,"[(1175, 794)]",[],[1],[0.6],horizontal,"(890.0, 262.0)",0.5833333333333334,0.555,1,10898.122,3,0.04,same
0,440,valid,"[(1146, 777)]",[],[1],[0.6166666666666667],vertical,"(390.0, 762.0)",0.7333333333333333,0.567,1,10903.58,3,0.04,same
0,441,valid,"[(1173, 789)]",[],[1],[0.5],vertical,"(890.0, 262.0)",0.9,0.461,1,10909.136,3,0.04,same
0,442,valid,"[(1173, 790)]",[],[1],[0.6],horizontal,"(390.0, 762.0)",0.6333333333333333,0.554,1,10914.341,3,0.04,same
0,443,catch,"[(1158, 806)]",[],[1],[],horizontal,"(390.0, 262.0)",1.7,nan,1,10919.99,3,0.04,same
0,444,valid,"[(1157, 778)]",[],[1],[0.48333333333333334],horizontal,"(890.0, 262.0)",1.2666666666666666,0.443,1,10925.914,3,0.04,same
0,445,valid,"[(1175, 807)]",[],[1],[0.7166666666666667],vertical,"(390.0, 762.0)",0.5,0.665,1,10932.089,3,0.02,same
0,446,valid,"[(1146, 801)]",[],[1],[0.6],horizontal,"(390.0, 262.0)",0.65,0.555,1,10937.658,3,0.02,same
0,447,valid,"[(1165, 765)]",[],[1],[0.6166666666666667],vertical,"(390.0, 762.0)",1.45,0.571,1,10943.479,3,0.02,same
0,448,catch,"[(1146, 777)]",[],[1],[],horizontal,"(390.0, 762.0)",1.7,nan,1,10949.545,3,0.02,same
0,449,valid,"[(1135, 780)]",[],[1],[0.55],horizontal,"(390.0, 762.0)",0.9,0.508,1,10955.643,3,0.02,same
0,450,catch,"[(1157, 801)]",[],[1],[],horizontal,"(390.0, 262.0)",1.7,nan,1,10961.29,3,0.02,same
0,451,valid,"[(1157, 793)]",[],[1],[0.5666666666666667],vertical,"(890.0, 762.0)",0.4,0.525,1,10967.357,3,0.02,same
0,452,catch,"[(1162, 781)]",[],[1],[],horizontal,"(390.0, 762.0)",1.7,nan,1,10973.023,3,0.02,same
0,453,catch,"[(1160, 785)]",[],[1],[],vertical,"(890.0, 762.0)",1.7,nan,1,10978.793,3,0.02,same
0,454,valid,"[(1175, 806)]",[],[1],[0.55],vertical,"(890.0, 762.0)",1.0333333333333332,0.507,1,10984.491,3,0.02,same
0,455,valid,"[(1156, 807)]",[],[1],[0.6],horizontal,"(890.0, 762.0)",0.8666666666666667,0.555,1,10990.163,3,0.02,same
0,456,valid,"[(1155, 801)]",[],[1],[0.6],vertical,"(390.0, 762.0)",1.0833333333333333,0.553,1,10995.925,3,0.02,same
0,457,valid,"[(1162, 791)]",[],[1],[0.55],horizontal,"(390.0, 262.0)",1.45,0.505,1,11001.575,3,0.02,same
0,458,valid,"[(1158, 806)]",[],[1],[0.5666666666666667],horizontal,"(890.0, 762.0)",1.5,0.519,1,11007.594,3,0.02,same
0,459,valid,"[(1160, 785)]",[],[1],[0.6],vertical,"(890.0, 762.0)",0.7333333333333333,0.554,1,11013.707,3,0.02,same
0,460,catch,"[(1131, 775)]",[],[1],[],horizontal,"(890.0, 262.0)",1.7,nan,1,11019.533,3,0.02,same
0,461,catch,"[(1165, 778)]",[],[1],[],horizontal,"(890.0, 262.0)",1.7,nan,1,11025.207,3,0.02,same
0,462,valid,"[(1161, 778)]",[],[1],[0.5],horizontal,"(890.0, 262.0)",0.5,0.46,1,11030.786,3,0.02,same
0,463,valid,"[(1169, 772)]",[],[1],[0.5333333333333333],vertical,"(890.0, 262.0)",0.55,0.489,1,11035.775,3,0.02,same
0,464,valid,"[(1160, 769)]",[],[1],[0.7333333333333333],vertical,"(390.0, 762.0)",1.1166666666666667,0.681,1,11041.007,3,0.02,same
0,465,valid,"[(1140, 772)]",[],[1],[0.5666666666666667],horizontal,"(390.0, 262.0)",1.4666666666666666,0.535,1,11047.021,3,0.02,same
0,466,valid,"[(1159, 809)]",[],[1],[0.6666666666666666],vertical,"(390.0, 262.0)",0.3833333333333333,0.62,1,11053.424,3,0.02,same
0,467,valid,"[(1135, 792)]",[],[1],[],vertical,"(390.0, 762.0)",,"('cti', 1.258)",0,11058.513,0,0.02,same
0,468,valid,"[(1130, 811)]",[],[1],[0.7666666666666666],vertical,"(390.0, 262.0)",1.0166666666666666,0.72,1,11063.116,1,0.02,same
0,469,valid,"[(1155, 796)]",[],[1],[0.5333333333333333],vertical,"(890.0, 262.0)",0.36666666666666664,0.488,1,11068.557,1,0.02,same
0,470,valid,"[(1156, 796)]",[],[1],[0.5666666666666667],horizontal,"(390.0, 762.0)",0.8,0.519,1,11072.925,1,0.02,same
0,471,valid,"[(1156, 794)]",[],[1],[0.5666666666666667],vertical,"(890.0, 262.0)",0.35,0.519,1,11077.885,2,0.02,same
0,472,invalid_adjacent_other_bar,"[(1167, 794)]",[],[1],[0.8333333333333334],horizontal,"(890.0, 262.0)",1.2333333333333334,0.785,1,11082.841,2,0.0,other
0,473,valid,"[(1162, 790)]",[],[1],[0.85],vertical,"(390.0, 762.0)",0.65,nan,0,11088.473,0,0.0,same
0,474,catch,"[(1135, 811)]",[],[1],[],horizontal,"(890.0, 262.0)",1.7,nan,1,11092.858,1,0.0,same
0,475,valid,"[(1169, 806)]",[],[1],[0.5833333333333334],vertical,"(390.0, 762.0)",0.9166666666666666,0.541,1,11098.741,1,0.0,same
0,476,valid,"[(1163, 801)]",[],[1],[0.5833333333333334],vertical,"(890.0, 762.0)",1.35,0.538,1,11104.242,1,0.0,same
0,477,valid,"[(1158, 788)]",[],[1],[0.7666666666666666],vertical,"(390.0, 762.0)",1.1166666666666667,0.72,1,11109.625,2,0.0,same
0,478,valid,"[(1175, 799)]",[],[1],[0.6],horizontal,"(390.0, 762.0)",1.2666666666666666,0.56,1,11115.399,2,0.0,same
0,479,invalid_same_bar,"[(1169, 801)]",[],[1],[0.5833333333333334],vertical,"(390.0, 262.0)",1.1666666666666667,0.544,1,11121.09,2,0.0,same
0,480,catch,"[(1149, 802)]",[],[1],[],horizontal,"(890.0, 762.0)",1.7,nan,1,11126.591,3,0.0,same
0,481,invalid_same_bar,"[(1160, 815)]",[],[1],[0.6333333333333333],vertical,"(390.0, 762.0)",0.6666666666666666,0.595,1,11132.876,3,0.0,same
0,482,valid,"[(1158, 783)]",[],[1],[0.65],vertical,"(390.0, 262.0)",0.6666666666666666,0.61,1,11138.842,3,0.0,same
0,483,valid,"[(1155, 772)]",[],[1],[0.7333333333333333],horizontal,"(890.0, 762.0)",0.75,0.685,1,11144.592,3,0.0,same
0,484,catch,"[(1170, 801)]",[],[1],[],vertical,"(390.0, 262.0)",1.7,nan,1,11149.973,3,0.0,same
0,485,valid,"[(1154, 782)]",[],[1],[0.65],vertical,"(390.0, 262.0)",1.25,0.602,1,11155.706,3,0.0,same
0,486,invalid_adjacent_other_bar,"[(1154, 780)]",[],[1],[0.5666666666666667],vertical,"(890.0, 262.0)",0.6166666666666667,0.533,1,11162.035,3,0.0,other
0,487,valid,"[(1179, 807)]",[],[1],[0.48333333333333334],vertical,"(890.0, 262.0)",0.7833333333333333,0.453,1,11167.441,3,0.0,same
0,488,valid,"[(1167, 791)]",[],[1],[0.6166666666666667],horizontal,"(390.0, 762.0)",0.8833333333333333,0.571,1,11173.093,3,0.0,same
0,489,valid,"[(1155, 799)]",[],[1],[0.48333333333333334],horizontal,"(890.0, 262.0)",0.7833333333333333,0.442,1,11178.506,3,0.0,same
0,490,valid,"[(1160, 777)]",[],[1],[0.5666666666666667],horizontal,"(390.0, 762.0)",1.05,0.532,1,11184.225,3,0.0,same
0,491,catch,"[(1152, 781)]",[],[1],[],vertical,"(890.0, 262.0)",1.7,nan,1,11190.024,3,0.0,same
0,492,valid,"[(1121, 829)]",[],[1],[0.5833333333333334],horizontal,"(390.0, 762.0)",0.5166666666666666,0.542,1,11196.659,3,0.0,same
0,493,catch,"[(1160, 795)]",[],[1],[],horizontal,"(890.0, 262.0)",1.7,nan,1,11202.563,3,0.0,same
0,494,valid,"[(1140, 786)]",[],[1],[0.55],horizontal,"(890.0, 262.0)",1.4666666666666666,0.511,1,11208.924,3,0.0,same
0,495,valid,"[(1172, 782)]",[],[1],[0.55],vertical,"(390.0, 262.0)",0.55,0.514,1,11214.892,3,0.0,same
0,496,valid,"[(1155, 801)]",[],[1],[0.5833333333333334],horizontal,"(390.0, 762.0)",0.43333333333333335,0.541,1,11219.991,3,0.0,same
0,497,invalid_adjacent_other_bar,"[(1150, 776)]",[],[1],[0.5],vertical,"(890.0, 762.0)",1.5,0.459,1,11225.309,3,0.0,other
0,498,valid,"[(1175, 791)]",[],[1],[0.5],vertical,"(890.0, 762.0)",0.55,0.456,1,11231.518,3,0.0,same
0,499,valid,"[(1174, 816)]",[],[1],[0.5833333333333334],vertical,"(390.0, 262.0)",1.4,0.543,1,11236.932,3,0.0,same
0,500,valid,"[(1135, 785)]",[],[1],[0.7],vertical,"(890.0, 762.0)",1.4166666666666667,0.654,1,11243.153,3,0.0,same
0,501,catch,"[(1144, 800)]",[],[1],[],horizontal,"(390.0, 262.0)",1.7,nan,1,11249.317,3,0.0,same
0,502,catch,"[(1170, 791)]",[],[1],[],vertical,"(390.0, 762.0)",1.7,nan,1,11255.659,3,0.0,same
0,503,valid,"[(1132, 811)]",[],[1],[0.6166666666666667],horizontal,"(390.0, 762.0)",1.4333333333333333,0.573,1,11261.826,3,0.0,same
0,504,invalid_adjacent_other_bar,"[(1153, 795)]",[],[1],[0.48333333333333334],horizontal,"(390.0, 262.0)",1.3,0.445,1,11268.242,3,0.0,other
0,505,invalid_same_bar,"[(1154, 799)]",[],[1],[0.85],vertical,"(890.0, 262.0)",0.48333333333333334,nan,0,11274.041,0,0.0,same
0,506,invalid_adjacent_other_bar,"[(1136, 797)]",[],[1],[0.7166666666666667],vertical,"(390.0, 762.0)",0.7666666666666666,0.674,1,11278.342,1,0.0,other
0,507,valid,"[(1157, 782)]",[],[1],[0.6166666666666667],vertical,"(390.0, 762.0)",1.15,0.572,1,11283.142,1,0.0,same
0,508,valid,"[(1135, 816)]",[],[1],[0.36666666666666664],horizontal,"(890.0, 262.0)",1.4166666666666667,0.327,1,11288.241,1,0.0,same
0,509,catch,"[(1155, 796)]",[],[1],[],vertical,"(390.0, 262.0)",1.7,nan,1,11293.901,2,0.0,same
0,510,valid,"[(1116, 815)]",[],[1],[0.5333333333333333],horizontal,"(890.0, 762.0)",1.05,0.489,1,11299.725,2,0.0,same
0,511,valid,"[(1139, 811)]",[],[1],[0.55],vertical,"(890.0, 762.0)",1.5333333333333332,0.509,1,11307.141,2,0.0,same
0,512,valid,"[(1154, 782)]",[],[1],[0.6166666666666667],horizontal,"(390.0, 762.0)",0.5833333333333334,0.573,1,11313.135,3,0.0,same
0,513,valid,"[(1140, 787)]",[],[1],[0.5333333333333333],horizontal,"(890.0, 762.0)",1.05,0.494,1,11318.575,3,0.0,same
0,514,catch,"[(1155, 789)]",[],[1],[],horizontal,"(890.0, 762.0)",1.7,nan,1,11324.386,3,0.0,same
0,515,valid,"[(1158, 787)]",[],[1],[0.6333333333333333],horizontal,"(890.0, 262.0)",0.5833333333333334,0.595,1,11330.562,3,0.0,same
0,516,valid,"[(1158, 799)]",[],[1],[0.7833333333333333],vertical,"(390.0, 262.0)",1.1166666666666667,0.737,1,11335.859,3,0.0,same
0,517,valid,"[(1153, 811)]",[],[1],[0.7833333333333333],horizontal,"(890.0, 762.0)",0.8833333333333333,0.739,1,11342.309,3,0.0,same
0,518,catch,"[(1179, 788)]",[],[1],[],horizontal,"(890.0, 262.0)",1.7,nan,1,11348.39,3,0.0,same
0,519,valid,"[(1160, 782)]",[],[1],[0.5333333333333333],vertical,"(890.0, 262.0)",0.7,0.491,1,11354.413,3,0.0,same
0,520,catch,"[(1133, 801)]",[],[1],[],vertical,"(390.0, 762.0)",1.7,nan,1,11359.752,3,0.0,same
0,521,valid,"[(1166, 796)]",[],[1],[0.5666666666666667],vertical,"(390.0, 762.0)",0.6333333333333333,0.526,1,11366.079,3,0.0,same
0,522,valid,"[(1154, 772)]",[],[1],[0.48333333333333334],horizontal,"(890.0, 762.0)",1.5,0.452,1,11371.626,3,0.0,same
0,523,valid,"[(1159, 806)]",[],[1],[0.5333333333333333],vertical,"(390.0, 762.0)",0.8333333333333334,0.499,1,11377.925,3,0.0,same
0,524,valid,"[(1160, 792)]",[],[1],[0.6833333333333333],horizontal,"(390.0, 262.0)",1.1166666666666667,0.644,1,11383.454,3,0.0,same
0,525,valid,"[(1158, 798)]",[],[1],[0.65],vertical,"(890.0, 762.0)",0.5833333333333334,0.607,1,11389.71,3,0.0,same
0,526,valid,"[(1165, 808)]",[],[1],[0.65],vertical,"(890.0, 762.0)",1.3833333333333333,0.606,1,11395.408,3,0.0,same
0,527,valid,"[(1153, 778)]",[],[1],[0.6666666666666666],vertical,"(390.0, 262.0)",1.2666666666666666,0.626,1,11401.893,3,0.0,same
0,528,valid,"[(1160, 783)]",[],[1],[0.6833333333333333],horizontal,"(390.0, 762.0)",0.6166666666666667,0.646,1,11407.807,3,0.0,same
0,529,valid,"[(1135, 807)]",[],[1],[0.5333333333333333],vertical,"(890.0, 762.0)",0.4,0.489,1,11413.648,3,0.0,same
0,530,valid,"[(1146, 785)]",[],[1],[0.6666666666666666],vertical,"(890.0, 762.0)",1.4666666666666666,0.625,1,11418.61,3,0.0,same
0,531,catch,"[(1160, 783)]",[],[1],[],vertical,"(390.0, 262.0)",1.7,nan,1,11424.732,3,0.0,same
0,532,catch,"[(1160, 799)]",[],[1],[],horizontal,"(890.0, 262.0)",1.7,nan,1,11430.61,3,0.0,same
0,533,valid,"[(1158, 790)]",[],[1],[0.6],vertical,"(890.0, 262.0)",0.7166666666666667,0.555,1,11436.893,3,0.0,same
0,534,catch,"[(1153, 781)]",[],[1],[],vertical,"(890.0, 262.0)",1.7,nan,1,11442.577,3,0.0,same
0,535,invalid_same_bar,"[(1143, 794)]",[],[1],[0.85],vertical,"(890.0, 762.0)",0.5333333333333333,nan,0,11449.006,0,0.0,same
0,536,valid,"[(1131, 777)]",[],[1],[0.55],vertical,"(890.0, 262.0)",0.7666666666666666,0.508,1,11453.376,1,0.0,same
0,537,valid,"[(1152, 806)]",[],[1],[0.5666666666666667],horizontal,"(890.0, 762.0)",0.35,0.521,1,11458.207,1,0.0,same
0,538,valid,"[(1175, 809)]",[],[1],[0.5333333333333333],vertical,"(390.0, 262.0)",0.6833333333333333,0.494,1,11462.669,1,0.0,same
0,539,catch,"[(1137, 812)]",[],[1],[],vertical,"(390.0, 262.0)",1.7,nan,1,11467.927,2,0.0,same
0,540,catch,"[(1164, 791)]",[],[1],[],horizontal,"(390.0, 762.0)",1.7,nan,1,11474.126,2,0.0,same
0,541,valid,"[(1158, 792)]",[],[1],[0.5166666666666666],horizontal,"(390.0, 262.0)",1.1333333333333333,0.477,1,11479.457,2,0.0,same
0,542,valid,"[(1158, 816)]",[],[1],[0.5666666666666667],vertical,"(890.0, 262.0)",1.35,0.523,1,11484.78,3,0.0,same
0,543,valid,"[(1146, 807)]",[],[1],[0.75],horizontal,"(890.0, 262.0)",1.4166666666666667,0.703,1,11491.042,3,0.0,same
0,544,valid,"[(1135, 807)]",[],[1],[0.85],horizontal,"(890.0, 262.0)",0.7833333333333333,nan,0,11497.111,0,0.0,same
0,545,valid,"[(1135, 791)]",[],[1],[0.5666666666666667],horizontal,"(390.0, 262.0)",0.7833333333333333,0.523,1,11501.684,1,0.0,same
0,546,valid,"[(1160, 785)]",[],[1],[0.6],horizontal,"(890.0, 762.0)",0.9833333333333333,0.558,1,11506.477,1,0.0,same
0,547,valid,"[(1130, 806)]",[],[1],[0.85],horizontal,"(890.0, 762.0)",0.6666666666666666,nan,0,11511.892,0,0.0,same
0,548,valid,"[(1149, 806)]",[],[1],[0.6833333333333333],vertical,"(390.0, 762.0)",0.75,0.64,1,11516.689,1,0.0,same
0,549,valid,"[(1158, 786)]",[],[1],[0.5833333333333334],vertical,"(390.0, 262.0)",0.6,0.541,1,11524.159,1,0.0,same
0,550,valid,"[(1162, 796)]",[],[1],[0.5833333333333334],horizontal,"(890.0, 762.0)",0.4166666666666667,0.54,1,11529.06,1,0.0,same
0,551,valid,"[(1180, 779)]",[],[1],[0.5666666666666667],horizontal,"(390.0, 262.0)",1.1166666666666667,0.531,1,11533.226,2,0.0,same
0,552,valid,"[(1160, 790)]",[],[1],[0.55],horizontal,"(390.0, 262.0)",0.8166666666666667,0.511,1,11538.826,2,0.0,same
0,553,catch,"[(1177, 790)]",[],[1],[],vertical,"(890.0, 762.0)",1.7,nan,1,11544.307,2,0.0,same
0,554,valid,"[(1163, 813)]",[],[1],[0.5833333333333334],horizontal,"(890.0, 762.0)",0.85,0.543,1,11550.01,3,0.0,same
0,555,catch,"[(1157, 768)]",[],[1],[],vertical,"(890.0, 762.0)",1.7,nan,1,11556.076,3,0.0,same
0,556,valid,"[(1163, 801)]",[],[1],[0.6833333333333333],horizontal,"(390.0, 262.0)",0.9333333333333333,0.64,1,11562.238,3,0.0,same
0,557,invalid_same_bar,"[(1160, 792)]",[],[1],[0.6333333333333333],vertical,"(890.0, 762.0)",1.0166666666666666,0.587,1,11567.903,3,0.0,same
0,558,valid,"[(1165, 793)]",[],[1],[0.85],horizontal,"(390.0, 762.0)",0.5333333333333333,nan,0,11573.676,0,0.0,same
0,559,valid,"[(1130, 795)]",[],[1],[0.6166666666666667],vertical,"(390.0, 762.0)",0.65,0.572,1,11578.143,1,0.0,same
0,560,catch,"[(1155, 806)]",[],[1],[],vertical,"(390.0, 262.0)",1.7,"('cti', 1.689),nan",0,11582.659,0,0.02,same
0,561,valid,"[(1127, 822)]",[],[1],[0.55],horizontal,"(390.0, 262.0)",0.7166666666666667,0.512,1,11587.727,1,0.02,same
0,562,valid,"[(1170, 800)]",[],[1],[0.5666666666666667],vertical,"(890.0, 762.0)",0.9,0.531,1,11594.322,1,0.02,same
0,563,catch,"[(1159, 810)]",[],[1],[],vertical,"(890.0, 762.0)",1.7,nan,1,11599.665,1,0.02,same
0,564,valid,"[(1159, 791)]",[],[1],[0.6666666666666666],horizontal,"(390.0, 762.0)",0.85,0.618,1,11605.223,2,0.02,same
0,565,valid,"[(1160, 801)]",[],[1],[0.55],vertical,"(390.0, 762.0)",0.85,0.505,1,11610.527,2,0.02,same
0,566,catch,"[(1152, 802)]",[],[1],[],horizontal,"(390.0, 262.0)",,"('cti', 1.671),nan",0,11615.76,0,0.04,same
0,567,valid,"[(1155, 811)]",[],[1],[0.5333333333333333],vertical,"(890.0, 262.0)",1.0333333333333332,0.494,1,11620.844,1,0.04,same
0,568,valid,"[(1156, 786)]",[],[1],[0.5666666666666667],horizontal,"(390.0, 262.0)",0.6833333333333333,0.527,1,11625.711,1,0.04,same
0,569,valid,"[(1157, 816)]",[],[1],[0.5833333333333334],vertical,"(390.0, 762.0)",0.5333333333333333,0.545,1,11630.427,1,0.04,same
0,570,valid,"[(1155, 810)]",[],[1],[0.75],horizontal,"(390.0, 762.0)",0.9333333333333333,0.713,1,11635.077,2,0.04,same
0,571,catch,"[(1158, 811)]",[],[1],[],horizontal,"(890.0, 262.0)",1.7,nan,1,11640.894,2,0.04,same
0,572,valid,"[(1174, 806)]",[],[1],[0.55],horizontal,"(390.0, 762.0)",1.15,0.52,1,11646.844,2,0.04,same
0,573,catch,"[(1159, 777)]",[],[1],[],horizontal,"(390.0, 262.0)",1.7,nan,1,11652.793,3,0.04,same
0,574,valid,"[(1159, 809)]",[],[1],[0.5166666666666666],horizontal,"(890.0, 762.0)",1.5166666666666666,0.478,1,11658.628,3,0.04,same
0,575,valid,"[(1145, 791)]",[],[1],[0.48333333333333334],horizontal,"(890.0, 262.0)",0.7,0.441,1,11664.821,3,0.04,same
0,576,valid,"[(1156, 794)]",[],[1],[0.5],horizontal,"(390.0, 262.0)",1.4,0.459,1,11670.218,3,0.04,same
0,577,valid,"[(1155, 807)]",[],[1],[0.43333333333333335],vertical,"(890.0, 762.0)",1.4333333333333333,0.391,1,11676.439,3,0.04,same
0,578,valid,"[(1155, 810)]",[],[1],[0.85],vertical,"(390.0, 262.0)",0.45,nan,0,11683.011,0,0.04,same
0,579,valid,"[(1153, 794)]",[],[1],[0.7],vertical,"(890.0, 262.0)",0.4,0.657,1,11687.611,1,0.04,same
0,580,valid,"[(1150, 811)]",[],[1],[0.75],horizontal,"(390.0, 762.0)",1.2,0.699,1,11692.244,1,0.04,same
0,581,valid,"[(1155, 777)]",[],[1],[0.5333333333333333],horizontal,"(890.0, 262.0)",0.36666666666666664,0.492,1,11697.808,1,0.04,same
0,582,valid,"[(1179, 784)]",[],[1],[0.5833333333333334],horizontal,"(390.0, 262.0)",0.9666666666666667,0.546,1,11702.461,2,0.04,same
0,583,valid,"[(1150, 803)]",[],[1],[0.5333333333333333],horizontal,"(390.0, 262.0)",0.5333333333333333,0.495,1,11708.086,2,0.04,same
0,584,valid,"[(1159, 781)]",[],[1],[0.6166666666666667],vertical,"(890.0, 762.0)",0.7666666666666666,0.575,1,11713.394,2,0.04,same
0,585,catch,"[(1158, 806)]",[],[1],[],vertical,"(890.0, 262.0)",1.7,nan,1,11718.623,3,0.04,same
0,586,valid,"[(1158, 782)]",[],[1],[0.85],horizontal,"(390.0, 762.0)",0.8666666666666667,nan,0,11724.777,0,0.04,same
0,587,valid,"[(1116, 792)]",[],[1],[0.5666666666666667],vertical,"(390.0, 262.0)",1.0833333333333333,0.526,1,11729.011,1,0.04,same
0,588,catch,"[(1135, 806)]",[],[1],[],horizontal,"(390.0, 262.0)",1.7,nan,1,11733.963,1,0.04,same
0,589,valid,"[(1174, 809)]",[],[1],[0.7666666666666666],vertical,"(890.0, 262.0)",0.6833333333333333,0.722,1,11742.113,1,0.04,same
0,590,catch,"[(1147, 780)]",[],[1],[],horizontal,"(390.0, 762.0)",1.7,nan,1,11747.419,2,0.04,same
0,591,valid,"[(1142, 798)]",[],[1],[0.8],vertical,"(390.0, 762.0)",1.5333333333333332,0.763,1,11753.156,2,0.04,same
0,592,catch,"[(1160, 796)]",[],[1],[],vertical,"(890.0, 262.0)",1.7,nan,1,11759.399,2,0.04,same
0,593,valid,"[(1115, 825)]",[],[1],[0.6833333333333333],vertical,"(890.0, 262.0)",0.7166666666666667,0.647,1,11765.423,3,0.04,same
0,594,valid,"[(1157, 806)]",[],[1],[0.6],horizontal,"(390.0, 762.0)",1.3166666666666667,0.557,1,11771.642,3,0.04,same
0,595,valid,"[(1163, 770)]",[],[1],[0.6],vertical,"(390.0, 262.0)",0.95,0.554,1,11777.997,3,0.04,same
0,596,valid,"[(1155, 811)]",[],[1],[0.5],horizontal,"(890.0, 262.0)",1.45,0.458,1,11783.627,3,0.04,same
0,597,valid,"[(1163, 773)]",[],[1],[0.7],vertical,"(890.0, 762.0)",1.2666666666666666,0.656,1,11789.686,3,0.04,same
0,598,valid,"[(1161, 801)]",[],[1],[0.6],vertical,"(890.0, 762.0)",0.8666666666666667,0.559,1,11796.078,3,0.04,same
0,599,valid,"[(1159, 782)]",[],[1],[0.6833333333333333],vertical,"(890.0, 762.0)",0.5,0.647,1,11801.723,3,0.04,same
0,600,valid,"[(1163, 786)]",[],[1],[0.5333333333333333],horizontal,"(390.0, 262.0)",1.0666666666666667,0.492,1,11807.511,3,0.04,same
0,601,valid,"[(1160, 811)]",[],[1],[0.6166666666666667],horizontal,"(890.0, 762.0)",1.4,0.581,1,11812.977,3,0.04,same
0,602,valid,"[(1160, 814)]",[],[1],[0.5166666666666666],horizontal,"(390.0, 262.0)",0.9333333333333333,0.476,1,11819.011,3,0.04,same
0,603,valid,"[(1160, 800)]",[],[1],[0.2],horizontal,"(890.0, 762.0)",1.5,0.167,0,11825.845,0,0.04,same
0,604,valid,"[(1116, 791)]",[],[1],[0.4666666666666667],horizontal,"(890.0, 262.0)",0.75,0.421,1,11830.737,1,0.04,same
0,605,valid,"[(1130, 793)]",[],[1],[0.4666666666666667],vertical,"(390.0, 262.0)",1.4666666666666666,0.427,1,11835.396,1,0.04,same
0,606,catch,"[(1160, 809)]",[],[1],[],vertical,"(390.0, 262.0)",1.7,nan,1,11840.711,1,0.04,same
0,607,valid,"[(1153, 782)]",[],[1],[0.5166666666666666],vertical,"(890.0, 762.0)",0.8,0.482,1,11846.294,2,0.04,same
0,608,valid,"[(1159, 773)]",[],[1],[0.5166666666666666],vertical,"(890.0, 262.0)",0.65,0.478,1,11851.41,2,0.04,same
0,609,catch,"[(1137, 810)]",[],[1],[],vertical,"(390.0, 262.0)",1.7,nan,1,11856.753,2,0.04,same
0,610,valid,"[(1153, 786)]",[],[1],[0.85],horizontal,"(890.0, 262.0)",1.4333333333333333,"('cti', 1.423),nan",0,11861.961,0,0.02,same
0,611,valid,"[(1154, 807)]",[],[1],[0.6833333333333333],vertical,"(890.0, 762.0)",0.6166666666666667,0.64,1,11867.827,1,0.02,same
0,612,valid,"[(1161, 797)]",[],[1],[0.85],horizontal,"(390.0, 762.0)",0.7666666666666666,nan,0,11933.694,0,0.02,same
0,613,catch,"[(1141, 798)]",[],[1],[],horizontal,"(890.0, 262.0)",1.7,nan,1,11938.445,1,0.02,same
0,614,valid,"[(1159, 811)]",[],[1],[0.6666666666666666],horizontal,"(390.0, 762.0)",0.43333333333333335,0.628,1,11943.99,1,0.02,same
0,615,valid,"[(1175, 782)]",[],[1],[0.7166666666666667],horizontal,"(890.0, 762.0)",1.1166666666666667,0.671,1,11948.376,1,0.02,same
0,616,valid,"[(1179, 794)]",[],[1],[0.6166666666666667],vertical,"(390.0, 762.0)",1.2333333333333334,0.574,1,11953.678,2,0.0,same
0,617,valid,"[(1158, 811)]",[],[1],[0.85],vertical,"(890.0, 762.0)",0.7,nan,0,11959.445,0,0.0,same
0,618,catch,"[(1158, 808)]",[],[1],[],horizontal,"(890.0, 762.0)",1.7,nan,1,11963.844,1,0.0,same
0,619,valid,"[(1155, 801)]",[],[1],[0.5833333333333334],vertical,"(390.0, 262.0)",0.7,0.543,1,11969.134,1,0.0,same
0,620,valid,"[(1158, 782)]",[],[1],[0.5833333333333334],horizontal,"(390.0, 762.0)",0.45,0.54,1,11974.21,1,0.0,same
0,621,valid,"[(1162, 777)]",[],[1],[0.5],vertical,"(890.0, 762.0)",1.5333333333333332,0.463,1,11978.637,2,0.0,same
0,622,valid,"[(1158, 806)]",[],[1],[0.6166666666666667],horizontal,"(890.0, 762.0)",1.2,0.578,1,11984.778,2,0.0,same
0,623,valid,"[(1158, 811)]",[],[1],[0.5666666666666667],vertical,"(890.0, 762.0)",1.05,0.53,1,11990.619,2,0.0,same
0,624,catch,"[(1158, 793)]",[],[1],[],vertical,"(890.0, 262.0)",1.7,nan,1,11996.08,3,0.0,same
0,625,catch,"[(1173, 805)]",[],[1],[],vertical,"(390.0, 262.0)",1.7,nan,1,12002.062,3,0.0,same
0,626,catch,"[(1165, 786)]",[],[1],[],vertical,"(890.0, 762.0)",,"('cti', 1.476),nan",0,12008.033,0,0.02,same
0,627,valid,"[(1158, 813)]",[],[1],[0.55],vertical,"(390.0, 262.0)",0.5166666666666666,0.507,1,12012.147,1,0.02,same
0,628,catch,"[(1172, 811)]",[],[1],[],horizontal,"(390.0, 262.0)",1.7,nan,1,12016.721,1,0.02,same
0,629,valid,"[(1133, 809)]",[],[1],[0.7],vertical,"(890.0, 762.0)",1.5166666666666666,0.657,1,12021.899,1,0.02,same
0,630,valid,"[(1171, 782)]",[],[1],[0.6],horizontal,"(890.0, 262.0)",0.5666666666666667,0.555,1,12027.546,2,0.02,same
0,631,valid,"[(1160, 798)]",[],[1],[0.85],vertical,"(390.0, 262.0)",1.5,nan,0,12032.91,0,0.02,same
0,632,valid,"[(1116, 786)]",[],[1],[0.65],horizontal,"(890.0, 262.0)",1.3166666666666667,0.618,1,12038.101,1,0.02,same
0,633,valid,"[(1175, 791)]",[],[1],[0.5666666666666667],vertical,"(890.0, 762.0)",0.6666666666666666,0.526,1,12043.554,1,0.02,same
0,634,valid,"[(1143, 789)]",[],[1],[0.5],vertical,"(890.0, 262.0)",0.5166666666666666,0.46,1,12048.162,1,0.02,same
0,635,valid,"[(1131, 813)]",[],[1],[0.6],horizontal,"(390.0, 762.0)",1.0666666666666667,0.557,1,12052.526,2,0.02,same
0,636,valid,"[(1158, 811)]",[],[1],[0.45],horizontal,"(890.0, 762.0)",1.4833333333333334,0.407,1,12058.589,2,0.02,same
0,637,catch,"[(1162, 778)]",[],[1],[],horizontal,"(890.0, 762.0)",1.7,nan,1,12064.344,2,0.02,same
0,638,valid,"[(1160, 789)]",[],[1],[0.48333333333333334],vertical,"(890.0, 262.0)",0.6,0.442,1,12070.322,3,0.02,same
0,639,valid,"[(1132, 811)]",[],[1],[0.5166666666666666],vertical,"(390.0, 762.0)",1.1333333333333333,0.477,1,12075.665,3,0.02,same
0,640,valid,"[(1140, 777)]",[],[1],[0.5166666666666666],vertical,"(890.0, 262.0)",1.2166666666666666,0.477,1,12081.27,3,0.02,same
0,641,valid,"[(1150, 776)]",[],[1],[0.7833333333333333],horizontal,"(890.0, 762.0)",1.3666666666666667,0.736,1,12087.01,3,0.02,same
0,642,catch,"[(1160, 798)]",[],[1],[],vertical,"(390.0, 762.0)",1.7,nan,1,12093.503,3,0.02,same
0,643,valid,"[(1140, 788)]",[],[1],[0.5666666666666667],horizontal,"(390.0, 262.0)",0.5666666666666667,0.523,1,12099.547,3,0.02,same
0,644,valid,"[(1160, 807)]",[],[1],[0.85],vertical,"(390.0, 762.0)",0.48333333333333334,nan,0,12104.915,0,0.02,same
0,645,valid,"[(1159, 802)]",[],[1],[0.5166666666666666],vertical,"(890.0, 262.0)",1.5166666666666666,0.476,1,12109.094,1,0.02,same
0,646,valid,"[(1153, 811)]",[],[1],[0.5833333333333334],vertical,"(390.0, 762.0)",0.8833333333333333,0.541,1,12114.501,1,0.02,same
0,647,valid,"[(1161, 806)]",[],[1],[0.5166666666666666],horizontal,"(890.0, 762.0)",1.2833333333333332,0.476,1,12119.573,1,0.02,same
0,648,catch,"[(1160, 799)]",[],[1],[],vertical,"(390.0, 262.0)",1.7,nan,1,12124.545,2,0.02,same
0,649,valid,"[(1159, 782)]",[],[1],[0.6333333333333333],vertical,"(890.0, 762.0)",0.7666666666666666,0.591,1,12130.172,2,0.02,same
0,650,valid,"[(1158, 783)]",[],[1],[0.55],vertical,"(890.0, 762.0)",0.8166666666666667,0.508,1,12135.413,2,0.02,same
0,651,valid,"[(1158, 791)]",[],[1],[0.4666666666666667],vertical,"(390.0, 762.0)",1.5166666666666666,0.428,1,12141.11,3,0.02,same
0,652,valid,"[(1180, 790)]",[],[1],[0.6],vertical,"(390.0, 762.0)",0.7833333333333333,0.564,1,12147.529,3,0.02,same
0,653,catch,"[(1160, 785)]",[],[1],[],vertical,"(890.0, 762.0)",1.7,nan,1,12153.013,3,0.02,same
0,654,valid,"[(1158, 778)]",[],[1],[0.5333333333333333],vertical,"(890.0, 262.0)",0.7333333333333333,0.489,1,12159.013,3,0.02,same
0,655,valid,"[(1161, 791)]",[],[1],[0.85],horizontal,"(390.0, 762.0)",1.2333333333333334,nan,0,12165.028,0,0.02,same
0,656,valid,"[(1144, 806)]",[],[1],[0.5],vertical,"(390.0, 762.0)",1.4833333333333334,0.466,1,12169.596,1,0.02,same
0,657,valid,"[(1155, 801)]",[],[1],[0.5666666666666667],horizontal,"(390.0, 762.0)",1.5,0.524,1,12175.128,1,0.02,same
0,658,valid,"[(1163, 798)]",[],[1],[0.65],vertical,"(390.0, 262.0)",1.15,0.616,1,12180.39,1,0.02,same
0,659,valid,"[(1157, 787)]",[],[1],[0.4666666666666667],horizontal,"(890.0, 762.0)",1.4333333333333333,0.429,1,12185.686,2,0.02,same
0,660,catch,"[(1172, 783)]",[],[1],[],vertical,"(390.0, 762.0)",1.7,nan,1,12191.545,2,0.02,same
0,661,valid,"[(1162, 790)]",[],[1],[0.5],horizontal,"(890.0, 262.0)",0.35,0.46,1,12196.962,2,0.02,same
0,662,valid,"[(1144, 811)]",[],[1],[0.6333333333333333],horizontal,"(890.0, 762.0)",1.05,0.601,1,12201.93,3,0.02,same
0,663,valid,"[(1160, 790)]",[],[1],[0.6833333333333333],vertical,"(390.0, 762.0)",0.4666666666666667,0.641,1,12208.558,3,0.02,same
0,664,valid,"[(1160, 795)]",[],[1],[0.5666666666666667],vertical,"(390.0, 762.0)",1.5,0.528,1,12213.633,3,0.02,same
0,665,valid,"[(1158, 781)]",[],[1],[0.5833333333333334],vertical,"(390.0, 762.0)",0.4166666666666667,0.545,1,12219.729,3,0.02,same
0,666,valid,"[(1162, 800)]",[],[1],[0.7],vertical,"(890.0, 262.0)",1.1666666666666667,0.658,1,12225.282,3,0.02,same
0,667,valid,"[(1160, 786)]",[],[1],[0.5833333333333334],vertical,"(390.0, 262.0)",1.1,0.54,1,12231.256,3,0.02,same
0,668,valid,"[(1161, 781)]",[],[1],[0.31666666666666665],vertical,"(890.0, 262.0)",1.4833333333333334,0.285,1,12237.013,3,0.02,same
0,669,valid,"[(1140, 794)]",[],[1],[0.6],horizontal,"(390.0, 762.0)",1.3,0.561,1,12243.33,3,0.02,same
0,670,valid,"[(1158, 785)]",[],[1],[0.7],horizontal,"(390.0, 762.0)",1.35,0.665,1,12249.496,3,0.02,same
0,671,valid,"[(1160, 806)]",[],[1],[0.85],horizontal,"(390.0, 262.0)",1.4666666666666666,nan,0,12256.279,0,0.02,same
0,672,valid,"[(1143, 808)]",[],[1],[0.85],horizontal,"(390.0, 262.0)",0.7833333333333333,nan,0,12261.306,0,0.02,same
0,673,valid,"[(1155, 844)]",[],[1],[0.85],horizontal,"(890.0, 262.0)",1.1,nan,0,12266.278,0,0.02,same
0,674,valid,"[(1130, 807)]",[],[1],[0.6333333333333333],horizontal,"(890.0, 262.0)",1.5166666666666666,0.588,1,12882.582,1,0.02,same
0,675,catch,"[(1161, 812)]",[],[1],[],horizontal,"(390.0, 262.0)",,"('cti', 1.471),nan",0,12887.971,0,0.04,same
0,676,valid,"[(1101, 813)]",[],[1],[0.85],vertical,"(890.0, 762.0)",1.4833333333333334,nan,0,12892.871,0,0.02,same
0,677,valid,"[(1161, 806)]",[],[1],[0.6],vertical,"(890.0, 762.0)",0.3833333333333333,0.556,1,12915.093,1,0.02,same
0,678,valid,"[(1155, 821)]",[],[1],[0.5],horizontal,"(890.0, 262.0)",1.2833333333333332,0.457,1,12919.848,1,0.02,same
0,679,valid,"[(1160, 806)]",[],[1],[0.5833333333333334],horizontal,"(890.0, 262.0)",0.48333333333333334,0.548,1,12925.242,1,0.02,same
0,680,valid,"[(1158, 810)]",[],[1],[0.06666666666666667],horizontal,"(890.0, 262.0)",0.6666666666666666,0.034,0,12930.217,0,0.02,same
0,681,invalid_adjacent_other_bar,"[(1159, 813)]",[],[1],[0.85],horizontal,"(390.0, 262.0)",0.9,nan,0,12934.42,0,0.02,other
0,682,valid,"[(1111, 817)]","[(1126, 855)]",[1],[0.05],horizontal,"(390.0, 262.0)",,"('bar', 0.067)",0,12939.886,0,0.02,same
0,683,valid,"[(1159, 811)]",[],[1],[0.7],vertical,"(890.0, 762.0)",1.0833333333333333,0.659,1,12942.566,1,0.02,same
0,684,catch,"[(1160, 793)]",[],[1],[],horizontal,"(390.0, 762.0)",1.7,nan,1,12948.032,1,0.02,same
0,685,valid,"[(1157, 792)]",[],[1],[0.5666666666666667],horizontal,"(890.0, 762.0)",1.0666666666666667,0.526,1,12953.433,1,0.02,same
0,686,catch,"[(1160, 804)]",[],[1],[],horizontal,"(390.0, 262.0)",1.7,nan,1,12958.316,2,0.02,same
0,687,valid,"[(1160, 777)]",[],[1],[0.5333333333333333],vertical,"(390.0, 762.0)",0.9333333333333333,0.493,1,12963.915,2,0.02,same
0,688,valid,"[(1161, 811)]",[],[1],[0.85],vertical,"(390.0, 762.0)",1.4166666666666667,nan,0,12969.025,0,0.02,same
0,689,valid,"[(1110, 811)]",[],[1],[0.5666666666666667],horizontal,"(890.0, 262.0)",1.2166666666666666,0.534,1,12974.091,1,0.02,same
0,690,catch,"[(1162, 785)]",[],[1],[],horizontal,"(890.0, 762.0)",,"('fix', 0.369),nan",0,12980.415,0,0.04,same
0,691,valid,"[(1135, 811)]",[],[1],[0.55],horizontal,"(890.0, 262.0)",1.3333333333333333,0.51,1,12982.449,1,0.04,same
0,692,valid,"[(1150, 769)]",[],[1],[0.85],vertical,"(890.0, 262.0)",1.45,nan,0,12989.279,0,0.04,same
0,693,invalid_same_bar,"[(1145, 800)]",[],[1],[0.85],horizontal,"(390.0, 262.0)",0.9166666666666666,nan,0,12994.333,0,0.04,same
0,694,valid,"[(1159, 795)]",[],[1],[0.6],horizontal,"(890.0, 762.0)",1.1166666666666667,0.561,1,12999.147,1,0.04,same
0,695,valid,"[(1160, 811)]",[],[1],[0.85],vertical,"(890.0, 262.0)",0.7833333333333333,nan,0,13004.704,0,0.04,same
0,696,valid,"[(1135, 806)]",[],[1],[0.85],vertical,"(890.0, 762.0)",1.0333333333333332,nan,0,13009.416,0,0.04,same
0,697,valid,"[(1167, 806)]",[],[1],[0.5166666666666666],horizontal,"(890.0, 262.0)",0.7833333333333333,0.471,1,13014.395,1,0.04,same
0,698,catch,"[(1153, 778)]",[],[1],[],vertical,"(390.0, 762.0)",1.7,nan,1,13018.916,1,0.04,same
0,699,valid,"[(1160, 771)]",[],[1],[0.45],vertical,"(390.0, 262.0)",1.5,0.415,1,13024.282,1,0.04,same
0,700,catch,"[(1165, 793)]",[],[1],[],vertical,"(390.0, 762.0)",1.7,nan,1,13029.845,2,0.04,same
0,701,valid,"[(1222, 782)]",[],[1],[0.5166666666666666],horizontal,"(890.0, 262.0)",0.55,0.473,1,13035.615,2,0.04,same
0,702,valid,"[(1174, 790)]",[],[1],[0.5666666666666667],vertical,"(890.0, 262.0)",1.1333333333333333,0.534,1,13040.493,2,0.04,same
0,703,valid,"[(1157, 803)]",[],[1],[0.5],vertical,"(890.0, 262.0)",1.4,0.463,1,13046.319,3,0.04,same
0,704,valid,"[(1161, 798)]",[],[1],[0.6666666666666666],horizontal,"(390.0, 262.0)",0.9666666666666667,0.637,1,13052.241,3,0.04,same
0,705,valid,"[(1162, 789)]",[],[1],[0.5833333333333334],vertical,"(390.0, 762.0)",1.1,0.552,1,13057.944,3,0.04,same
0,706,valid,"[(1156, 791)]",[],[1],[0.5333333333333333],horizontal,"(890.0, 262.0)",0.9166666666666666,0.495,1,13064.029,3,0.04,same
0,707,valid,"[(1135, 798)]",[],[1],[0.43333333333333335],horizontal,"(890.0, 262.0)",1.5166666666666666,0.398,1,13069.34,3,0.04,same
0,708,valid,"[(1157, 811)]",[],[1],[0.5166666666666666],vertical,"(890.0, 762.0)",1.0666666666666667,0.486,1,13075.617,3,0.04,same
0,709,valid,"[(1158, 807)]",[],[1],[0.7],vertical,"(890.0, 762.0)",1.2333333333333334,0.662,1,13081.532,3,0.04,same
0,710,catch,"[(1160, 795)]",[],[1],[],horizontal,"(890.0, 262.0)",1.7,nan,1,13088.049,3,0.04,same
0,711,valid,"[(1142, 787)]",[],[1],[0.5666666666666667],horizontal,"(390.0, 762.0)",1.3833333333333333,0.525,1,13094.425,3,0.04,same
0,712,valid,"[(1173, 803)]",[],[1],[0.5833333333333334],horizontal,"(390.0, 262.0)",1.3166666666666667,0.54,1,13100.264,3,0.04,same
0,713,catch,"[(1172, 792)]",[],[1],[],horizontal,"(890.0, 262.0)",1.7,nan,1,13106.682,3,0.04,same
0,714,catch,"[(1160, 779)]",[],[1],[],horizontal,"(390.0, 762.0)",1.7,nan,1,13112.516,3,0.04,same
0,715,catch,"[(1153, 790)]",[],[1],[],vertical,"(390.0, 762.0)",1.7,nan,1,13118.774,3,0.04,same
0,716,valid,"[(1174, 784)]",[],[1],[0.48333333333333334],vertical,"(890.0, 762.0)",1.2833333333333332,0.442,1,13125.02,3,0.04,same
0,717,valid,"[(1160, 794)]",[],[1],[0.5],vertical,"(890.0, 262.0)",0.9333333333333333,0.467,1,13130.799,3,0.04,same
0,718,valid,"[(1172, 799)]",[],[1],[0.5166666666666666],vertical,"(390.0, 262.0)",0.8166666666666667,0.477,1,13136.0,3,0.04,same
0,719,catch,"[(1155, 782)]",[],[1],[],vertical,"(390.0, 262.0)",1.7,nan,1,13142.073,3,0.04,same
0,720,catch,"[(1164, 785)]",[],[1],[],horizontal,"(390.0, 762.0)",1.7,nan,1,13148.204,3,0.04,same
0,721,valid,"[(1165, 796)]",[],[1],[0.6333333333333333],horizontal,"(390.0, 762.0)",1.4833333333333334,0.591,1,13153.92,3,0.04,same
0,722,valid,"[(1175, 792)]",[],[1],[0.8166666666666667],vertical,"(390.0, 262.0)",0.7166666666666667,0.769,1,13159.99,3,0.04,same
0,723,catch,"[(1165, 770)]",[],[1],[],horizontal,"(390.0, 762.0)",1.7,nan,1,13165.716,3,0.04,same
0,724,valid,"[(1163, 787)]",[],[1],[0.48333333333333334],vertical,"(890.0, 762.0)",1.3666666666666667,0.45,1,13171.515,3,0.04,same
0,725,valid,"[(1159, 793)]",[],[1],[0.5],horizontal,"(390.0, 262.0)",0.5,0.458,1,13177.791,3,0.02,same
0,726,catch,"[(1161, 781)]",[],[1],[],horizontal,"(890.0, 262.0)",1.7,nan,1,13182.898,3,0.02,same
0,727,valid,"[(1164, 786)]",[],[1],[0.5166666666666666],horizontal,"(890.0, 762.0)",0.5166666666666666,0.474,1,13189.016,3,0.02,same
0,728,catch,"[(1145, 812)]",[],[1],[],horizontal,"(890.0, 262.0)",1.7,nan,1,13194.156,3,0.02,same
0,729,catch,"[(1165, 785)]",[],[1],[],horizontal,"(890.0, 262.0)",1.7,nan,1,13199.705,3,0.02,same
0,730,valid,"[(1158, 797)]",[],[1],[0.5],horizontal,"(390.0, 762.0)",0.8666666666666667,0.465,1,13205.708,3,0.02,same
0,731,valid,"[(1165, 800)]",[],[1],[0.5666666666666667],horizontal,"(890.0, 262.0)",1.4333333333333333,0.53,1,13211.417,3,0.02,same
0,732,valid,"[(1159, 792)]",[],[1],[0.6333333333333333],horizontal,"(890.0, 762.0)",0.7166666666666667,0.593,1,13217.545,3,0.02,same
0,733,valid,"[(1160, 801)]",[],[1],[0.55],horizontal,"(390.0, 762.0)",0.36666666666666664,0.507,1,13222.713,3,0.02,same
0,734,valid,"[(1153, 791)]",[],[1],[0.6333333333333333],horizontal,"(390.0, 262.0)",1.2166666666666666,0.593,1,13227.77,3,0.02,same
0,735,valid,"[(1154, 780)]",[],[1],[0.5166666666666666],vertical,"(390.0, 262.0)",1.4166666666666667,0.477,1,13234.049,3,0.02,same
0,736,valid,"[(1175, 791)]",[],[1],[0.5333333333333333],horizontal,"(390.0, 262.0)",1.25,0.492,1,13240.171,3,0.02,same
0,737,valid,"[(1160, 773)]",[],[1],[0.55],horizontal,"(890.0, 762.0)",1.15,0.508,1,13246.216,3,0.02,same
0,738,valid,"[(1160, 789)]",[],[1],[0.6833333333333333],horizontal,"(890.0, 762.0)",0.48333333333333334,0.642,1,13252.34,3,0.02,same
0,739,catch,"[(1170, 813)]",[],[1],[],vertical,"(890.0, 262.0)",1.7,nan,1,13257.715,3,0.02,same
0,740,valid,"[(1160, 781)]",[],[1],[0.6],vertical,"(390.0, 762.0)",0.5333333333333333,0.563,1,13263.667,3,0.0,same
0,741,valid,"[(1155, 786)]",[],[1],[0.26666666666666666],vertical,"(890.0, 262.0)",1.5166666666666666,0.23,1,13268.634,3,0.0,same
0,742,catch,"[(1150, 780)]",[],[1],[],horizontal,"(890.0, 262.0)",1.7,nan,1,13275.016,3,0.0,same
0,743,valid,"[(1159, 781)]",[],[1],[0.6833333333333333],horizontal,"(890.0, 262.0)",0.4666666666666667,0.64,1,13280.953,3,0.0,same
0,744,valid,"[(1159, 802)]",[],[1],[0.4],horizontal,"(890.0, 762.0)",1.4,0.359,1,13286.879,3,0.0,same
0,745,valid,"[(1160, 787)]",[],[1],[0.7166666666666667],horizontal,"(890.0, 762.0)",0.7,0.672,1,13293.233,3,0.0,same
0,746,valid,"[(1162, 811)]",[],[1],[0.6166666666666667],horizontal,"(390.0, 762.0)",1.25,0.576,1,13298.716,3,0.0,same
0,747,catch,"[(1158, 793)]",[],[1],[],horizontal,"(390.0, 262.0)",1.7,nan,1,13305.185,3,0.0,same
0,748,valid,"[(1156, 778)]",[],[1],[0.6],vertical,"(390.0, 262.0)",0.5666666666666667,0.557,1,13311.535,3,0.0,same
0,749,catch,"[(1159, 796)]",[],[1],[],horizontal,"(890.0, 262.0)",,"('cti', 1.314),nan",0,13317.3,0,0.02,same
0,750,invalid_adjacent_other_bar,"[(1165, 791)]",[],[1],[0.85],horizontal,"(390.0, 762.0)",1.0666666666666667,nan,0,13321.766,0,0.02,other
0,751,valid,"[(1158, 789)]",[],[1],[0.36666666666666664],vertical,"(390.0, 762.0)",1.4333333333333333,0.335,1,13326.816,1,0.02,same
0,752,catch,"[(1155, 786)]",[],[1],[],vertical,"(890.0, 262.0)",1.7,nan,1,13332.443,1,0.02,same
0,753,valid,"[(1173, 778)]",[],[1],[0.5166666666666666],vertical,"(390.0, 762.0)",1.3333333333333333,0.477,1,13337.622,1,0.02,same
0,754,valid,"[(1172, 799)]",[],[1],[0.5833333333333334],horizontal,"(890.0, 262.0)",0.9833333333333333,0.537,1,13343.149,2,0.02,same
0,755,valid,"[(1160, 775)]",[],[1],[0.7166666666666667],vertical,"(890.0, 762.0)",0.65,0.672,1,13348.2,2,0.02,same
0,756,catch,"[(1155, 767)]",[],[1],[],vertical,"(890.0, 262.0)",1.7,nan,1,13353.367,2,0.02,same
0,757,valid,"[(1149, 778)]",[],[1],[0.55],vertical,"(390.0, 762.0)",1.0166666666666666,0.513,1,13358.734,3,0.02,same
0,758,valid,"[(1156, 791)]",[],[1],[0.5666666666666667],vertical,"(390.0, 762.0)",1.15,0.523,1,13365.067,3,0.02,same
0,759,catch,"[(1160, 782)]",[],[1],[],vertical,"(390.0, 762.0)",1.7,nan,1,13370.578,3,0.02,same
0,760,valid,"[(1154, 797)]",[],[1],[0.5333333333333333],horizontal,"(890.0, 762.0)",0.8666666666666667,0.488,1,13376.366,3,0.02,same
0,761,valid,"[(1157, 792)]",[],[1],[0.55],vertical,"(890.0, 762.0)",1.2,0.509,1,13382.333,3,0.02,same
0,762,valid,"[(1158, 791)]",[],[1],[0.5666666666666667],horizontal,"(890.0, 262.0)",1.3333333333333333,0.529,1,13388.034,3,0.02,same
0,763,valid,"[(1155, 811)]",[],[1],[0.6333333333333333],horizontal,"(890.0, 762.0)",0.7166666666666667,0.592,1,13394.535,3,0.02,same
0,764,catch,"[(1158, 791)]",[],[1],[],horizontal,"(890.0, 262.0)",1.7,nan,1,13400.084,3,0.02,same
0,765,valid,"[(1168, 791)]",[],[1],[0.7666666666666666],horizontal,"(890.0, 762.0)",0.3833333333333333,0.722,1,13405.884,3,0.02,same
0,766,valid,"[(1150, 780)]",[],[1],[0.7166666666666667],vertical,"(890.0, 262.0)",0.6,0.675,1,13411.317,3,0.02,same
0,767,valid,"[(1155, 812)]",[],[1],[0.5166666666666666],vertical,"(890.0, 262.0)",0.8166666666666667,0.486,1,13416.683,3,0.02,same
0,768,valid,"[(1155, 782)]",[],[1],[0.65],horizontal,"(390.0, 262.0)",0.7666666666666666,0.618,1,13422.718,3,0.02,same
0,769,valid,"[(1155, 791)]",[],[1],[0.4666666666666667],horizontal,"(890.0, 762.0)",1.5166666666666666,0.43,1,13428.001,3,0.02,same
0,770,valid,"[(1138, 778)]",[],[1],[0.5333333333333333],vertical,"(890.0, 762.0)",1.3666666666666667,0.494,1,13434.17,3,0.02,same
0,771,valid,"[(1152, 799)]",[],[1],[0.65],horizontal,"(390.0, 262.0)",1.2166666666666666,0.604,1,13440.596,3,0.02,same
0,772,invalid_adjacent_other_bar,"[(1155, 806)]",[],[1],[0.65],vertical,"(890.0, 762.0)",0.8666666666666667,0.615,1,13447.051,3,0.02,other
0,773,valid,"[(1155, 805)]",[],[1],[0.5666666666666667],horizontal,"(390.0, 762.0)",0.7333333333333333,0.531,1,13454.0,3,0.02,same
0,774,valid,"[(1141, 800)]",[],[1],[0.6],horizontal,"(390.0, 762.0)",0.5166666666666666,0.556,1,13459.168,3,0.02,same
0,775,valid,"[(1159, 772)]",[],[1],[0.5666666666666667],horizontal,"(890.0, 762.0)",1.4,0.528,1,13465.152,3,0.02,same
0,776,valid,"[(1171, 801)]",[],[1],[0.6333333333333333],horizontal,"(890.0, 762.0)",1.2166666666666666,0.595,1,13471.406,3,0.02,same
0,777,valid,"[(1155, 791)]",[],[1],[0.55],vertical,"(890.0, 262.0)",0.7666666666666666,0.518,1,13477.522,3,0.02,same
0,778,valid,"[(1155, 784)]",[],[1],[0.5833333333333334],vertical,"(890.0, 262.0)",0.7333333333333333,0.542,1,13483.297,3,0.02,same
0,779,valid,"[(1170, 777)]",[],[1],[0.6333333333333333],horizontal,"(890.0, 762.0)",0.8166666666666667,0.588,1,13489.104,3,0.02,same
0,780,valid,"[(1160, 795)]",[],[1],[0.25],horizontal,"(390.0, 762.0)",1.45,0.21,1,13494.857,3,0.02,same
0,781,valid,"[(1155, 786)]",[],[1],[0.6666666666666666],vertical,"(390.0, 762.0)",0.5,0.622,1,13501.05,3,0.02,same
0,782,valid,"[(1166, 813)]",[],[1],[0.5833333333333334],horizontal,"(890.0, 262.0)",1.1833333333333333,0.546,1,13506.605,3,0.02,same
0,783,valid,"[(1158, 803)]",[],[1],[0.6],horizontal,"(390.0, 762.0)",1.3166666666666667,0.559,1,13512.258,3,0.02,same
0,784,valid,"[(1158, 789)]",[],[1],[0.7],vertical,"(390.0, 762.0)",0.4666666666666667,0.654,1,13518.197,3,0.02,same
0,785,catch,"[(1139, 797)]",[],[1],[],horizontal,"(890.0, 762.0)",1.7,nan,1,13523.696,3,0.02,same
0,786,catch,"[(1158, 794)]",[],[1],[],vertical,"(890.0, 262.0)",1.7,nan,1,13529.7,3,0.02,same
0,787,valid,"[(1163, 782)]",[],[1],[0.55],vertical,"(390.0, 262.0)",0.9833333333333333,0.506,1,13535.201,3,0.02,same
0,788,valid,"[(1159, 781)]",[],[1],[0.6666666666666666],vertical,"(890.0, 262.0)",1.2333333333333334,0.625,1,13540.975,3,0.02,same
0,789,valid,"[(1158, 803)]",[],[1],[0.5],horizontal,"(890.0, 262.0)",1.4166666666666667,0.464,1,13546.696,3,0.02,same
0,790,invalid_same_bar,"[(1162, 783)]",[],[1],[0.6],vertical,"(390.0, 762.0)",0.6333333333333333,0.558,1,13553.545,3,0.02,same
0,791,catch,"[(1141, 776)]",[],[1],[],vertical,"(390.0, 262.0)",1.7,nan,1,13558.984,3,0.02,same
0,792,catch,"[(1170, 808)]",[],[1],[],vertical,"(390.0, 762.0)",1.7,nan,1,13565.001,3,0.02,same
0,793,valid,"[(1170, 767)]",[],[1],[0.45],vertical,"(390.0, 762.0)",1.45,0.413,1,13570.793,3,0.02,same
0,794,valid,"[(1174, 796)]",[],[1],[0.6],vertical,"(890.0, 762.0)",0.9,0.558,1,13577.085,3,0.02,same
0,795,catch,"[(1158, 815)]",[],[1],[],horizontal,"(890.0, 262.0)",1.7,nan,1,13582.785,3,0.02,same
0,796,valid,"[(1163, 782)]",[],[1],[0.55],vertical,"(890.0, 762.0)",1.1166666666666667,0.507,1,13588.336,3,0.02,same
0,797,valid,"[(1140, 786)]",[],[1],[0.55],horizontal,"(890.0, 762.0)",1.0833333333333333,0.503,1,13594.063,3,0.02,same
0,798,catch,"[(1158, 779)]",[],[1],[],horizontal,"(890.0, 262.0)",1.7,nan,1,13599.543,3,0.02,same
0,799,valid,"[(1163, 788)]",[],[1],[0.65],horizontal,"(890.0, 262.0)",0.7,0.606,1,13605.819,3,0.0,same
0,800,invalid_adjacent_other_bar,"[(1170, 796)]",[],[1],[0.7666666666666666],horizontal,"(890.0, 762.0)",1.0833333333333333,0.717,1,13611.118,3,0.0,other
0,801,valid,"[(1174, 782)]",[],[1],[0.5166666666666666],horizontal,"(890.0, 262.0)",0.5166666666666666,0.477,1,13617.223,3,0.0,same
0,802,valid,"[(1145, 788)]",[],[1],[0.65],horizontal,"(390.0, 262.0)",0.4,0.601,1,13622.743,3,0.0,same
0,803,catch,"[(1140, 782)]",[],[1],[],vertical,"(890.0, 762.0)",1.7,nan,1,13627.83,3,0.0,same
0,804,catch,"[(1173, 817)]",[],[1],[],horizontal,"(390.0, 262.0)",1.7,nan,1,13634.119,3,0.0,same
0,805,valid,"[(1136, 816)]",[],[1],[0.8333333333333334],vertical,"(890.0, 762.0)",0.7666666666666666,0.788,1,13640.0,3,0.0,same
0,806,valid,"[(1161, 795)]",[],[1],[0.85],vertical,"(890.0, 762.0)",0.45,nan,0,13645.766,0,0.0,same
0,807,valid,"[(1144, 806)]",[],[1],[0.6],horizontal,"(390.0, 262.0)",1.35,0.554,1,13650.226,1,0.0,same
0,808,valid,"[(1172, 780)]",[],[1],[0.5333333333333333],horizontal,"(890.0, 262.0)",1.1833333333333333,0.488,1,13655.496,1,0.0,same
0,809,valid,"[(1150, 779)]",[],[1],[],horizontal,"(390.0, 262.0)",,"('cti', 1.288)",0,13660.496,0,0.0,same
0,810,valid,"[(1135, 833)]",[],[1],[0.85],vertical,"(390.0, 762.0)",0.36666666666666664,nan,0,13665.201,0,0.0,same
0,811,valid,"[(1132, 811)]",[],[1],[0.5],vertical,"(390.0, 262.0)",0.8,0.467,1,13673.38,1,0.0,same
0,812,valid,"[(1165, 806)]",[],[1],[0.5333333333333333],horizontal,"(390.0, 762.0)",0.9833333333333333,0.489,1,13678.667,1,0.0,same
0,813,valid,"[(1160, 777)]",[],[1],[0.85],vertical,"(890.0, 262.0)",0.7666666666666666,nan,0,13683.917,0,0.0,same
0,814,valid,"[(1130, 832)]",[],[1],[0.5333333333333333],vertical,"(890.0, 262.0)",0.8166666666666667,0.494,1,13688.669,1,0.0,same
0,815,valid,"[(1157, 798)]",[],[1],[0.7166666666666667],vertical,"(390.0, 262.0)",0.4,0.671,1,13701.438,1,0.0,same
0,816,valid,"[(1176, 807)]",[],[1],[0.85],horizontal,"(890.0, 262.0)",1.0666666666666667,nan,0,13705.919,0,0.0,same
0,817,valid,"[(1156, 816)]",[],[1],[0.6333333333333333],vertical,"(390.0, 762.0)",0.7166666666666667,0.591,1,13711.051,1,0.0,same
0,818,valid,"[(1159, 794)]",[],[1],[0.6833333333333333],horizontal,"(390.0, 762.0)",1.15,0.641,1,13715.534,1,0.0,same
0,819,catch,"[(1159, 786)]",[],[1],[],vertical,"(890.0, 262.0)",1.7,nan,1,13720.884,1,0.0,same
0,820,valid,"[(1167, 801)]",[],[1],[0.7],vertical,"(890.0, 762.0)",1.0333333333333332,0.653,1,13726.127,2,0.0,same
0,821,valid,"[(1159, 776)]",[],[1],[0.5833333333333334],horizontal,"(890.0, 262.0)",1.4666666666666666,0.544,1,13731.86,2,0.0,same
0,822,valid,"[(1160, 779)]",[],[1],[0.85],horizontal,"(890.0, 762.0)",0.6166666666666667,nan,0,13737.684,0,0.0,same
0,823,valid,"[(1157, 786)]",[],[1],[0.8166666666666667],horizontal,"(890.0, 262.0)",1.2666666666666666,0.767,1,13742.068,1,0.0,same
0,824,valid,"[(1165, 789)]",[],[1],[0.5],vertical,"(890.0, 262.0)",0.45,0.473,1,13747.751,1,0.0,same
0,825,valid,"[(1165, 796)]",[],[1],[0.5333333333333333],horizontal,"(390.0, 262.0)",0.4166666666666667,0.494,1,13752.257,1,0.0,same
0,826,valid,"[(1159, 786)]",[],[1],[0.55],vertical,"(890.0, 762.0)",0.9166666666666666,0.514,1,13756.619,2,0.0,same
0,827,valid,"[(1165, 781)]",[],[1],[0.6],horizontal,"(390.0, 262.0)",0.4666666666666667,0.56,1,13762.358,2,0.0,same
0,828,valid,"[(1157, 783)]",[],[1],[0.5666666666666667],horizontal,"(890.0, 262.0)",0.6,0.524,1,13767.586,2,0.0,same
0,829,valid,"[(1173, 791)]",[],[1],[0.6333333333333333],horizontal,"(890.0, 762.0)",1.35,0.595,1,13772.918,3,0.0,same
0,830,catch,"[(1157, 787)]",[],[1],[],horizontal,"(390.0, 262.0)",1.7,nan,1,13778.918,3,0.0,same
0,831,valid,"[(1160, 811)]",[],[1],[0.7666666666666666],horizontal,"(890.0, 762.0)",1.4833333333333334,0.719,1,13784.785,3,0.0,same
0,832,catch,"[(1159, 785)]",[],[1],[],horizontal,"(890.0, 762.0)",1.7,nan,1,13790.768,3,0.0,same
0,833,valid,"[(1166, 792)]",[],[1],[0.7166666666666667],vertical,"(390.0, 262.0)",0.5166666666666666,0.682,1,13796.818,3,0.0,same
0,834,valid,"[(1160, 787)]",[],[1],[0.6666666666666666],horizontal,"(890.0, 762.0)",0.7833333333333333,0.622,1,13802.07,3,0.0,same
0,835,catch,"[(1163, 786)]",[],[1],[],horizontal,"(890.0, 262.0)",1.7,nan,1,13807.519,3,0.0,same
0,836,valid,"[(1154, 783)]",[],[1],[0.5333333333333333],vertical,"(890.0, 262.0)",0.7833333333333333,0.497,1,13813.306,3,0.0,same
0,837,catch,"[(1158, 793)]",[],[1],[],horizontal,"(890.0, 762.0)",1.7,"('cti', 1.689),nan",0,13819.098,0,0.02,same
0,838,valid,"[(1135, 816)]",[],[1],[0.65],vertical,"(390.0, 262.0)",0.6666666666666666,0.617,1,13823.952,1,0.02,same
0,839,catch,"[(1125, 804)]",[],[1],[],horizontal,"(390.0, 262.0)",1.7,nan,1,13828.703,1,0.02,same
0,840,valid,"[(1165, 795)]",[],[1],[0.85],vertical,"(890.0, 262.0)",0.9,nan,0,13834.419,0,0.02,same
0,841,valid,"[(1141, 813)]",[],[1],[0.4166666666666667],vertical,"(390.0, 762.0)",1.4833333333333334,0.378,1,13839.134,1,0.02,same
0,842,valid,"[(1159, 756)]",[],[1],[0.5833333333333334],horizontal,"(890.0, 762.0)",0.7833333333333333,0.544,1,13844.802,1,0.02,same
0,843,catch,"[(1140, 815)]",[],[1],[],vertical,"(890.0, 762.0)",1.7,nan,1,13849.618,1,0.02,same
0,844,valid,"[(1165, 796)]",[],[1],[0.85],vertical,"(390.0, 262.0)",0.6833333333333333,nan,0,13855.268,0,0.02,same
0,845,valid,"[(1128, 778)]",[],[1],[0.5833333333333334],vertical,"(890.0, 762.0)",1.1333333333333333,0.54,1,13859.953,1,0.02,same
0,846,valid,"[(1170, 777)]",[],[1],[0.6333333333333333],horizontal,"(890.0, 262.0)",1.1,0.593,1,13864.86,1,0.02,same
0,847,valid,"[(1121, 824)]",[],[1],[0.5],horizontal,"(890.0, 262.0)",1.0333333333333332,0.46,1,13870.175,1,0.02,same
0,848,valid,"[(1161, 784)]",[],[1],[0.5833333333333334],vertical,"(890.0, 762.0)",0.6,0.541,1,13875.585,2,0.02,same
0,849,valid,"[(1155, 788)]",[],[1],[0.6],vertical,"(390.0, 762.0)",0.85,0.555,1,13880.553,2,0.02,same
0,850,valid,"[(1159, 774)]",[],[1],[0.6833333333333333],horizontal,"(390.0, 262.0)",0.9833333333333333,0.642,1,13885.486,2,0.02,same
0,851,valid,"[(1160, 801)]",[],[1],[0.5833333333333334],horizontal,"(390.0, 762.0)",0.6166666666666667,0.543,1,13891.436,3,0.02,same
0,852,valid,"[(1162, 781)]",[],[1],[0.55],vertical,"(390.0, 762.0)",1.15,0.517,1,13897.192,3,0.02,same
0,853,valid,"[(1152, 785)]",[],[1],[0.5333333333333333],horizontal,"(390.0, 262.0)",1.0166666666666666,0.493,1,13903.103,3,0.02,same
0,854,valid,"[(1149, 789)]",[],[1],[0.5166666666666666],horizontal,"(390.0, 762.0)",1.4166666666666667,0.483,1,13908.963,3,0.02,same
0,855,valid,"[(1159, 786)]",[],[1],[0.5833333333333334],horizontal,"(390.0, 262.0)",0.75,0.545,1,13914.803,3,0.02,same
0,856,catch,"[(1160, 790)]",[],[1],[],horizontal,"(890.0, 262.0)",1.7,nan,1,13920.385,3,0.02,same
0,857,catch,"[(1165, 793)]",[],[1],[],vertical,"(890.0, 762.0)",1.7,nan,1,13926.157,3,0.02,same
0,858,catch,"[(1160, 807)]",[],[1],[],vertical,"(390.0, 762.0)",,"('cti', 1.649),nan",0,13932.138,0,0.04,same
0,859,valid,"[(1150, 790)]",[],[1],[0.6333333333333333],vertical,"(390.0, 262.0)",0.9333333333333333,0.588,1,13936.895,1,0.04,same
0,860,valid,"[(1161, 786)]",[],[1],[0.6333333333333333],vertical,"(390.0, 262.0)",0.7833333333333333,0.589,1,13941.7,1,0.04,same
0,861,catch,"[(1173, 805)]",[],[1],[],horizontal,"(890.0, 262.0)",1.7,nan,1,13946.751,1,0.04,same
0,862,catch,"[(1158, 790)]",[],[1],[],vertical,"(390.0, 262.0)",1.7,nan,1,13952.703,2,0.04,same
0,863,valid,"[(1160, 776)]",[],[1],[0.5666666666666667],vertical,"(890.0, 762.0)",1.0833333333333333,0.52,1,13958.128,2,0.04,same
