block,practice,trial,change_interval_s,change_interval_frames,taps_start_time_during_fix,taps_end_time_during_fix,taps_start_loc_during_fix,taps_end_loc_during_fix,taps_on_lever_during_fix,taps_on_lever_frame_during_fix,taps_on_lever_s_during_fix,fix_xy,bar_orientation,target_xy,cti,rt,acc,time
1,True,1,0.665,39,[],[],"[(1194, 879)]",[],[1],[54],[0.9],"[640.0, 512.0]",vertical,"(390.0, 262.0)",[1.0833333333333333],[0.235],1,0.554
1,True,2,0.606,36,[],[],"[(214, 432), (25, 469), (1184, 894)]",[],"[0, 0, 1]",[68],[1.1333333333333333],"[640.0, 512.0]",horizontal,"(390.0, 262.0)",[0.8333333333333334],[0.508],1,120.937
1,True,3,0.787,47,[],[],"[(440, 501), (1196, 887)]",[],"[0, 1]",[],[],"[640.0, 512.0]",vertical,"(890.0, 262.0)",[],[0],0,125.743
1,True,4,0.607,36,[],[],"[(348, 540), (1113, 931)]",[],"[0, 1]",[],[],"[640.0, 512.0]",horizontal,"(390.0, 262.0)",[],[0],0,128.507
1,False,1,0.892,53,[],[],"[(336, 569), (167, 569), (379, 579), (282, 607), (275, 648), (62, 626), (62, 628), (282, 445), (200, 564), (263, 664), (196, 665), (312, 674), (648, 684), (790, 469), (775, 693), (866, 645), (794, 642), (1038, 631), (790, 708), (1246, 893), (898, 674), (1179, 862)]",[],"[0, 0, 0, 0, 0, 0, 0, 0, 0, 0, 0, 0, 0, 0, 0, 0, 0, 0, 0, 0, 0, 1]",[],[],"[640.0, 512.0]",vertical,"(390.0, 762.0)",[],[0],0,131.24
1,False,2,0.601,36,[],[],"[(782, 722), (873, 731), (776, 727), (1163, 900)]",[],"[0, 0, 0, 1]",[46],[0.7666666666666666],"[640.0, 512.0]",horizontal,"(390.0, 762.0)",[1.0333333333333332],[0.152],1,166.845
1,False,3,1.066,63,[],[],"[(989, 756), (1110, 920)]",[],"[0, 1]",[93],[1.55],"[640.0, 512.0]",vertical,"(890.0, 262.0)",[0.7666666666666666],[0.472],1,172.613
1,False,4,0.863,51,[],[],"[(1166, 900)]",[],[1],[83],[1.3833333333333333],"[640.0, 512.0]",horizontal,"(390.0, 262.0)",[1.1166666666666667],[0.507],1,177.94
1,False,5,0.557,33,[],[],"[(513, 593), (1020, 452), (739, 598), (1160, 894)]",[],"[0, 0, 0, 1]",[67],[1.1166666666666667],"[640.0, 512.0]",vertical,"(890.0, 262.0)",[0.8],[0.552],1,181.899
1,False,6,1.149,68,[],[],"[(1156, 862)]",[],[1],[118],[1.9666666666666666],"[640.0, 512.0]",vertical,"(890.0, 762.0)",[0.5],[0.805],0,187.776
1,False,7,1.461,87,[],[],"[(1179, 886)]",[],[1],[],[],"[640.0, 512.0]",vertical,"(390.0, 262.0)",[],[0],0,191.744
1,False,8,0.614,36,[],[],"[(434, 990), (818, 979), (353, 1009), (259, 370), (464, 363), (501, 358), (379, 353), (568, 313), (455, 330), (348, 387), (663, 172), (350, 498), (568, 378), (501, 388), (642, 215), (1166, 913)]",[],"[0, 0, 0, 0, 0, 0, 0, 0, 0, 0, 0, 0, 0, 0, 0, 1]",[72],[1.2],"[640.0, 512.0]",horizontal,"(390.0, 762.0)",[0.9833333333333333],[0.574],1,196.265
1,False,9,0.436,26,[],[],"[(1139, 877)]",[],[1],[59],[0.9833333333333333],"[640.0, 512.0]",vertical,"(390.0, 262.0)",[1.1666666666666667],[0.522],1,216.919
1,False,10,0.574,34,[],[],"[(1172, 876)]",[],[1],[64],[1.0666666666666667],"[640.0, 512.0]",vertical,"(390.0, 262.0)",[1.2666666666666666],[0.483],1,220.548
1,False,11,1.191,71,[],[],"[(1142, 877)]",[],[1],[97],[1.6166666666666667],"[640.0, 512.0]",vertical,"(390.0, 262.0)",[1.1333333333333333],[0.407],1,224.378
1,False,12,1.047,62,[],[],"[(446, 465), (1133, 898)]",[],"[0, 1]",[98],[1.6333333333333333],"[640.0, 512.0]",horizontal,"(390.0, 762.0)",[0.7833333333333333],[0.576],1,228.731
1,False,13,1.269,76,[],[],"[(1129, 883)]",[],[1],[105],[1.75],"[640.0, 512.0]",vertical,"(390.0, 262.0)",[1.3],[0.455],1,233.715
1,False,14,0.948,56,[],[],"[(1140, 880)]",[],[1],[91],[1.5166666666666666],"[640.0, 512.0]",vertical,"(390.0, 762.0)",[0.5],[0.561],1,238.381
1,False,15,0.594,35,[],[],"[(1137, 903)]",[],[1],[66],[1.1],"[640.0, 512.0]",vertical,"(390.0, 262.0)",[1.4833333333333334],[0.492],1,241.875
1,False,16,0.948,56,[],[],"[(1133, 898)]",[],[1],[106],[1.7666666666666666],"[640.0, 512.0]",vertical,"(890.0, 262.0)",[1.2],[0.808],0,245.96
1,False,17,0.93,55,[],[],"[(1216, 885)]",[],[1],[100],[1.6666666666666667],"[640.0, 512.0]",horizontal,"(390.0, 762.0)",[0.9],[0.714],1,250.41
1,False,18,0.754,45,[],[],"[(1169, 878)]",[],[1],[84],[1.4],"[640.0, 512.0]",horizontal,"(390.0, 762.0)",[0.55],[0.619],1,255.994
1,False,19,1.348,80,[],[],"[(1152, 890)]",[],[1],[121],[2.0166666666666666],"[640.0, 512.0]",horizontal,"(890.0, 762.0)",[1.4166666666666667],[0.651],1,259.394
1,False,20,1.309,78,[],[],"[(1142, 862)]",[],[1],[113],[1.8833333333333333],"[640.0, 512.0]",horizontal,"(890.0, 762.0)",[1.35],[0.56],1,264.246
1,False,21,0.341,20,[],[],"[(1133, 881)]",[],[1],[52],[0.8666666666666667],"[640.0, 512.0]",vertical,"(390.0, 262.0)",[0.7166666666666667],[0.51],1,268.906
1,False,22,0.768,46,[],[],"[(582, 345), (1227, 905)]",[],"[0, 1]",[83],[1.3833333333333333],"[640.0, 512.0]",vertical,"(390.0, 762.0)",[1.5],[0.601],1,272.063
1,False,23,0.782,46,[],[],"[(1133, 908)]",[],[1],[96],[1.6],"[640.0, 512.0]",vertical,"(390.0, 262.0)",[0.6666666666666666],[0.82],0,299.862
1,False,24,1.482,88,[],[],"[(1105, 902)]",[],[1],[120],[2.0],"[640.0, 512.0]",horizontal,"(390.0, 262.0)",[0.7],[0.521],1,303.726
1,False,25,1.093,65,[],[],"[(1132, 889)]",[],[1],[96],[1.6],"[640.0, 512.0]",vertical,"(390.0, 262.0)",[1.2833333333333332],[0.498],1,308.022
1,False,26,0.704,42,[],[],"[(1135, 884)]",[],[1],[75],[1.25],"[640.0, 512.0]",horizontal,"(890.0, 262.0)",[0.8166666666666667],[0.537],1,312.429
1,False,27,1.359,81,[],[],"[(1166, 899)]",[],[1],[116],[1.9333333333333333],"[640.0, 512.0]",vertical,"(390.0, 762.0)",[0.7],[0.572],1,316.011
1,False,28,0.508,30,[],[],"[(1172, 895)]",[],[1],[66],[1.1],"[640.0, 512.0]",horizontal,"(890.0, 762.0)",[0.7333333333333333],[0.585],1,320.168
1,False,29,1.166,69,[],[],"[(1164, 889)]",[],[1],[104],[1.7333333333333334],"[640.0, 512.0]",vertical,"(390.0, 262.0)",[1.1666666666666667],[0.567],1,323.517
1,False,30,0.604,36,[],[],"[(1146, 910)]",[],[1],[80],[1.3333333333333333],"[640.0, 512.0]",vertical,"(890.0, 762.0)",[0.8666666666666667],[0.723],1,327.935
1,False,31,0.785,47,[],[],"[(1142, 879)]",[],[1],[88],[1.4666666666666666],"[640.0, 512.0]",vertical,"(890.0, 262.0)",[0.6333333333333333],[0.673],1,331.664
1,False,32,0.728,43,[],[],"[(1153, 872)]",[],[1],[77],[1.2833333333333332],"[640.0, 512.0]",vertical,"(890.0, 762.0)",[1.45],[0.539],1,339.262
1,False,33,1.412,84,[],[],"[(1175, 882)]",[],[1],[134],[2.2333333333333334],"[640.0, 512.0]",vertical,"(890.0, 762.0)",[0.75],[0.803],0,343.434
1,False,34,0.462,27,[],[],"[(1187, 882)]",[],[1],[72],[1.2],"[640.0, 512.0]",horizontal,"(890.0, 262.0)",[0.7833333333333333],[0.727],1,347.932
1,False,35,0.889,53,[],[],"[(1148, 887)]",[],[1],[88],[1.4666666666666666],"[640.0, 512.0]",horizontal,"(890.0, 262.0)",[1.0333333333333332],[0.558],1,351.427
1,False,36,0.737,44,[],[],"[(1134, 884)]",[],[1],[94],[1.5666666666666667],"[640.0, 512.0]",vertical,"(890.0, 262.0)",[1.0166666666666666],[0.805],0,355.419
1,False,37,0.574,34,[],[],"[(1150, 879)]",[],[1],[84],[1.4],"[640.0, 512.0]",horizontal,"(390.0, 762.0)",[1.3166666666666667],[0.799],0,359.455
1,False,38,0.763,45,[],[],"[(1129, 892)]",[],[1],[80],[1.3333333333333333],"[640.0, 512.0]",vertical,"(390.0, 762.0)",[0.8],[0.555],1,364.01
1,False,39,1.056,63,[],[],"[(1141, 891)]",[],[1],[96],[1.6],"[640.0, 512.0]",horizontal,"(890.0, 262.0)",[1.4833333333333334],[0.521],1,367.827
1,False,40,0.386,23,[],[],"[(1144, 879)]",[],[1],[64],[1.0666666666666667],"[640.0, 512.0]",horizontal,"(390.0, 762.0)",[1.2666666666666666],[0.652],1,372.383
1,False,41,0.676,40,[],[],"[(1130, 903)]",[],[1],[82],[1.3666666666666667],"[640.0, 512.0]",vertical,"(390.0, 762.0)",[0.75],[0.666],1,376.211
1,False,42,0.86,51,[],[],"[(1108, 899)]",[],[1],[101],[1.6833333333333333],"[640.0, 512.0]",vertical,"(890.0, 262.0)",[0.6],[0.799],0,379.778
1,False,43,0.673,40,[],[],"[(1146, 913)]",[],[1],[71],[1.1833333333333333],"[640.0, 512.0]",vertical,"(890.0, 262.0)",[1.1166666666666667],[0.489],1,383.549
1,False,44,1.394,83,[],[],"[(1123, 917)]",[],[1],[133],[2.216666666666667],"[640.0, 512.0]",vertical,"(890.0, 762.0)",[1.5],[0.797],0,393.181
1,False,45,0.671,40,[],[],"[(1093, 902)]",[],[1],[90],[1.5],"[640.0, 512.0]",vertical,"(390.0, 762.0)",[1.0833333333333333],[0.795],0,398.395
1,False,46,1.008,60,[],[],"[(1109, 908)]",[],[1],[110],[1.8333333333333333],"[640.0, 512.0]",vertical,"(390.0, 262.0)",[1.1666666666666667],[0.798],0,403.382
1,False,47,0.339,20,[],[],"[(1164, 910)]",[],[1],[70],[1.1666666666666667],"[640.0, 512.0]",horizontal,"(390.0, 262.0)",[0.9333333333333333],[0.802],0,408.886
1,False,48,1.199,71,[],[],"[(1108, 866)]",[],[1],[121],[2.0166666666666666],"[640.0, 512.0]",horizontal,"(890.0, 262.0)",[1.2166666666666666],[0.803],0,412.556
1,False,49,1.241,74,[],[],"[(1125, 898)]",[],[1],[105],[1.75],"[640.0, 512.0]",vertical,"(890.0, 262.0)",[0.6],[0.491],1,418.543
1,False,50,0.986,59,[],[],"[(1116, 883)]",[],[1],[109],[1.8166666666666667],"[640.0, 512.0]",vertical,"(390.0, 262.0)",[0.9166666666666666],[0.8],0,423.869
1,False,51,1.412,84,[],[],"[(1112, 907)]",[],[1],[134],[2.2333333333333334],"[640.0, 512.0]",horizontal,"(890.0, 762.0)",[0.9666666666666667],[0.796],0,428.058
1,False,52,0.466,27,[],[],"[(1131, 879)]",[],[1],[68],[1.1333333333333333],"[640.0, 512.0]",horizontal,"(890.0, 762.0)",[0.7833333333333333],[0.65],1,432.978
1,False,53,0.42,25,[],[],"[(1170, 884)]",[],[1],[75],[1.25],"[640.0, 512.0]",horizontal,"(890.0, 762.0)",[1.1666666666666667],[0.796],0,437.398
1,False,54,0.342,20,[],[],"[(1129, 911)]",[],[1],[70],[1.1666666666666667],"[640.0, 512.0]",horizontal,"(890.0, 262.0)",[0.8333333333333334],[0.805],0,443.365
1,False,55,0.572,34,[],[],"[(1184, 882)]",[],[1],[84],[1.4],"[640.0, 512.0]",horizontal,"(890.0, 262.0)",[1.6333333333333333],[0.797],0,448.379
1,False,56,1.354,81,[],[],"[(629, 770), (1155, 894)]",[],"[0, 1]",[116],[1.9333333333333333],"[640.0, 512.0]",horizontal,"(390.0, 762.0)",[0.95],[0.551],1,452.918
1,False,57,0.901,54,[],[],"[(1154, 887)]",[],[1],[86],[1.4333333333333333],"[640.0, 512.0]",horizontal,"(890.0, 262.0)",[1.65],[0.51],1,469.236
1,False,58,1.056,63,[],[],"[(1145, 894)]",[],[1],[113],[1.8833333333333333],"[640.0, 512.0]",horizontal,"(390.0, 762.0)",[1.05],[0.797],0,473.769
1,False,59,0.649,38,[],[],"[(1088, 899)]",[],[1],[78],[1.3],"[640.0, 512.0]",vertical,"(890.0, 762.0)",[0.75],[0.634],1,478.166
1,False,60,0.467,28,[],[],"[(1098, 883)]",[],[1],[78],[1.3],"[640.0, 512.0]",vertical,"(390.0, 762.0)",[0.9],[0.798],0,482.041
2,False,61,0.477,28,[],[],"[(1178, 892)]",[],[1],[64],[1.0666666666666667],"[640.0, 512.0]",horizontal,"(890.0, 762.0)",[0.6],[0.575],1,485.7
2,False,62,0.633,37,[],[],"[(1123, 903)]",[],[1],[73],[1.2166666666666666],"[640.0, 512.0]",horizontal,"(390.0, 762.0)",[0.9],[0.576],1,488.872
2,False,63,1.055,63,[],[],"[(1130, 903)]",[],[1],[101],[1.6833333333333333],"[640.0, 512.0]",horizontal,"(390.0, 762.0)",[0.6666666666666666],[0.605],1,492.456
2,False,64,0.311,18,[],[],"[(1123, 886)]",[],[1],[68],[1.1333333333333333],"[640.0, 512.0]",horizontal,"(890.0, 762.0)",[1.5666666666666667],[0.794],0,496.247
2,False,65,1.307,78,[],[],"[(1175, 862)]",[],[1],[110],[1.8333333333333333],"[640.0, 512.0]",vertical,"(390.0, 762.0)",[1.05],[0.506],1,500.383
2,False,66,1.212,72,[],[],"[(1111, 883)]",[],[1],[101],[1.6833333333333333],"[640.0, 512.0]",vertical,"(390.0, 262.0)",[1.6],[0.459],1,506.507
2,False,67,0.86,51,[],[],"[(1126, 901)]",[],[1],[85],[1.4166666666666667],"[640.0, 512.0]",horizontal,"(390.0, 262.0)",[1.4333333333333333],[0.545],1,511.267
2,False,68,1.071,64,[],[],"[(1152, 880)]",[],[1],[114],[1.9],"[640.0, 512.0]",horizontal,"(890.0, 262.0)",[1.2833333333333332],[0.798],0,515.599
2,False,69,0.361,21,[],[],"[(1210, 878)]",[],[1],[53],[0.8833333333333333],"[640.0, 512.0]",vertical,"(390.0, 762.0)",[0.9666666666666667],[0.505],1,520.263
2,False,70,0.884,53,[],[],"[(1153, 875)]",[],[1],[87],[1.45],"[640.0, 512.0]",vertical,"(890.0, 762.0)",[0.5666666666666667],[0.536],1,527.162
2,False,71,1.077,64,[],[],"[(1148, 892)]",[],[1],[102],[1.7],"[640.0, 512.0]",horizontal,"(390.0, 262.0)",[1.0666666666666667],[0.606],1,530.662
2,False,72,0.339,20,[],[],"[(1145, 893)]",[],[1],[62],[1.0333333333333332],"[640.0, 512.0]",horizontal,"(890.0, 262.0)",[0.7833333333333333],[0.669],1,534.912
2,False,73,0.866,51,[],[],"[(1106, 892)]",[],[1],[101],[1.6833333333333333],"[640.0, 512.0]",horizontal,"(890.0, 762.0)",[1.2666666666666666],[0.801],0,538.199
2,False,74,0.788,47,[],[],"[(1136, 889)]",[],[1],[97],[1.6166666666666667],"[640.0, 512.0]",horizontal,"(390.0, 762.0)",[1.3666666666666667],[0.804],0,542.592
2,False,75,0.808,48,[],[],"[(1148, 888)]",[],[1],[98],[1.6333333333333333],"[640.0, 512.0]",horizontal,"(390.0, 762.0)",[1.1],[0.8],0,547.245
2,False,76,1.234,74,[],[],"[(1110, 899)]",[],[1],[124],[2.0666666666666664],"[640.0, 512.0]",vertical,"(890.0, 762.0)",[0.7333333333333333],[0.797],0,551.484
2,False,77,0.433,25,[],[],"[(1184, 903)]",[],[1],[65],[1.0833333333333333],"[640.0, 512.0]",horizontal,"(390.0, 262.0)",[0.8],[0.638],1,556.065
2,False,78,1.031,61,[],[],"[(1136, 892)]",[],[1],[95],[1.5833333333333333],"[640.0, 512.0]",vertical,"(390.0, 762.0)",[0.8833333333333333],[0.545],1,559.458
2,False,79,1.425,85,[],[],"[(1130, 885)]",[],[1],[135],[2.25],"[640.0, 512.0]",horizontal,"(390.0, 762.0)",[1.5166666666666666],[0.8],0,563.381
2,False,80,0.955,57,[],[],"[(666, 411), (660, 407), (659, 407), (660, 407), (1153, 870)]",[],"[0, 0, 0, 0, 1]",[91],[1.5166666666666666],"[640.0, 512.0]",horizontal,"(890.0, 262.0)",[0.65],[0.543],1,568.579
2,False,81,0.594,35,[],[],"[(1143, 902)]",[],[1],[85],[1.4166666666666667],"[640.0, 512.0]",horizontal,"(390.0, 262.0)",[1.0333333333333332],[0.803],0,600.666
2,False,82,1.407,84,[],[],"[(1162, 876)]",[],[1],[134],[2.2333333333333334],"[640.0, 512.0]",vertical,"(390.0, 762.0)",[0.95],[0.801],0,604.646
2,False,83,1.064,63,[],[],"[(1151, 888)]",[],[1],[94],[1.5666666666666667],"[640.0, 512.0]",vertical,"(390.0, 262.0)",[1.3166666666666667],[0.494],1,609.349
2,False,84,0.753,45,[],[],"[(1153, 884)]",[],[1],[79],[1.3166666666666667],"[640.0, 512.0]",vertical,"(390.0, 762.0)",[1.0333333333333332],[0.543],1,613.712
2,False,85,0.533,31,[],[],"[(1105, 881)]",[],[1],[68],[1.1333333333333333],"[640.0, 512.0]",horizontal,"(890.0, 762.0)",[0.8],[0.594],1,617.515
2,False,86,1.196,71,[],[],"[(1148, 908)]",[],[1],[104],[1.7333333333333334],"[640.0, 512.0]",horizontal,"(890.0, 762.0)",[1.5333333333333332],[0.531],1,620.943
2,False,87,1.166,69,[],[],"[(1133, 897)]",[],[1],[99],[1.65],"[640.0, 512.0]",vertical,"(390.0, 262.0)",[1.1],[0.474],1,625.663
2,False,88,1.267,76,[],[],"[(1130, 873)]",[],[1],[105],[1.75],"[640.0, 512.0]",vertical,"(390.0, 262.0)",[1.4333333333333333],[0.459],1,629.896
2,False,89,0.842,50,[],[],"[(1142, 894)]",[],[1],[87],[1.45],"[640.0, 512.0]",vertical,"(890.0, 262.0)",[1.3833333333333333],[0.597],1,634.53
2,False,90,1.003,60,[],[],"[(1109, 874)]",[],[1],[92],[1.5333333333333332],"[640.0, 512.0]",horizontal,"(390.0, 262.0)",[1.3333333333333333],[0.512],1,638.829
2,False,91,0.875,52,[],[],"[(1121, 892)]",[],[1],[83],[1.3833333333333333],"[640.0, 512.0]",vertical,"(390.0, 762.0)",[0.8333333333333334],[0.492],1,643.168
2,False,92,1.373,82,[],[],"[(1142, 905)]",[],[1],[121],[2.0166666666666666],"[640.0, 512.0]",horizontal,"(890.0, 762.0)",[0.5666666666666667],[0.623],1,646.85
2,False,93,0.694,41,[],[],"[(1098, 899)]",[],[1],[74],[1.2333333333333334],"[640.0, 512.0]",vertical,"(890.0, 262.0)",[1.5166666666666666],[0.526],1,650.908
2,False,94,0.403,24,[],[],"[(1140, 885)]",[],[1],[73],[1.2166666666666666],"[640.0, 512.0]",vertical,"(890.0, 262.0)",[0.5333333333333333],[0.786],1,656.376
2,False,95,1.198,71,[],[],"[(1117, 903)]",[],[1],[103],[1.7166666666666666],"[640.0, 512.0]",horizontal,"(390.0, 762.0)",[0.9333333333333333],[0.504],1,659.597
2,False,96,1.369,82,[],[],"[(1096, 895)]",[],[1],[117],[1.95],"[640.0, 512.0]",vertical,"(890.0, 262.0)",[0.8166666666666667],[0.558],1,663.75
2,False,97,1.016,60,[],[],"[(1136, 901)]",[],[1],[92],[1.5333333333333332],"[640.0, 512.0]",vertical,"(390.0, 762.0)",[1.4166666666666667],[0.508],1,668.007
2,False,98,1.236,74,[],[],"[(1118, 888)]",[],[1],[108],[1.8],"[640.0, 512.0]",vertical,"(390.0, 762.0)",[1.2333333333333334],[0.542],1,672.44
2,False,99,1.057,63,[],[],"[(1111, 888)]",[],[1],[93],[1.55],"[640.0, 512.0]",vertical,"(890.0, 262.0)",[1.0666666666666667],[0.482],1,676.974
2,False,100,0.832,49,[],[],"[(1129, 893)]",[],[1],[85],[1.4166666666666667],"[640.0, 512.0]",horizontal,"(390.0, 762.0)",[1.6],[0.575],1,681.063
2,False,101,1.297,77,[],[],"[(1146, 885)]",[],[1],[],[],"[640.0, 512.0]",vertical,"(390.0, 262.0)",[],[0],0,685.518
2,False,102,0.704,42,[],[],"[(1136, 889)]",[],[1],[75],[1.25],"[640.0, 512.0]",vertical,"(890.0, 762.0)",[1.15],[0.521],1,689.123
2,False,103,0.353,21,[],[],"[(1130, 896)]",[],[1],[64],[1.0666666666666667],"[640.0, 512.0]",vertical,"(890.0, 762.0)",[1.05],[0.694],1,693.429
2,False,104,0.635,38,[],[],"[(1138, 893)]",[],[1],[76],[1.2666666666666666],"[640.0, 512.0]",horizontal,"(390.0, 762.0)",[0.65],[0.616],1,696.988
2,False,105,1.018,61,[],[],"[(1153, 889)]",[],[1],[93],[1.55],"[640.0, 512.0]",vertical,"(890.0, 762.0)",[1.0666666666666667],[0.509],1,700.462
2,False,106,0.305,18,[],[],"[(1142, 901)]",[],[1],[50],[0.8333333333333334],"[640.0, 512.0]",vertical,"(890.0, 762.0)",[1.4666666666666666],[0.509],1,704.547
2,False,107,1.327,79,[],[],"[(1117, 902)]",[],[1],[110],[1.8333333333333333],"[640.0, 512.0]",horizontal,"(890.0, 262.0)",[0.6166666666666667],[0.501],1,708.353
2,False,108,0.349,20,[],[],"[(1113, 903)]",[],[1],[52],[0.8666666666666667],"[640.0, 512.0]",horizontal,"(390.0, 262.0)",[1.5333333333333332],[0.506],1,712.308
2,False,109,0.933,55,[],[],"[(1095, 898)]",[],[1],[93],[1.55],"[640.0, 512.0]",horizontal,"(390.0, 262.0)",[0.5166666666666666],[0.611],1,716.2
2,False,110,0.486,29,[],[],"[(1146, 889)]",[],[1],[66],[1.1],"[640.0, 512.0]",horizontal,"(390.0, 262.0)",[1.45],[0.591],1,719.752
2,False,111,1.006,60,[],[],"[(1120, 885)]",[],[1],[94],[1.5666666666666667],"[640.0, 512.0]",horizontal,"(890.0, 262.0)",[0.5333333333333333],[0.547],1,723.806
2,False,112,0.645,38,[],[],"[(1110, 903)]",[],[1],[74],[1.2333333333333334],"[640.0, 512.0]",horizontal,"(390.0, 262.0)",[1.1833333333333333],[0.579],1,727.389
2,False,113,0.482,28,[],[],"[(1136, 896)]",[],[1],[62],[1.0333333333333332],"[640.0, 512.0]",horizontal,"(390.0, 262.0)",[1.45],[0.544],1,731.362
2,False,114,0.329,19,[],[],"[(1140, 887)]",[],[1],[50],[0.8333333333333334],"[640.0, 512.0]",vertical,"(890.0, 762.0)",[1.5333333333333332],[0.494],1,735.326
2,False,115,1.381,82,[],[],"[(1148, 884)]",[],[1],[108],[1.8],"[640.0, 512.0]",horizontal,"(890.0, 262.0)",[1.2],[0.418],1,739.18
2,False,116,0.499,29,[],[],"[(1154, 903)]",[],[1],[60],[1.0],"[640.0, 512.0]",vertical,"(890.0, 262.0)",[1.2],[0.497],1,743.661
2,False,117,1.448,86,[],[],"[(1172, 884)]",[],[1],[124],[2.0666666666666664],"[640.0, 512.0]",vertical,"(890.0, 762.0)",[1.7],[0.608],1,747.302
2,False,118,0.979,58,[],[],"[(1123, 908)]",[],[1],[93],[1.55],"[640.0, 512.0]",horizontal,"(390.0, 762.0)",[1.0],[0.561],1,752.513
2,False,119,0.676,40,[],[],"[(1163, 884)]",[],[1],[68],[1.1333333333333333],"[640.0, 512.0]",vertical,"(890.0, 262.0)",[1.5833333333333333],[0.442],1,756.552
2,False,120,1.023,61,[],[],"[(1142, 880)]",[],[1],[95],[1.5833333333333333],"[640.0, 512.0]",vertical,"(890.0, 762.0)",[1.5333333333333332],[0.541],1,760.734
3,False,121,1.252,75,[],[],"[(1158, 880)]",[],[1],[109],[1.8166666666666667],"[640.0, 512.0]",vertical,"(890.0, 762.0)",[0.8333333333333334],[0.544],1,765.313
3,False,122,1.14,68,[],[],"[(1142, 891)]",[],[1],[101],[1.6833333333333333],"[640.0, 512.0]",vertical,"(890.0, 762.0)",[0.6166666666666667],[0.528],1,769.471
3,False,123,1.456,87,[],[],"[(1121, 890)]",[],[1],[117],[1.95],"[640.0, 512.0]",horizontal,"(890.0, 262.0)",[0.5833333333333334],[0.475],1,774.401
3,False,124,0.341,20,[],[],"[(1153, 886)]",[],[1],[54],[0.9],"[640.0, 512.0]",horizontal,"(890.0, 262.0)",[1.5666666666666667],[0.541],1,778.417
3,False,125,1.176,70,[],[],"[(1158, 882)]",[],[1],[105],[1.75],"[640.0, 512.0]",horizontal,"(890.0, 762.0)",[1.3833333333333333],[0.558],1,782.38
3,False,126,0.769,46,[],[],"[(1113, 878)]",[],[1],[76],[1.2666666666666666],"[640.0, 512.0]",vertical,"(890.0, 262.0)",[0.8166666666666667],[0.482],1,787.01
3,False,127,0.503,30,[],[],"[(1137, 885)]",[],[1],[71],[1.1833333333333333],"[640.0, 512.0]",vertical,"(390.0, 262.0)",[0.95],[0.654],1,790.599
3,False,128,1.08,64,[],[],"[(1140, 882)]",[],[1],[94],[1.5666666666666667],"[640.0, 512.0]",horizontal,"(390.0, 262.0)",[0.5333333333333333],[0.475],1,794.242
3,False,129,0.436,26,[],[],"[(1164, 882)]",[],[1],[63],[1.05],"[640.0, 512.0]",horizontal,"(890.0, 762.0)",[1.4666666666666666],[0.591],1,797.844
3,False,130,0.496,29,[],[],"[(1178, 876)]",[],[1],[62],[1.0333333333333332],"[640.0, 512.0]",horizontal,"(390.0, 762.0)",[0.6166666666666667],[0.534],1,801.868
3,False,131,0.465,27,[],[],"[(1125, 889)]",[],[1],[58],[0.9666666666666667],"[640.0, 512.0]",horizontal,"(390.0, 262.0)",[1.5666666666666667],[0.496],1,805.076
3,False,132,0.956,57,[],[],"[(1120, 872)]",[],[1],[95],[1.5833333333333333],"[640.0, 512.0]",horizontal,"(390.0, 762.0)",[1.6],[0.603],1,809.091
3,False,133,1.371,82,[],[],"[(1093, 890)]",[],[1],[111],[1.8499999999999999],"[640.0, 512.0]",horizontal,"(890.0, 262.0)",[1.5],[0.471],1,813.768
3,False,134,1.325,79,[],[],"[(1132, 888)]",[],[1],[116],[1.9333333333333333],"[640.0, 512.0]",horizontal,"(890.0, 762.0)",[1.6166666666666667],[0.593],1,818.594
3,False,135,0.457,27,[],[],"[(1102, 889)]",[],[1],[52],[0.8666666666666667],"[640.0, 512.0]",vertical,"(390.0, 262.0)",[1.4],[0.394],1,823.622
3,False,136,0.621,37,[],[],"[(1113, 896)]",[],[1],[78],[1.3],"[640.0, 512.0]",horizontal,"(890.0, 262.0)",[1.6],[0.655],1,827.363
3,False,137,1.134,68,[],[],"[(1123, 902)]",[],[1],[105],[1.75],"[640.0, 512.0]",vertical,"(390.0, 762.0)",[1.0],[0.592],1,831.784
3,False,138,1.326,79,[],[],"[(1113, 884)]",[],[1],[113],[1.8833333333333333],"[640.0, 512.0]",vertical,"(390.0, 762.0)",[1.4],[0.545],1,836.051
3,False,139,1.37,82,[],[],"[(1148, 884)]",[],[1],[118],[1.9666666666666666],"[640.0, 512.0]",horizontal,"(890.0, 762.0)",[1.15],[0.581],1,840.833
3,False,140,1.418,85,[],[],"[(1133, 880)]",[],[1],[121],[2.0166666666666666],"[640.0, 512.0]",horizontal,"(390.0, 762.0)",[1.4],[0.575],1,845.43
3,False,141,0.533,31,[],[],"[(1103, 894)]",[],[1],[66],[1.1],"[640.0, 512.0]",horizontal,"(890.0, 262.0)",[0.9833333333333333],[0.557],1,850.334
3,False,142,0.3,18,[],[],"[(1081, 894)]",[],[1],[53],[0.8833333333333333],"[640.0, 512.0]",vertical,"(890.0, 762.0)",[0.5166666666666666],[0.558],1,853.984
3,False,143,0.863,51,[],[],"[(1129, 904)]",[],[1],[95],[1.5833333333333333],"[640.0, 512.0]",vertical,"(390.0, 762.0)",[1.0166666666666666],[0.71],1,856.936
3,False,144,0.477,28,[],[],"[(1118, 903)]",[],[1],[73],[1.2166666666666666],"[640.0, 512.0]",horizontal,"(890.0, 262.0)",[0.5666666666666667],[0.717],1,861.013
3,False,145,1.26,75,[],[],"[(1143, 898)]",[],[1],[109],[1.8166666666666667],"[640.0, 512.0]",vertical,"(390.0, 762.0)",[0.9166666666666666],[0.545],1,864.273
3,False,146,1.115,66,[],[],"[(1120, 894)]",[],[1],[97],[1.6166666666666667],"[640.0, 512.0]",vertical,"(390.0, 762.0)",[1.55],[0.491],1,868.521
3,False,147,1.002,60,[],[],"[(1092, 889)]",[],[1],[101],[1.6833333333333333],"[640.0, 512.0]",vertical,"(890.0, 262.0)",[0.7166666666666667],[0.654],1,873.168
3,False,148,0.957,57,[],[],"[(1093, 894)]",[],[1],[86],[1.4333333333333333],"[640.0, 512.0]",horizontal,"(890.0, 262.0)",[1.15],[0.456],1,877.065
3,False,149,0.598,35,[],[],"[(1126, 908)]",[],[1],[64],[1.0666666666666667],"[640.0, 512.0]",vertical,"(390.0, 262.0)",[1.5833333333333333],[0.46],1,881.2
3,False,150,0.753,45,[],[],"[(1068, 904)]",[],[1],[78],[1.3],"[640.0, 512.0]",vertical,"(390.0, 762.0)",[0.5166666666666666],[0.526],1,888.547
3,False,151,0.611,36,[],[],"[(1101, 900)]",[],[1],[81],[1.35],"[640.0, 512.0]",vertical,"(390.0, 762.0)",[0.7666666666666666],[0.723],1,891.915
3,False,152,0.432,25,[],[],"[(1105, 899)]",[],[1],[59],[0.9833333333333333],"[640.0, 512.0]",horizontal,"(890.0, 762.0)",[1.3],[0.541],1,895.497
3,False,153,1.387,83,[],[],"[(1133, 900)]",[],[1],[117],[1.95],"[640.0, 512.0]",vertical,"(390.0, 762.0)",[0.9833333333333333],[0.539],1,899.3
3,False,154,0.533,31,[],[],"[(1123, 886)]",[],[1],[66],[1.1],"[640.0, 512.0]",vertical,"(390.0, 762.0)",[0.6333333333333333],[0.559],1,903.75
3,False,155,1.084,65,[],[],"[(1097, 911)]",[],[1],[80],[1.3333333333333333],"[640.0, 512.0]",vertical,"(390.0, 262.0)",[1.65],[0.234],1,906.99
3,False,156,1.471,88,[],[],"[(1105, 898)]",[],[1],[120],[2.0],"[640.0, 512.0]",horizontal,"(890.0, 762.0)",[1.0166666666666666],[0.512],1,911.499
3,False,157,0.992,59,[],[],"[(1148, 895)]",[],[1],[91],[1.5166666666666666],"[640.0, 512.0]",vertical,"(890.0, 762.0)",[1.6666666666666667],[0.509],1,916.2
3,False,158,0.677,40,[],[],"[(1143, 894)]",[],[1],[72],[1.2],"[640.0, 512.0]",vertical,"(890.0, 262.0)",[1.6666666666666667],[0.502],1,920.885
3,False,159,0.436,26,[],[],"[(1107, 890)]",[],[1],[63],[1.05],"[640.0, 512.0]",vertical,"(890.0, 262.0)",[0.9166666666666666],[0.598],1,925.263
3,False,160,0.541,32,[],[],"[(1119, 902)]",[],[1],[64],[1.0666666666666667],"[640.0, 512.0]",vertical,"(890.0, 262.0)",[0.55],[0.508],1,928.764
3,False,161,0.92,55,[],[],"[(1123, 908)]",[],[1],[87],[1.45],"[640.0, 512.0]",vertical,"(390.0, 762.0)",[0.6333333333333333],[0.51],1,931.846
3,False,162,0.854,51,[],[],"[(1090, 880)]",[],[1],[86],[1.4333333333333333],"[640.0, 512.0]",horizontal,"(390.0, 762.0)",[1.1166666666666667],[0.564],1,935.419
3,False,163,0.503,30,[],[],"[(1077, 894)]",[],[1],[62],[1.0333333333333332],"[640.0, 512.0]",horizontal,"(890.0, 262.0)",[1.5166666666666666],[0.51],1,939.54
3,False,164,1.379,82,[],[],"[(1105, 894)]",[],[1],[115],[1.9166666666666667],"[640.0, 512.0]",horizontal,"(390.0, 762.0)",[1.0],[0.529],1,943.674
3,False,165,1.092,65,[],[],"[(1107, 891)]",[],[1],[91],[1.5166666666666666],"[640.0, 512.0]",horizontal,"(890.0, 262.0)",[1.6166666666666667],[0.412],1,948.119
3,False,166,1.318,79,[],[],"[(1093, 899)]",[],[1],[107],[1.7833333333333332],"[640.0, 512.0]",horizontal,"(390.0, 262.0)",[1.1],[0.449],1,952.715
3,False,167,0.858,51,[],[],"[(1112, 890)]",[],[1],[82],[1.3666666666666667],"[640.0, 512.0]",vertical,"(890.0, 262.0)",[0.85],[0.493],1,957.123
3,False,168,1.27,76,[],[],"[(1123, 890)]",[],[1],[108],[1.8],"[640.0, 512.0]",horizontal,"(890.0, 262.0)",[0.5333333333333333],[0.508],1,960.9
3,False,169,1.096,65,[],[],"[(1099, 894)]",[],[1],[96],[1.6],"[640.0, 512.0]",vertical,"(890.0, 262.0)",[1.5166666666666666],[0.492],1,964.769
3,False,170,0.905,54,[],[],"[(1077, 894)]",[],[1],[87],[1.45],"[640.0, 512.0]",horizontal,"(890.0, 262.0)",[0.6],[0.527],1,969.449
3,False,171,0.97,58,[],[],"[(1096, 890)]",[],[1],[97],[1.6166666666666667],"[640.0, 512.0]",horizontal,"(890.0, 262.0)",[1.1333333333333333],[0.623],1,973.287
3,False,172,1.049,62,[],[],"[(1101, 895)]",[],[1],[95],[1.5833333333333333],"[640.0, 512.0]",vertical,"(890.0, 262.0)",[0.6],[0.523],1,977.542
3,False,173,1.437,86,[],[],"[(1102, 890)]",[],[1],[113],[1.8833333333333333],"[640.0, 512.0]",vertical,"(390.0, 262.0)",[1.55],[0.428],1,981.229
3,False,174,1.067,64,[],[],"[(1124, 889)]",[],[1],[97],[1.6166666666666667],"[640.0, 512.0]",horizontal,"(390.0, 762.0)",[0.55],[0.526],1,986.147
3,False,175,0.921,55,[],[],"[(1099, 898)]",[],[1],[85],[1.4166666666666667],"[640.0, 512.0]",horizontal,"(390.0, 262.0)",[0.8333333333333334],[0.474],1,989.775
3,False,176,0.918,55,[],[],"[(1160, 886)]",[],[1],[95],[1.5833333333333333],"[640.0, 512.0]",horizontal,"(890.0, 762.0)",[1.4],[0.643],1,993.524
3,False,177,0.569,34,[],[],"[(1124, 889)]",[],[1],[66],[1.1],"[640.0, 512.0]",horizontal,"(890.0, 762.0)",[0.5166666666666666],[0.513],1,998.003
3,False,178,1.05,63,[],[],"[(1123, 882)]",[],[1],[95],[1.5833333333333333],"[640.0, 512.0]",horizontal,"(890.0, 762.0)",[0.9333333333333333],[0.512],1,1001.13
3,False,179,0.953,57,[],[],"[(1099, 889)]",[],[1],[90],[1.5],"[640.0, 512.0]",vertical,"(890.0, 762.0)",[0.65],[0.521],1,1005.194
3,False,180,1.106,66,[],[],"[(1129, 896)]",[],[1],[99],[1.65],"[640.0, 512.0]",horizontal,"(890.0, 762.0)",[0.8666666666666667],[0.529],1,1008.881
4,False,181,0.37,22,[],[],"[(1140, 905)]",[],[1],[58],[0.9666666666666667],"[640.0, 512.0]",horizontal,"(390.0, 762.0)",[0.55],[0.57],1,1012.938
4,False,182,0.522,31,[],[],"[(1116, 878)]",[],[1],[69],[1.15],"[640.0, 512.0]",horizontal,"(390.0, 262.0)",[0.75],[0.605],1,1015.96
4,False,183,0.594,35,[],[],"[(1123, 894)]",[],[1],[67],[1.1166666666666667],"[640.0, 512.0]",horizontal,"(390.0, 762.0)",[1.4833333333333334],[0.509],1,1019.388
4,False,184,0.443,26,[],[],"[(1093, 885)]",[],[1],[61],[1.0166666666666666],"[640.0, 512.0]",vertical,"(390.0, 762.0)",[0.7],[0.559],1,1023.489
4,False,185,1.435,86,[],[],"[(1093, 899)]",[],[1],[118],[1.9666666666666666],"[640.0, 512.0]",horizontal,"(890.0, 262.0)",[1.4333333333333333],[0.509],1,1026.786
4,False,186,0.976,58,[],[],"[(1140, 890)]",[],[1],[90],[1.5],"[640.0, 512.0]",horizontal,"(890.0, 762.0)",[0.6333333333333333],[0.517],1,1031.733
4,False,187,1.492,89,[],[],"[(1128, 893)]",[],[1],[122],[2.033333333333333],"[640.0, 512.0]",vertical,"(890.0, 762.0)",[1.4833333333333334],[0.526],1,1035.398
4,False,188,1.318,79,[],[],"[(1101, 898)]",[],[1],[108],[1.8],"[640.0, 512.0]",vertical,"(890.0, 262.0)",[0.6166666666666667],[0.46],1,1040.519
4,False,189,1.225,73,[],[],"[(1093, 893)]",[],[1],[108],[1.8],"[640.0, 512.0]",horizontal,"(390.0, 762.0)",[1.5666666666666667],[0.556],1,1045.578
4,False,190,0.817,49,[],[],"[(1128, 886)]",[],[1],[92],[1.5333333333333332],"[640.0, 512.0]",vertical,"(390.0, 762.0)",[0.6833333333333333],[0.689],1,1050.406
4,False,191,0.368,22,[],[],"[(1147, 892)]",[],[1],[55],[0.9166666666666666],"[640.0, 512.0]",vertical,"(390.0, 762.0)",[1.1],[0.524],1,1054.113
4,False,192,0.31,18,[],[],"[(1099, 885)]",[],[1],[51],[0.85],"[640.0, 512.0]",horizontal,"(390.0, 262.0)",[1.3],[0.523],1,1057.6
4,False,193,1.279,76,[],[],"[(1166, 890)]",[],[1],[110],[1.8333333333333333],"[640.0, 512.0]",vertical,"(890.0, 262.0)",[0.7],[0.54],1,1061.304
4,False,194,1.439,86,[],[],"[(1136, 889)]",[],[1],[119],[1.9833333333333334],"[640.0, 512.0]",horizontal,"(890.0, 762.0)",[0.6333333333333333],[0.526],1,1065.299
4,False,195,0.418,25,[],[],"[(1143, 888)]",[],[1],[69],[1.15],"[640.0, 512.0]",vertical,"(890.0, 262.0)",[1.2833333333333332],[0.704],1,1069.401
4,False,196,1.109,66,[],[],"[(1113, 887)]",[],[1],[97],[1.6166666666666667],"[640.0, 512.0]",horizontal,"(390.0, 262.0)",[1.0833333333333333],[0.493],1,1073.315
4,False,197,0.912,54,[],[],"[(1099, 889)]",[],[1],[87],[1.45],"[640.0, 512.0]",vertical,"(890.0, 762.0)",[1.0833333333333333],[0.526],1,1077.558
4,False,198,1.178,70,[],[],"[(1123, 899)]",[],[1],[106],[1.7666666666666666],"[640.0, 512.0]",horizontal,"(390.0, 762.0)",[1.1333333333333333],[0.574],1,1081.594
4,False,199,0.759,45,[],[],"[(1093, 890)]",[],[1],[74],[1.2333333333333334],"[640.0, 512.0]",vertical,"(390.0, 262.0)",[1.5666666666666667],[0.458],1,1085.949
4,False,200,1.157,69,[],[],"[(1139, 880)]",[],[1],[101],[1.6833333333333333],"[640.0, 512.0]",horizontal,"(890.0, 762.0)",[1.25],[0.509],1,1090.216
4,False,201,0.469,28,[],[],"[(1153, 882)]",[],[1],[61],[1.0166666666666666],"[640.0, 512.0]",vertical,"(390.0, 762.0)",[0.9333333333333333],[0.524],1,1094.649
4,False,202,1.298,77,[],[],"[(1146, 892)]",[],[1],[108],[1.8],"[640.0, 512.0]",vertical,"(890.0, 262.0)",[1.25],[0.49],1,1098.084
4,False,203,0.449,26,[],[],"[(1126, 897)]",[],[1],[59],[0.9833333333333333],"[640.0, 512.0]",horizontal,"(390.0, 262.0)",[0.55],[0.529],1,1104.876
4,False,204,0.637,38,[],[],"[(1146, 899)]",[],[1],[69],[1.15],"[640.0, 512.0]",vertical,"(890.0, 762.0)",[1.3],[0.494],1,1107.948
4,False,205,1.313,78,[],[],"[(1111, 897)]",[],[1],[110],[1.8333333333333333],"[640.0, 512.0]",horizontal,"(390.0, 762.0)",[1.35],[0.511],1,1111.914
4,False,206,0.714,42,[],[],"[(1123, 900)]",[],[1],[71],[1.1833333333333333],"[640.0, 512.0]",horizontal,"(390.0, 262.0)",[1.5666666666666667],[0.459],1,1116.582
4,False,207,0.998,59,[],[],"[(1093, 915)]",[],[1],[91],[1.5166666666666666],"[640.0, 512.0]",vertical,"(390.0, 262.0)",[0.6333333333333333],[0.508],1,1120.844
4,False,208,1.08,64,[],[],"[(1148, 895)]",[],[1],[102],[1.7],"[640.0, 512.0]",vertical,"(390.0, 762.0)",[0.6666666666666666],[0.606],1,1124.52
4,False,209,1.214,72,[],[],"[(1102, 891)]",[],[1],[103],[1.7166666666666666],"[640.0, 512.0]",horizontal,"(890.0, 262.0)",[0.8833333333333333],[0.501],1,1128.383
4,False,210,0.346,20,[],[],"[(1072, 904)]",[],[1],[58],[0.9666666666666667],"[640.0, 512.0]",horizontal,"(890.0, 262.0)",[0.5166666666666666],[0.613],1,1132.502
4,False,211,0.862,51,[],[],"[(1122, 878)]",[],[1],[84],[1.4],"[640.0, 512.0]",vertical,"(390.0, 762.0)",[0.95],[0.527],1,1135.752
4,False,212,1.495,89,[],[],"[(1081, 897)]",[],[1],[119],[1.9833333333333334],"[640.0, 512.0]",vertical,"(890.0, 262.0)",[0.75],[0.473],1,1139.561
4,False,213,1.255,75,[],[],"[(1136, 882)]",[],[1],[106],[1.7666666666666666],"[640.0, 512.0]",vertical,"(390.0, 262.0)",[0.6166666666666667],[0.491],1,1144.03
4,False,214,0.807,48,[],[],"[(1153, 875)]",[],[1],[82],[1.3666666666666667],"[640.0, 512.0]",horizontal,"(890.0, 762.0)",[1.2666666666666666],[0.546],1,1147.866
4,False,215,0.432,25,[],[],"[(1136, 898)]",[],[1],[59],[0.9833333333333333],"[640.0, 512.0]",horizontal,"(390.0, 762.0)",[0.6666666666666666],[0.549],1,1152.013
4,False,216,1.047,62,[],[],"[(1107, 899)]",[],[1],[95],[1.5833333333333333],"[640.0, 512.0]",vertical,"(390.0, 762.0)",[1.0166666666666666],[0.526],1,1155.148
4,False,217,0.612,36,[],[],"[(1125, 872)]",[],[1],[76],[1.2666666666666666],"[640.0, 512.0]",horizontal,"(390.0, 262.0)",[0.9166666666666666],[0.64],1,1159.264
4,False,218,0.577,34,[],[],"[(1075, 908)]",[],[1],[66],[1.1],"[640.0, 512.0]",vertical,"(890.0, 262.0)",[0.8833333333333333],[0.509],1,1163.025
4,False,219,1.173,70,[],[],"[(1088, 889)]",[],[1],[104],[1.7333333333333334],"[640.0, 512.0]",vertical,"(390.0, 762.0)",[1.3666666666666667],[0.545],1,1166.904
4,False,220,1.294,77,[],[],"[(1117, 902)]",[],[1],[109],[1.8166666666666667],"[640.0, 512.0]",vertical,"(890.0, 762.0)",[0.6166666666666667],[0.508],1,1171.593
4,False,221,1.298,77,[],[],"[(1123, 888)]",[],[1],[113],[1.8833333333333333],"[640.0, 512.0]",horizontal,"(390.0, 762.0)",[0.6333333333333333],[0.583],1,1175.569
4,False,222,0.632,37,[],[],"[(1136, 897)]",[],[1],[70],[1.1666666666666667],"[640.0, 512.0]",horizontal,"(390.0, 762.0)",[1.5666666666666667],[0.528],1,1179.585
4,False,223,1.289,77,[],[],"[(1105, 894)]",[],[1],[109],[1.8166666666666667],"[640.0, 512.0]",horizontal,"(390.0, 262.0)",[0.8],[0.511],1,1183.797
4,False,224,1.264,75,[],[],"[(1121, 889)]",[],[1],[104],[1.7333333333333334],"[640.0, 512.0]",vertical,"(890.0, 262.0)",[1.5333333333333332],[0.458],1,1187.913
4,False,225,0.803,48,[],[],"[(1123, 902)]",[],[1],[79],[1.3166666666666667],"[640.0, 512.0]",vertical,"(390.0, 762.0)",[1.3333333333333333],[0.49],1,1192.677
4,False,226,0.986,59,[],[],"[(1112, 884)]",[],[1],[94],[1.5666666666666667],"[640.0, 512.0]",vertical,"(890.0, 762.0)",[1.3333333333333333],[0.556],1,1196.78
4,False,227,1.146,68,[],[],"[(1116, 886)]",[],[1],[102],[1.7],"[640.0, 512.0]",horizontal,"(390.0, 762.0)",[1.65],[0.54],1,1201.181
4,False,228,1.275,76,[],[],"[(1097, 894)]",[],[1],[110],[1.8333333333333333],"[640.0, 512.0]",vertical,"(890.0, 762.0)",[1.3666666666666667],[0.546],1,1206.032
4,False,229,0.3,18,[],[],"[(1148, 887)]",[],[1],[64],[1.0666666666666667],"[640.0, 512.0]",horizontal,"(390.0, 262.0)",[1.5666666666666667],[0.733],1,1210.765
4,False,230,1.042,62,[],[],"[(1130, 892)]",[],[1],[93],[1.55],"[640.0, 512.0]",horizontal,"(390.0, 262.0)",[1.4666666666666666],[0.494],1,1214.953
4,False,231,0.75,45,[],[],"[(1143, 901)]",[],[1],[80],[1.3333333333333333],"[640.0, 512.0]",vertical,"(390.0, 262.0)",[0.8],[0.556],1,1219.466
4,False,232,1.202,72,[],[],"[(1148, 889)]",[],[1],[105],[1.75],"[640.0, 512.0]",vertical,"(890.0, 762.0)",[0.9833333333333333],[0.526],1,1223.104
4,False,233,0.807,48,[],[],"[(1148, 892)]",[],[1],[81],[1.35],"[640.0, 512.0]",vertical,"(390.0, 762.0)",[1.6333333333333333],[0.53],1,1227.353
4,False,234,0.983,58,[],[],"[(1094, 892)]",[],[1],[96],[1.6],"[640.0, 512.0]",vertical,"(890.0, 262.0)",[1.3166666666666667],[0.608],1,1231.787
4,False,235,0.969,58,[],[],"[(1107, 893)]",[],[1],[91],[1.5166666666666666],"[640.0, 512.0]",vertical,"(890.0, 262.0)",[0.7333333333333333],[0.535],1,1236.183
4,False,236,1.018,61,[],[],"[(1127, 897)]",[],[1],[91],[1.5166666666666666],"[640.0, 512.0]",vertical,"(890.0, 262.0)",[0.7333333333333333],[0.474],1,1239.923
4,False,237,1.269,76,[],[],"[(1116, 889)]",[],[1],[111],[1.8499999999999999],"[640.0, 512.0]",horizontal,"(890.0, 762.0)",[0.6666666666666666],[0.56],1,1243.622
4,False,238,1.223,73,[],[],"[(1148, 884)]",[],[1],[113],[1.8833333333333333],"[640.0, 512.0]",horizontal,"(890.0, 762.0)",[1.6166666666666667],[0.64],1,1247.714
4,False,239,0.308,18,[],[],"[(1129, 894)]",[],[1],[56],[0.9333333333333333],"[640.0, 512.0]",vertical,"(390.0, 762.0)",[1.2166666666666666],[0.604],1,1252.685
4,False,240,1.224,73,[],[],"[(1136, 869)]",[],[1],[108],[1.8],"[640.0, 512.0]",horizontal,"(890.0, 762.0)",[1.25],[0.566],1,1256.301
5,False,241,1.223,73,[],[],"[(1136, 879)]",[],[1],[109],[1.8166666666666667],"[640.0, 512.0]",horizontal,"(890.0, 762.0)",[0.7666666666666666],[0.57],1,1260.819
5,False,242,0.923,55,[],[],"[(1148, 888)]",[],[1],[92],[1.5333333333333332],"[640.0, 512.0]",horizontal,"(890.0, 262.0)",[0.85],[0.595],1,1264.865
5,False,243,0.718,43,[],[],"[(1112, 894)]",[],[1],[93],[1.55],"[640.0, 512.0]",vertical,"(390.0, 762.0)",[1.5333333333333332],[0.807],0,1268.722
5,False,244,0.529,31,[],[],"[(1155, 886)]",[],[1],[63],[1.05],"[640.0, 512.0]",horizontal,"(890.0, 262.0)",[0.65],[0.507],1,1273.303
5,False,245,0.394,23,[],[],"[(1118, 889)]",[],[1],[56],[0.9333333333333333],"[640.0, 512.0]",vertical,"(390.0, 262.0)",[1.4666666666666666],[0.526],1,1276.517
5,False,246,1.01,60,[],[],"[(1080, 875)]",[],[1],[92],[1.5333333333333332],"[640.0, 512.0]",horizontal,"(390.0, 262.0)",[1.45],[0.511],1,1280.427
5,False,247,1.278,76,[],[],"[(1153, 899)]",[],[1],[109],[1.8166666666666667],"[640.0, 512.0]",horizontal,"(890.0, 762.0)",[1.1666666666666667],[0.529],1,1285.09
5,False,248,0.31,18,[],[],"[(1097, 886)]",[],[1],[51],[0.85],"[640.0, 512.0]",vertical,"(390.0, 262.0)",[1.1],[0.524],1,1289.542
5,False,249,1.422,85,[],[],"[(1133, 878)]",[],[1],[129],[2.15],"[640.0, 512.0]",vertical,"(890.0, 262.0)",[0.6],[0.706],1,1293.053
5,False,250,1.09,65,[],[],"[(1149, 879)]",[],[1],[99],[1.65],"[640.0, 512.0]",horizontal,"(390.0, 262.0)",[1.55],[0.542],1,1297.28
5,False,251,0.586,35,[],[],"[(1106, 889)]",[],[1],[70],[1.1666666666666667],"[640.0, 512.0]",vertical,"(390.0, 262.0)",[1.0333333333333332],[0.556],1,1301.986
5,False,252,0.576,34,[],[],"[(1105, 894)]",[],[1],[66],[1.1],"[640.0, 512.0]",vertical,"(390.0, 762.0)",[1.0166666666666666],[0.509],1,1305.719
5,False,253,0.895,53,[],[],"[(1116, 885)]",[],[1],[85],[1.4166666666666667],"[640.0, 512.0]",horizontal,"(890.0, 762.0)",[0.6666666666666666],[0.517],1,1309.335
5,False,254,1.31,78,[],[],"[(1116, 906)]",[],[1],[110],[1.8333333333333333],"[640.0, 512.0]",vertical,"(890.0, 262.0)",[0.8],[0.505],1,1312.962
5,False,255,1.071,64,[],[],"[(1123, 885)]",[],[1],[94],[1.5666666666666667],"[640.0, 512.0]",vertical,"(890.0, 262.0)",[1.2],[0.476],1,1317.121
5,False,256,1.46,87,[],[],"[(1105, 893)]",[],[1],[112],[1.8666666666666667],"[640.0, 512.0]",vertical,"(890.0, 262.0)",[0.8],[0.399],1,1321.372
5,False,257,1.331,79,[],[],"[(1120, 893)]",[],[1],[],[],"[640.0, 512.0]",vertical,"(890.0, 262.0)",[],[0],0,1325.707
5,False,258,1.192,71,[],[],"[(1148, 890)]",[],[1],[104],[1.7333333333333334],"[640.0, 512.0]",vertical,"(890.0, 762.0)",[1.5333333333333332],[0.521],1,1329.554
5,False,259,0.564,33,[],[],"[(1108, 892)]",[],[1],[49],[0.8166666666666667],"[640.0, 512.0]",vertical,"(890.0, 262.0)",[1.45],[0.247],1,1334.517
5,False,260,0.631,37,[],[],"[(1087, 894)]",[],[1],[70],[1.1666666666666667],"[640.0, 512.0]",horizontal,"(890.0, 762.0)",[1.3333333333333333],[0.527],1,1338.318
5,False,261,0.393,23,[],[],"[(1114, 894)]",[],[1],[57],[0.95],"[640.0, 512.0]",horizontal,"(890.0, 762.0)",[1.0666666666666667],[0.543],1,1342.351
5,False,262,1.203,72,[],[],"[(1154, 902)]",[],[1],[102],[1.7],"[640.0, 512.0]",horizontal,"(890.0, 262.0)",[1.1666666666666667],[0.48],1,1345.848
5,False,263,0.644,38,[],[],"[(1113, 886)]",[],[1],[72],[1.2],"[640.0, 512.0]",vertical,"(890.0, 762.0)",[1.1833333333333333],[0.544],1,1350.18
5,False,264,0.934,56,[],[],"[(1147, 889)]",[],[1],[106],[1.7666666666666666],"[640.0, 512.0]",vertical,"(890.0, 262.0)",[1.6166666666666667],"[0, 0.812]",0,1354.119
5,False,265,1.358,81,[],[],"[(1093, 895)]",[],[1],[114],[1.9],"[640.0, 512.0]",horizontal,"(890.0, 762.0)",[0.65],[0.521],1,1359.018
5,False,266,1.181,70,[],[],"[(1111, 908)]",[],[1],[99],[1.65],"[640.0, 512.0]",vertical,"(890.0, 262.0)",[1.3],[0.458],1,1363.12
5,False,267,1.041,62,[],[],"[(1113, 877)]",[],[1],[98],[1.6333333333333333],"[640.0, 512.0]",horizontal,"(390.0, 262.0)",[0.7833333333333333],[0.576],1,1367.63
5,False,268,0.708,42,[],[],"[(1118, 875)]",[],[1],[78],[1.3],"[640.0, 512.0]",vertical,"(890.0, 262.0)",[0.55],[0.569],1,1371.539
5,False,269,0.391,23,[],[],"[(1148, 894)]",[],[1],[57],[0.95],"[640.0, 512.0]",vertical,"(390.0, 762.0)",[1.3666666666666667],[0.539],1,1374.897
5,False,270,1.42,85,[],[],"[(1123, 889)]",[],[1],[118],[1.9666666666666666],"[640.0, 512.0]",horizontal,"(390.0, 762.0)",[0.65],[0.525],1,1378.703
5,False,271,1.478,88,[],[],"[(1093, 892)]",[],[1],[123],[2.05],"[640.0, 512.0]",horizontal,"(390.0, 762.0)",[0.8333333333333334],[0.558],1,1382.829
5,False,272,1.317,79,[],[],"[(1093, 902)]",[],[1],[111],[1.8499999999999999],"[640.0, 512.0]",horizontal,"(890.0, 262.0)",[0.55],[0.506],1,1387.174
5,False,273,0.324,19,[],[],"[(1177, 894)]",[],[1],[51],[0.85],"[640.0, 512.0]",vertical,"(890.0, 762.0)",[1.5166666666666666],[0.508],1,1391.212
5,False,274,0.345,20,[],[],"[(1136, 900)]",[],[1],[53],[0.8833333333333333],"[640.0, 512.0]",horizontal,"(890.0, 262.0)",[0.9166666666666666],[0.531],1,1395.036
5,False,275,0.617,37,[],[],"[(1169, 880)]",[],[1],[72],[1.2],"[640.0, 512.0]",horizontal,"(390.0, 762.0)",[1.5833333333333333],[0.558],1,1398.383
5,False,276,0.884,53,[],[],"[(1096, 880)]",[],[1],[87],[1.45],"[640.0, 512.0]",vertical,"(890.0, 762.0)",[0.6666666666666666],[0.545],1,1402.671
5,False,277,1.126,67,[],[],"[(1117, 893)]",[],[1],[98],[1.6333333333333333],"[640.0, 512.0]",horizontal,"(890.0, 762.0)",[0.9833333333333333],[0.5],1,1406.33
5,False,278,1.417,85,[],[],"[(1117, 889)]",[],[1],[],[],"[640.0, 512.0]",vertical,"(890.0, 262.0)",[],[0],0,1410.47
5,False,279,1.062,63,[],[],"[(1117, 885)]",[],[1],[97],[1.6166666666666667],"[640.0, 512.0]",horizontal,"(890.0, 262.0)",[0.95],[0.557],1,1414.367
5,False,280,0.501,30,[],[],"[(1158, 899)]",[],[1],[61],[1.0166666666666666],"[640.0, 512.0]",vertical,"(890.0, 262.0)",[1.65],[0.498],1,1419.269
5,False,281,1.303,78,[],[],"[(1117, 902)]",[],[1],[110],[1.8333333333333333],"[640.0, 512.0]",horizontal,"(390.0, 762.0)",[1.45],[0.511],1,1423.411
5,False,282,1.015,60,[],[],"[(1151, 899)]",[],[1],[104],[1.7333333333333334],"[640.0, 512.0]",horizontal,"(890.0, 762.0)",[1.4],[0.706],1,1428.21
5,False,283,0.431,25,[],[],"[(1099, 902)]",[],[1],[56],[0.9333333333333333],"[640.0, 512.0]",horizontal,"(890.0, 762.0)",[0.7166666666666667],[0.495],1,1432.8
5,False,284,1.031,61,[],[],"[(1148, 901)]",[],[1],[99],[1.65],"[640.0, 512.0]",vertical,"(390.0, 262.0)",[0.7666666666666666],[0.614],1,1437.206
5,False,285,0.312,18,[],[],"[(1105, 894)]",[],[1],[51],[0.85],"[640.0, 512.0]",vertical,"(890.0, 762.0)",[1.4833333333333334],[0.523],1,1441.065
5,False,286,0.7,42,[],[],"[(1137, 891)]",[],[1],[92],[1.5333333333333332],"[640.0, 512.0]",vertical,"(390.0, 762.0)",[1.15],[0.808],0,1444.9
5,False,287,1.227,73,[],[],"[(1153, 900)]",[],[1],[104],[1.7333333333333334],"[640.0, 512.0]",vertical,"(890.0, 762.0)",[0.8833333333333333],[0.5],1,1449.051
5,False,288,0.6,36,[],[],"[(1093, 889)]",[],[1],[66],[1.1],"[640.0, 512.0]",horizontal,"(890.0, 262.0)",[1.65],[0.48],1,1495.418
5,False,289,1.032,61,[],[],"[(1106, 893)]",[],[1],[101],[1.6833333333333333],"[640.0, 512.0]",vertical,"(890.0, 762.0)",[0.5333333333333333],[0.639],1,1499.676
5,False,290,1.484,89,[],[1514235],"[(1106, 884)]","[(1106, 884)]",[1],[5],[0.08333333333333333],"[640.0, 512.0]",horizontal,"(390.0, 262.0)",[],[0],0,1503.401
5,False,291,1.029,61,[],[],"[(1142, 918)]",[],[1],[97],[1.6166666666666667],"[640.0, 512.0]",horizontal,"(890.0, 762.0)",[0.6666666666666666],[0.573],1,1504.888
5,False,292,0.411,24,[],[],"[(1098, 913)]",[],[1],[58],[0.9666666666666667],"[640.0, 512.0]",vertical,"(890.0, 762.0)",[1.3833333333333333],[0.543],1,1514.576
5,False,293,0.425,25,[],[],"[(1142, 893)]",[],[1],[64],[1.0666666666666667],"[640.0, 512.0]",horizontal,"(890.0, 762.0)",[1.15],[0.622],1,1518.476
5,False,294,0.389,23,[],[],"[(1150, 900)]",[],[1],[60],[1.0],"[640.0, 512.0]",vertical,"(890.0, 762.0)",[1.1833333333333333],[0.587],1,1522.174
5,False,295,0.503,30,[],[],"[(1097, 897)]",[],[1],[64],[1.0666666666666667],"[640.0, 512.0]",horizontal,"(890.0, 262.0)",[1.3],[0.539],1,1525.837
5,False,296,1.046,62,[],[],"[(1129, 899)]",[],[1],[96],[1.6],"[640.0, 512.0]",horizontal,"(390.0, 762.0)",[1.4666666666666666],[0.538],1,1530.282
5,False,297,0.486,29,[],[],"[(1142, 893)]",[],[1],[61],[1.0166666666666666],"[640.0, 512.0]",horizontal,"(890.0, 262.0)",[1.3],[0.519],1,1534.824
5,False,298,0.731,43,[],[],"[(1141, 915)]",[],[1],[73],[1.2166666666666666],"[640.0, 512.0]",vertical,"(390.0, 262.0)",[1.15],[0.484],1,1538.645
5,False,299,1.371,82,[],[],"[(1100, 890)]",[],[1],[113],[1.8833333333333333],"[640.0, 512.0]",vertical,"(890.0, 262.0)",[0.5166666666666666],[0.493],1,1547.751
5,False,300,0.859,51,[],[],"[(1133, 887)]",[],[1],[84],[1.4],"[640.0, 512.0]",horizontal,"(390.0, 262.0)",[0.6833333333333333],[0.528],1,1551.705
6,False,301,0.784,47,[],[],"[(1121, 894)]",[],[1],[85],[1.4166666666666667],"[640.0, 512.0]",horizontal,"(390.0, 762.0)",[1.1166666666666667],[0.606],1,1555.293
6,False,302,1.401,84,[],[],"[(1128, 878)]",[],[1],[117],[1.95],"[640.0, 512.0]",vertical,"(890.0, 762.0)",[0.7],[0.53],1,1559.316
6,False,303,0.783,46,[],[],"[(1142, 880)]",[],[1],[78],[1.3],"[640.0, 512.0]",horizontal,"(390.0, 262.0)",[1.45],[0.508],1,1563.444
6,False,304,1.429,85,[],[],"[(1150, 906)]",[],[1],[113],[1.8833333333333333],"[640.0, 512.0]",vertical,"(390.0, 262.0)",[1.1833333333333333],[0.443],1,1567.665
6,False,305,0.54,32,[],[],"[(1112, 899)]",[],[1],[66],[1.1],"[640.0, 512.0]",vertical,"(390.0, 762.0)",[1.3],[0.544],1,1572.195
6,False,306,0.336,20,[],[],"[(1160, 900)]",[],[1],[58],[0.9666666666666667],"[640.0, 512.0]",vertical,"(390.0, 762.0)",[1.1333333333333333],[0.611],1,1576.095
6,False,307,1.117,67,[],[],"[(1100, 879)]",[],[1],[99],[1.65],"[640.0, 512.0]",horizontal,"(890.0, 762.0)",[1.4833333333333334],[0.509],1,1579.674
6,False,308,1.077,64,[],[],"[(1121, 889)]",[],[1],[98],[1.6333333333333333],"[640.0, 512.0]",vertical,"(390.0, 762.0)",[1.0333333333333332],[0.54],1,1584.294
6,False,309,1.122,67,[],[],"[(1134, 904)]",[],[1],[102],[1.7],"[640.0, 512.0]",vertical,"(890.0, 762.0)",[1.15],[0.555],1,1588.827
6,False,310,1.157,69,[],[],"[(1125, 871)]",[],[1],[99],[1.65],"[640.0, 512.0]",vertical,"(390.0, 262.0)",[1.0666666666666667],[0.474],1,1593.114
6,False,311,0.881,52,[],[],"[(1155, 893)]",[],[1],[85],[1.4166666666666667],"[640.0, 512.0]",vertical,"(890.0, 762.0)",[0.5],[0.528],1,1597.71
6,False,312,1.045,62,[],[],"[(1160, 899)]",[],[1],[96],[1.6],"[640.0, 512.0]",horizontal,"(890.0, 762.0)",[0.5833333333333334],[0.544],1,1601.125
6,False,313,1.364,81,[],[],"[(1099, 901)]",[],[1],[112],[1.8666666666666667],"[640.0, 512.0]",horizontal,"(390.0, 262.0)",[1.2833333333333332],[0.49],1,1604.805
6,False,314,0.925,55,[],[],"[(1142, 903)]",[],[1],[93],[1.55],"[640.0, 512.0]",horizontal,"(390.0, 762.0)",[1.3],[0.602],1,1609.467
6,False,315,1.125,67,[],[],"[(1123, 908)]",[],[1],[98],[1.6333333333333333],"[640.0, 512.0]",horizontal,"(390.0, 762.0)",[1.4166666666666667],[0.49],1,1613.883
6,False,316,1.41,84,[],[],"[(1133, 883)]",[],[1],[118],[1.9666666666666666],"[640.0, 512.0]",horizontal,"(390.0, 762.0)",[0.6333333333333333],[0.542],1,1619.367
6,False,317,1.17,70,[],[],"[(1141, 870)]",[],[1],[104],[1.7333333333333334],"[640.0, 512.0]",horizontal,"(390.0, 762.0)",[0.5666666666666667],[0.538],1,1623.487
6,False,318,0.824,49,[],[],"[(1157, 894)]",[],[1],[85],[1.4166666666666667],"[640.0, 512.0]",vertical,"(390.0, 762.0)",[0.6166666666666667],[0.576],1,1627.283
6,False,319,0.355,21,[],[],"[(1125, 893)]",[],[1],[60],[1.0],"[640.0, 512.0]",vertical,"(890.0, 762.0)",[0.5166666666666666],[0.619],1,1630.81
6,False,320,0.784,47,[],[],"[(1152, 903)]",[],[1],[90],[1.5],"[640.0, 512.0]",horizontal,"(390.0, 262.0)",[1.2166666666666666],[0.694],1,1633.871
6,False,321,0.805,48,[],[],"[(1146, 893)]",[],[1],[82],[1.3666666666666667],"[640.0, 512.0]",vertical,"(390.0, 762.0)",[0.75],[0.539],1,1638.091
6,False,322,0.749,44,[],[],"[(1123, 898)]",[],[1],[77],[1.2833333333333332],"[640.0, 512.0]",horizontal,"(390.0, 762.0)",[1.0666666666666667],[0.523],1,1641.776
6,False,323,1.132,67,[],[],"[(1125, 903)]",[],[1],[98],[1.6333333333333333],"[640.0, 512.0]",vertical,"(890.0, 262.0)",[1.3],[0.496],1,1645.637
6,False,324,0.525,31,[],[],"[(1142, 880)]",[],[1],[69],[1.15],"[640.0, 512.0]",vertical,"(890.0, 762.0)",[0.55],[0.606],1,1650.052
6,False,325,0.55,33,[],[],"[(1166, 894)]",[],[1],[65],[1.0833333333333333],"[640.0, 512.0]",horizontal,"(890.0, 262.0)",[1.3666666666666667],[0.508],1,1653.254
6,False,326,1.457,87,[],[],"[(1160, 877)]",[],[1],[126],[2.1],"[640.0, 512.0]",horizontal,"(390.0, 262.0)",[1.4],[0.625],1,1657.184
6,False,327,1.324,79,[],[],"[(1149, 896)]",[],[1],[112],[1.8666666666666667],"[640.0, 512.0]",vertical,"(390.0, 762.0)",[1.6],[0.527],1,1662.157
6,False,328,0.573,34,[],[],"[(1153, 880)]",[],[1],[66],[1.1],"[640.0, 512.0]",vertical,"(390.0, 262.0)",[0.6333333333333333],[0.509],1,1667.072
6,False,329,0.662,39,[],[],"[(1153, 892)]",[],[1],[74],[1.2333333333333334],"[640.0, 512.0]",vertical,"(890.0, 762.0)",[0.5333333333333333],[0.558],1,1670.298
6,False,330,1.367,82,[],[],"[(1134, 890)]",[],[1],[119],[1.9833333333333334],"[640.0, 512.0]",horizontal,"(890.0, 262.0)",[0.95],[0.586],1,1673.585
6,False,331,0.858,51,[],[],"[(1136, 891)]",[],[1],[84],[1.4],"[640.0, 512.0]",vertical,"(390.0, 762.0)",[1.2833333333333332],[0.532],1,1678.027
6,False,332,1.042,62,[],[],"[(1131, 886)]",[],[1],[94],[1.5666666666666667],"[640.0, 512.0]",horizontal,"(890.0, 762.0)",[0.85],[0.51],1,1682.25
6,False,333,0.742,44,[],[],"[(1123, 897)]",[],[1],[76],[1.2666666666666666],"[640.0, 512.0]",horizontal,"(390.0, 262.0)",[1.1166666666666667],[0.511],1,1686.172
6,False,334,1.152,69,[],[],"[(1153, 890)]",[],[1],[71],[1.1833333333333333],"[640.0, 512.0]",vertical,"(890.0, 262.0)",[1.6333333333333333],[0.017],1,1690.101
6,False,335,0.68,40,[],[],"[(1157, 886)]",[],[1],[73],[1.2166666666666666],"[640.0, 512.0]",horizontal,"(390.0, 762.0)",[0.5666666666666667],[0.524],1,1694.371
6,False,336,0.954,57,[],[],"[(1133, 880)]",[],[1],[91],[1.5166666666666666],"[640.0, 512.0]",vertical,"(390.0, 262.0)",[0.9166666666666666],[0.543],1,1697.68
6,False,337,0.873,52,[],[],"[(1149, 867)]",[],[1],[84],[1.4],"[640.0, 512.0]",horizontal,"(890.0, 262.0)",[1.2666666666666666],[0.508],1,1701.581
6,False,338,0.361,21,[],[],"[(1160, 875)]",[],[1],[53],[0.8833333333333333],"[640.0, 512.0]",horizontal,"(390.0, 262.0)",[0.8166666666666667],[0.512],1,1705.788
6,False,339,0.768,46,[],[],"[(1116, 882)]",[],[1],[77],[1.2833333333333332],"[640.0, 512.0]",vertical,"(890.0, 262.0)",[1.5],[0.496],1,1709.0
6,False,340,1.024,61,[],[],"[(1125, 888)]",[],[1],[98],[1.6333333333333333],"[640.0, 512.0]",horizontal,"(390.0, 762.0)",[0.5333333333333333],[0.586],1,1713.315
6,False,341,0.386,23,[],[],"[(1127, 891)]",[],[1],[54],[0.9],"[640.0, 512.0]",vertical,"(390.0, 262.0)",[1.2666666666666666],[0.494],1,1716.994
6,False,342,1.418,85,[],[],"[(1131, 880)]",[],[1],[126],[2.1],"[640.0, 512.0]",horizontal,"(390.0, 262.0)",[1.4833333333333334],[0.651],1,1720.697
6,False,343,0.477,28,[],[],"[(1118, 899)]",[],[1],[60],[1.0],"[640.0, 512.0]",vertical,"(390.0, 762.0)",[0.8833333333333333],[0.514],1,1725.769
6,False,344,0.488,29,[],[],"[(1131, 876)]",[],[1],[62],[1.0333333333333332],"[640.0, 512.0]",vertical,"(890.0, 262.0)",[0.5666666666666667],[0.522],1,1729.155
6,False,345,0.424,25,[],[],"[(1148, 879)]",[],[1],[62],[1.0333333333333332],"[640.0, 512.0]",horizontal,"(890.0, 262.0)",[0.6],[0.592],1,1732.242
6,False,346,1.232,73,[],[],"[(1142, 905)]",[],[1],[104],[1.7333333333333334],"[640.0, 512.0]",horizontal,"(890.0, 262.0)",[0.5333333333333333],[0.488],1,1735.372
6,False,347,0.778,46,[],[],"[(1157, 894)]",[],[1],[77],[1.2833333333333332],"[640.0, 512.0]",vertical,"(390.0, 262.0)",[0.5833333333333334],[0.489],1,1739.126
6,False,348,1.465,87,[],[],"[(1095, 890)]",[],[1],[115],[1.9166666666666667],"[640.0, 512.0]",horizontal,"(890.0, 262.0)",[1.3333333333333333],[0.439],1,1742.512
6,False,349,0.839,50,[],[],"[(1177, 876)]",[],[1],[85],[1.4166666666666667],"[640.0, 512.0]",horizontal,"(890.0, 262.0)",[1.2666666666666666],[0.559],1,1747.288
6,False,350,0.602,36,[],[],"[(1178, 897)]",[],[1],[71],[1.1833333333333333],"[640.0, 512.0]",horizontal,"(890.0, 762.0)",[0.9666666666666667],[0.559],1,1751.437
6,False,351,0.453,27,[],[],"[(1160, 900)]",[],[1],[57],[0.95],"[640.0, 512.0]",vertical,"(390.0, 262.0)",[1.45],[0.469],1,1755.152
6,False,352,0.82,49,[],[],"[(1129, 885)]",[],[1],[81],[1.35],"[640.0, 512.0]",horizontal,"(390.0, 762.0)",[1.4],[0.515],1,1759.05
6,False,353,1.084,65,[],[],"[(1127, 899)]",[],[1],[96],[1.6],"[640.0, 512.0]",horizontal,"(890.0, 262.0)",[1.4666666666666666],[0.49],1,1763.305
6,False,354,1.465,87,[],[],"[(1102, 897)]",[],[1],[125],[2.0833333333333335],"[640.0, 512.0]",vertical,"(390.0, 762.0)",[0.5666666666666667],[0.603],1,1768.306
6,False,355,1.057,63,[],[],"[(1093, 905)]",[],[1],[96],[1.6],"[640.0, 512.0]",vertical,"(890.0, 762.0)",[1.4666666666666666],[0.526],1,1772.423
6,False,356,0.684,41,[],[],"[(1150, 889)]",[],[1],[73],[1.2166666666666666],"[640.0, 512.0]",horizontal,"(390.0, 262.0)",[1.05],[0.506],1,1777.287
6,False,357,0.75,45,[],[],"[(1130, 894)]",[],[1],[77],[1.2833333333333332],"[640.0, 512.0]",horizontal,"(890.0, 762.0)",[0.9166666666666666],[0.51],1,1781.051
6,False,358,0.606,36,[],[],"[(1112, 884)]",[],[1],[72],[1.2],"[640.0, 512.0]",horizontal,"(390.0, 762.0)",[1.3],[0.575],1,1784.913
6,False,359,0.377,22,[],[],"[(1122, 872)]",[],[1],[59],[0.9833333333333333],"[640.0, 512.0]",vertical,"(890.0, 262.0)",[1.5],[0.59],1,1788.922
6,False,360,0.328,19,[],[],"[(1094, 894)]",[],[1],[52],[0.8666666666666667],"[640.0, 512.0]",vertical,"(890.0, 762.0)",[1.55],[0.519],1,1792.86
7,False,361,0.362,21,[],[],"[(1136, 875)]",[],[1],[49],[0.8166666666666667],"[640.0, 512.0]",vertical,"(390.0, 262.0)",[1.3666666666666667],[0.444],1,1796.793
7,False,362,0.959,57,[],[],"[(1162, 881)]",[],[1],[99],[1.65],"[640.0, 512.0]",horizontal,"(890.0, 762.0)",[1.1],[0.672],1,1800.449
7,False,363,0.893,53,[],[],"[(1153, 877)]",[],[1],[85],[1.4166666666666667],"[640.0, 512.0]",horizontal,"(390.0, 262.0)",[0.7666666666666666],[0.511],1,1804.673
7,False,364,0.388,23,[],[],"[(1136, 880)]",[],[1],[54],[0.9],"[640.0, 512.0]",vertical,"(890.0, 762.0)",[0.9666666666666667],[0.494],1,1808.343
7,False,365,0.597,35,[],[],"[(1126, 889)]",[],[1],[72],[1.2],"[640.0, 512.0]",horizontal,"(390.0, 262.0)",[0.7666666666666666],[0.588],1,1811.698
7,False,366,0.569,34,[],[],"[(1130, 885)]",[],[1],[67],[1.1166666666666667],"[640.0, 512.0]",vertical,"(890.0, 762.0)",[0.8166666666666667],[0.527],1,1815.175
7,False,367,0.525,31,[],[],"[(1129, 885)]",[],[1],[64],[1.0666666666666667],"[640.0, 512.0]",horizontal,"(890.0, 762.0)",[1.0333333333333332],[0.527],1,1818.599
7,False,368,0.938,56,[],[],"[(1123, 889)]",[],[1],[91],[1.5166666666666666],"[640.0, 512.0]",vertical,"(390.0, 762.0)",[1.0833333333333333],[0.554],1,1822.487
7,False,369,0.562,33,[],[],"[(1153, 889)]",[],[1],[64],[1.0666666666666667],"[640.0, 512.0]",vertical,"(390.0, 262.0)",[0.8833333333333333],[0.491],1,1826.583
7,False,370,1.258,75,[],[],"[(1093, 898)]",[],[1],[],[],"[640.0, 512.0]",vertical,"(390.0, 262.0)",[],[0],0,1830.055
7,False,371,0.534,32,[],[],"[(1160, 889)]",[],[1],[72],[1.2],"[640.0, 512.0]",horizontal,"(390.0, 262.0)",[1.05],[0.647],1,1834.184
7,False,372,1.076,64,[],[],"[(1131, 872)]",[],[1],[94],[1.5666666666666667],"[640.0, 512.0]",horizontal,"(890.0, 262.0)",[0.9833333333333333],[0.476],1,1839.47
7,False,373,0.429,25,[],[],"[(1142, 896)]",[],[1],[54],[0.9],"[640.0, 512.0]",horizontal,"(390.0, 262.0)",[1.15],[0.46],1,1843.522
7,False,374,1.399,83,[],[],"[(1129, 885)]",[],[1],[120],[2.0],"[640.0, 512.0]",vertical,"(890.0, 262.0)",[0.8333333333333334],[0.589],1,1847.066
7,False,375,1.143,68,[],[],"[(1129, 876)]",[],[1],[100],[1.6666666666666667],"[640.0, 512.0]",horizontal,"(390.0, 762.0)",[1.1166666666666667],[0.507],1,1851.392
7,False,376,0.438,26,[],[],"[(1151, 895)]",[],[1],[73],[1.2166666666666666],"[640.0, 512.0]",vertical,"(890.0, 762.0)",[1.2666666666666666],[0.755],1,1855.644
7,False,377,1.118,67,[],[],"[(1153, 876)]",[],[1],[100],[1.6666666666666667],"[640.0, 512.0]",vertical,"(890.0, 262.0)",[0.7],[0.518],1,1859.627
7,False,378,0.735,44,[],[],"[(1148, 894)]",[],[1],[77],[1.2833333333333332],"[640.0, 512.0]",vertical,"(890.0, 762.0)",[0.55],[0.525],1,1863.463
7,False,379,1.375,82,[],[],"[(1160, 876)]",[],[1],[113],[1.8833333333333333],"[640.0, 512.0]",horizontal,"(890.0, 262.0)",[0.7166666666666667],[0.492],1,1866.773
7,False,380,0.915,54,[],[],"[(1098, 886)]",[],[1],[97],[1.6166666666666667],"[640.0, 512.0]",vertical,"(390.0, 762.0)",[0.8166666666666667],[0.688],1,1870.863
7,False,381,1.196,71,[],[],"[(1129, 894)]",[],[1],[104],[1.7333333333333334],"[640.0, 512.0]",vertical,"(890.0, 762.0)",[0.6333333333333333],[0.522],1,1874.781
7,False,382,0.476,28,[],[],"[(1153, 882)]",[],[1],[65],[1.0833333333333333],"[640.0, 512.0]",horizontal,"(390.0, 762.0)",[1.45],[0.583],1,1878.626
7,False,383,0.471,28,[],[],"[(1148, 875)]",[],[1],[72],[1.2],"[640.0, 512.0]",horizontal,"(890.0, 762.0)",[1.2666666666666666],[0.698],1,1882.639
7,False,384,0.877,52,[],[],"[(1131, 880)]",[],[1],[84],[1.4],"[640.0, 512.0]",vertical,"(890.0, 762.0)",[1.5333333333333332],[0.507],1,1886.622
7,False,385,0.862,51,[],[],"[(1154, 890)]",[],[1],[85],[1.4166666666666667],"[640.0, 512.0]",horizontal,"(390.0, 762.0)",[0.8833333333333333],[0.536],1,1891.061
7,False,386,1.024,61,[],[],"[(1105, 924)]",[],[1],[91],[1.5166666666666666],"[640.0, 512.0]",vertical,"(390.0, 262.0)",[1.0333333333333332],[0.479],1,1894.833
7,False,387,0.997,59,[],[],"[(1158, 892)]",[],[1],[93],[1.55],"[640.0, 512.0]",horizontal,"(390.0, 762.0)",[1.05],[0.54],1,1898.893
7,False,388,1.413,84,[],[],"[(1148, 899)]",[],[1],[112],[1.8666666666666667],"[640.0, 512.0]",vertical,"(390.0, 262.0)",[1.3333333333333333],[0.448],1,1902.96
7,False,389,0.313,18,[],[],"[(1153, 870)]",[],[1],[57],[0.95],"[640.0, 512.0]",horizontal,"(890.0, 262.0)",[1.2166666666666666],[0.622],1,1907.645
7,False,390,1.49,89,[],[],"[(1152, 869)]",[],[1],[119],[1.9833333333333334],"[640.0, 512.0]",horizontal,"(390.0, 262.0)",[1.3666666666666667],[0.475],1,1911.319
7,False,391,0.808,48,[],[],"[(1110, 900)]",[],[1],[76],[1.2666666666666666],"[640.0, 512.0]",vertical,"(390.0, 262.0)",[1.65],[0.442],1,1916.108
7,False,392,1.088,65,[],[],"[(1134, 878)]",[],[1],[96],[1.6],"[640.0, 512.0]",vertical,"(890.0, 762.0)",[1.5333333333333332],[0.491],1,1920.557
7,False,393,1.226,73,[],[],"[(1153, 875)]",[],[1],[105],[1.75],"[640.0, 512.0]",horizontal,"(390.0, 262.0)",[0.8],[0.507],1,1925.171
7,False,394,1.325,79,[],[],"[(1123, 876)]",[],[1],[109],[1.8166666666666667],"[640.0, 512.0]",horizontal,"(890.0, 762.0)",[0.9],[0.475],1,1929.188
7,False,395,1.493,89,[],[],"[(1152, 891)]",[],[1],[120],[2.0],"[640.0, 512.0]",vertical,"(890.0, 762.0)",[1.6333333333333333],[0.496],1,1933.4
7,False,396,0.821,49,[],[],"[(1145, 876)]",[],[1],[92],[1.5333333333333332],"[640.0, 512.0]",horizontal,"(890.0, 762.0)",[1.4333333333333333],[0.688],1,1938.483
7,False,397,1.261,75,[],[],"[(1150, 899)]",[],[1],[105],[1.75],"[640.0, 512.0]",vertical,"(390.0, 762.0)",[1.45],[0.473],1,1942.905
7,False,398,1.163,69,[],[],"[(1136, 876)]",[],[1],[119],[1.9833333333333334],"[640.0, 512.0]",horizontal,"(890.0, 262.0)",[1.55],[0.799],0,1947.599
7,False,399,1.486,89,[],[],"[(1093, 889)]",[],[1],[139],[2.3166666666666664],"[640.0, 512.0]",vertical,"(890.0, 762.0)",[0.75],[0.807],0,1952.552
7,False,400,1.311,78,[],[],"[(1145, 891)]",[],[1],[106],[1.7666666666666666],"[640.0, 512.0]",horizontal,"(890.0, 262.0)",[1.5666666666666667],[0.441],1,1963.521
7,False,401,1.443,86,[],[],"[(1069, 899)]",[],[1],[136],[2.2666666666666666],"[640.0, 512.0]",horizontal,"(390.0, 262.0)",[1.5833333333333333],[0.799],0,1968.334
7,False,402,0.746,44,[],[],"[(1177, 899)]",[],[1],[77],[1.2833333333333332],"[640.0, 512.0]",vertical,"(390.0, 762.0)",[1.1833333333333333],[0.529],1,1973.957
7,False,403,0.839,50,[],[],"[(1103, 905)]",[],[1],[86],[1.4333333333333333],"[640.0, 512.0]",vertical,"(390.0, 762.0)",[0.6166666666666667],[0.572],1,1977.94
7,False,404,0.353,21,[],[],"[(1099, 894)]",[],[1],[52],[0.8666666666666667],"[640.0, 512.0]",horizontal,"(390.0, 262.0)",[0.9],[0.489],1,1981.469
7,False,405,1.398,83,[],[],"[(1154, 888)]",[],[1],[122],[2.033333333333333],"[640.0, 512.0]",horizontal,"(390.0, 762.0)",[1.3833333333333333],[0.619],1,1984.757
7,False,406,0.674,40,[],[],"[(1109, 894)]",[],[1],[49],[0.8166666666666667],"[640.0, 512.0]",horizontal,"(890.0, 262.0)",[1.4666666666666666],[0.133],1,1989.692
7,False,407,0.396,23,[],[],"[(1177, 893)]",[],[1],[64],[1.0666666666666667],"[640.0, 512.0]",horizontal,"(390.0, 762.0)",[1.0],[0.651],1,1993.472
7,False,408,0.747,44,[],[],"[(1148, 872)]",[],[1],[79],[1.3166666666666667],"[640.0, 512.0]",vertical,"(890.0, 762.0)",[0.5166666666666666],[0.559],1,1996.985
7,False,409,1.12,67,[],[],"[(1156, 889)]",[],[1],[98],[1.6333333333333333],"[640.0, 512.0]",horizontal,"(890.0, 262.0)",[0.5],[0.492],1,2000.606
7,False,410,1.029,61,[],[],"[(1113, 902)]",[],[1],[95],[1.5833333333333333],"[640.0, 512.0]",horizontal,"(390.0, 762.0)",[0.5833333333333334],[0.542],1,2004.256
7,False,411,0.682,40,[],[],"[(1149, 895)]",[],[1],[74],[1.2333333333333334],"[640.0, 512.0]",vertical,"(890.0, 762.0)",[1.6833333333333333],[0.538],1,2007.936
7,False,412,0.604,36,[],[],"[(1190, 884)]",[],[1],[81],[1.35],"[640.0, 512.0]",vertical,"(390.0, 762.0)",[0.95],[0.715],1,2012.385
7,False,413,1.024,61,[],[],"[(1142, 900)]",[],[1],[93],[1.55],"[640.0, 512.0]",horizontal,"(390.0, 262.0)",[1.3833333333333333],[0.508],1,2016.166
7,False,414,0.311,18,[],[],"[(1190, 867)]",[],[1],[51],[0.85],"[640.0, 512.0]",horizontal,"(890.0, 762.0)",[1.2833333333333332],[0.521],1,2020.724
7,False,415,0.333,19,[],[],"[(1184, 892)]",[],[1],[57],[0.95],"[640.0, 512.0]",horizontal,"(390.0, 762.0)",[1.15],[0.61],1,2024.401
7,False,416,0.531,31,[],[],"[(1159, 880)]",[],[1],[54],[0.9],"[640.0, 512.0]",horizontal,"(890.0, 762.0)",[1.55],[0.363],1,2027.984
7,False,417,0.692,41,[],[],"[(1176, 876)]",[],[1],[73],[1.2166666666666666],"[640.0, 512.0]",horizontal,"(890.0, 762.0)",[1.0166666666666666],[0.507],1,2031.964
7,False,418,0.987,59,[],[],"[(1143, 883)]",[],[1],[91],[1.5166666666666666],"[640.0, 512.0]",horizontal,"(890.0, 762.0)",[1.4],[0.503],1,2035.707
7,False,419,1.468,88,[],[],"[(1172, 885)]",[],[1],[122],[2.033333333333333],"[640.0, 512.0]",vertical,"(390.0, 762.0)",[1.55],[0.537],1,2040.107
7,False,420,1.258,75,[],[],"[(1160, 870)]",[],[1],[102],[1.7],"[640.0, 512.0]",vertical,"(890.0, 262.0)",[1.1833333333333333],[0.43],1,2045.147
8,False,421,0.82,49,[],[],"[(1152, 870)]",[],[1],[81],[1.35],"[640.0, 512.0]",horizontal,"(890.0, 262.0)",[0.6833333333333333],[0.507],1,2049.539
8,False,422,0.445,26,[],[],"[(1150, 888)]",[],[1],[59],[0.9833333333333333],"[640.0, 512.0]",vertical,"(890.0, 262.0)",[0.5666666666666667],[0.524],1,2053.085
8,False,423,0.729,43,[],[],"[(1160, 887)]",[],[1],[76],[1.2666666666666666],"[640.0, 512.0]",vertical,"(890.0, 262.0)",[1.6],[0.521],1,2056.232
8,False,424,1.05,63,[],[],"[(1155, 886)]",[],[1],[],[],"[640.0, 512.0]",vertical,"(390.0, 262.0)",[],[0],0,2060.603
8,False,425,1.242,74,[],[],"[(1124, 863)]",[],[1],[101],[1.6833333333333333],"[640.0, 512.0]",vertical,"(390.0, 262.0)",[1.4333333333333333],[0.425],1,2064.405
8,False,426,0.701,42,[],[],"[(1157, 893)]",[],[1],[76],[1.2666666666666666],"[640.0, 512.0]",vertical,"(390.0, 262.0)",[0.8],[0.537],1,2070.035
8,False,427,1.135,68,[],[],"[(1167, 870)]",[],[1],[98],[1.6333333333333333],"[640.0, 512.0]",vertical,"(390.0, 262.0)",[0.85],[0.476],1,2073.658
8,False,428,0.441,26,[],[],"[(1153, 871)]",[],[1],[62],[1.0333333333333332],"[640.0, 512.0]",vertical,"(890.0, 762.0)",[1.1],[0.576],1,2077.703
8,False,429,0.959,57,[],[],"[(1142, 876)]",[],[1],[87],[1.45],"[640.0, 512.0]",vertical,"(890.0, 762.0)",[1.5833333333333333],[0.48],1,2081.415
8,False,430,0.738,44,[],[],"[(1105, 893)]",[],[1],[74],[1.2333333333333334],"[640.0, 512.0]",horizontal,"(390.0, 262.0)",[1.4166666666666667],[0.48],1,2085.961
8,False,431,0.882,52,[],[],"[(1163, 885)]",[],[1],[87],[1.45],"[640.0, 512.0]",vertical,"(390.0, 762.0)",[1.4166666666666667],[0.557],1,2090.088
8,False,432,1.455,87,[],[],"[(1172, 882)]",[],[1],[],[],"[640.0, 512.0]",vertical,"(890.0, 262.0)",[],[0],0,2094.439
8,False,433,0.631,37,[],[],"[(1132, 891)]",[],[1],[70],[1.1666666666666667],"[640.0, 512.0]",vertical,"(890.0, 762.0)",[1.0833333333333333],[0.525],1,2098.21
8,False,434,1.313,78,[],[],"[(1150, 896)]",[],[1],[111],[1.8499999999999999],"[640.0, 512.0]",horizontal,"(390.0, 262.0)",[0.55],[0.524],1,2102.738
8,False,435,1.102,66,[],[],"[(1159, 884)]",[],[1],[97],[1.6166666666666667],"[640.0, 512.0]",horizontal,"(390.0, 262.0)",[1.6],[0.49],1,2106.656
8,False,436,0.914,54,[],[],"[(1112, 870)]",[],[1],[87],[1.45],"[640.0, 512.0]",vertical,"(390.0, 262.0)",[1.3],[0.524],1,2111.39
8,False,437,0.987,59,[],[],"[(1114, 886)]",[],[1],[90],[1.5],"[640.0, 512.0]",vertical,"(890.0, 262.0)",[0.7],[0.491],1,2118.037
8,False,438,1.26,75,[],[],"[(1176, 879)]",[],[1],[111],[1.8499999999999999],"[640.0, 512.0]",horizontal,"(390.0, 762.0)",[1.2666666666666666],[0.575],1,2121.74
8,False,439,0.995,59,[],[],"[(1107, 887)]",[],[1],[93],[1.55],"[640.0, 512.0]",vertical,"(890.0, 762.0)",[1.1166666666666667],[0.543],1,2126.365
8,False,440,1.5,90,[],[],"[(1111, 905)]",[],[1],[125],[2.0833333333333335],"[640.0, 512.0]",horizontal,"(890.0, 762.0)",[1.05],[0.559],1,2130.562
8,False,441,0.776,46,[],[],"[(1176, 885)]",[],[1],[79],[1.3166666666666667],"[640.0, 512.0]",horizontal,"(390.0, 262.0)",[1.5833333333333333],[0.53],1,2135.218
8,False,442,1.406,84,[],[],"[(1132, 872)]",[],[1],[116],[1.9333333333333333],"[640.0, 512.0]",horizontal,"(390.0, 762.0)",[0.6],[0.507],1,2139.62
8,False,443,0.576,34,[],[],"[(1136, 888)]",[],[1],[67],[1.1166666666666667],"[640.0, 512.0]",horizontal,"(390.0, 262.0)",[1.3833333333333333],[0.522],1,2143.648
8,False,444,1.291,77,[],[],"[(1112, 884)]",[],[1],[109],[1.8166666666666667],"[640.0, 512.0]",horizontal,"(390.0, 262.0)",[1.0],[0.507],1,2147.587
8,False,445,0.385,23,[],[],"[(1160, 903)]",[],[1],[73],[1.2166666666666666],"[640.0, 512.0]",horizontal,"(890.0, 262.0)",[0.5666666666666667],[0.799],0,2151.962
8,False,446,1.465,87,[],[],"[(1178, 866)]",[],[1],[118],[1.9666666666666666],"[640.0, 512.0]",horizontal,"(890.0, 762.0)",[0.7833333333333333],[0.492],1,2155.254
8,False,447,1.353,81,[],[],"[(1184, 880)]",[],[1],[107],[1.7833333333333332],"[640.0, 512.0]",horizontal,"(890.0, 262.0)",[1.15],[0.408],1,2159.574
8,False,448,1.129,67,[],[],"[(1123, 864)]",[],[1],[101],[1.6833333333333333],"[640.0, 512.0]",horizontal,"(390.0, 262.0)",[1.5333333333333332],[0.542],1,2164.052
8,False,449,1.222,73,[],[],"[(1112, 882)]",[],[1],[107],[1.7833333333333332],"[640.0, 512.0]",horizontal,"(890.0, 262.0)",[1.1666666666666667],[0.541],1,2168.775
8,False,450,1.412,84,[],[],"[(1148, 879)]",[],[1],[],[],"[640.0, 512.0]",vertical,"(390.0, 262.0)",[],[0],0,2173.235
8,False,451,0.634,38,[],[],"[(1115, 868)]",[],[1],[87],[1.45],"[640.0, 512.0]",horizontal,"(890.0, 262.0)",[1.4],[0.782],1,2177.555
8,False,452,1.144,68,[],[],"[(1117, 889)]",[],[1],[103],[1.7166666666666666],"[640.0, 512.0]",horizontal,"(390.0, 762.0)",[1.0333333333333332],[0.559],1,2182.032
8,False,453,1.285,77,[],[],"[(1113, 894)]",[],[1],[108],[1.8],"[640.0, 512.0]",vertical,"(890.0, 762.0)",[1.0],[0.488],1,2186.253
8,False,454,1.386,83,[],[],"[(1123, 889)]",[],[1],[115],[1.9166666666666667],"[640.0, 512.0]",horizontal,"(390.0, 262.0)",[1.15],[0.51],1,2190.637
8,False,455,0.586,35,[],[],"[(1136, 866)]",[],[1],[66],[1.1],"[640.0, 512.0]",horizontal,"(390.0, 262.0)",[0.9833333333333333],[0.494],1,2195.191
8,False,456,0.49,29,[],[],"[(1133, 887)]",[],[1],[63],[1.05],"[640.0, 512.0]",horizontal,"(390.0, 262.0)",[1.65],[0.536],1,2198.761
8,False,457,0.683,40,[],[],"[(1151, 874)]",[],[1],[73],[1.2166666666666666],"[640.0, 512.0]",vertical,"(890.0, 262.0)",[1.4833333333333334],[0.522],1,2202.942
8,False,458,1.196,71,[],[],"[(1139, 897)]",[],[1],[104],[1.7333333333333334],"[640.0, 512.0]",horizontal,"(890.0, 762.0)",[0.85],[0.525],1,2207.131
8,False,459,1.013,60,[],[],"[(1136, 888)]",[],[1],[93],[1.55],"[640.0, 512.0]",vertical,"(390.0, 262.0)",[0.5166666666666666],[0.525],1,2211.207
8,False,460,0.892,53,[],[],"[(1154, 883)]",[],[1],[60],[1.0],"[640.0, 512.0]",vertical,"(890.0, 262.0)",[1.4833333333333334],[0.1],1,2214.771
8,False,461,0.653,39,[],[],"[(1118, 901)]",[],[1],[75],[1.25],"[640.0, 512.0]",horizontal,"(390.0, 262.0)",[0.5666666666666667],[0.574],1,2218.761
8,False,462,0.422,25,[],[],"[(1111, 897)]",[],[1],[58],[0.9666666666666667],"[640.0, 512.0]",vertical,"(390.0, 762.0)",[0.5166666666666666],[0.522],1,2222.235
8,False,463,0.328,19,[],[],"[(1114, 900)]",[],[1],[52],[0.8666666666666667],"[640.0, 512.0]",vertical,"(890.0, 762.0)",[0.75],[0.521],1,2225.241
8,False,464,0.788,47,[],[],"[(1111, 889)]",[],[1],[77],[1.2833333333333332],"[640.0, 512.0]",vertical,"(890.0, 262.0)",[1.3],[0.477],1,2228.441
8,False,465,1.074,64,[],[],"[(1123, 865)]",[],[1],[97],[1.6166666666666667],"[640.0, 512.0]",horizontal,"(390.0, 762.0)",[1.25],[0.526],1,2232.557
8,False,466,0.5,30,[],[],"[(1117, 889)]",[],[1],[63],[1.05],"[640.0, 512.0]",horizontal,"(890.0, 262.0)",[1.2],[0.523],1,2236.913
8,False,467,0.479,28,[],[],"[(1114, 894)]",[],[1],[59],[0.9833333333333333],"[640.0, 512.0]",horizontal,"(390.0, 762.0)",[1.25],[0.492],1,2240.712
8,False,468,0.931,55,[],[],"[(1102, 889)]",[],[1],[90],[1.5],"[640.0, 512.0]",vertical,"(390.0, 762.0)",[1.0833333333333333],[0.563],1,2244.486
8,False,469,0.884,53,[],[],"[(1086, 889)]",[],[1],[93],[1.55],"[640.0, 512.0]",vertical,"(390.0, 762.0)",[1.0166666666666666],[0.634],1,2248.617
8,False,470,0.719,43,[],[],"[(1088, 897)]",[],[1],[78],[1.3],"[640.0, 512.0]",vertical,"(390.0, 262.0)",[1.5833333333333333],[0.554],1,2252.697
8,False,471,0.664,39,[],[],"[(1162, 883)]",[],[1],[73],[1.2166666666666666],"[640.0, 512.0]",horizontal,"(390.0, 262.0)",[1.5166666666666666],[0.54],1,2257.2
8,False,472,0.498,29,[],[],"[(1105, 896)]",[],[1],[68],[1.1333333333333333],"[640.0, 512.0]",horizontal,"(890.0, 762.0)",[1.1166666666666667],[0.625],1,2261.451
8,False,473,1.19,71,[],[],"[(1148, 894)]",[],[1],[100],[1.6666666666666667],"[640.0, 512.0]",horizontal,"(890.0, 262.0)",[1.3833333333333333],[0.458],1,2265.228
8,False,474,0.717,43,[],[],"[(1143, 892)]",[],[1],[76],[1.2666666666666666],"[640.0, 512.0]",vertical,"(390.0, 262.0)",[0.8833333333333333],[0.532],1,2269.788
8,False,475,1.086,65,[],[],"[(1143, 875)]",[],[1],[100],[1.6666666666666667],"[640.0, 512.0]",vertical,"(390.0, 762.0)",[1.1166666666666667],[0.556],1,2273.461
8,False,476,1.379,82,[],[],"[(1112, 892)]",[],[1],[108],[1.8],"[640.0, 512.0]",vertical,"(390.0, 262.0)",[0.8833333333333333],[0.411],1,2277.735
8,False,477,1.337,80,[],[],"[(1116, 896)]",[],[1],[114],[1.9],"[640.0, 512.0]",vertical,"(390.0, 762.0)",[1.6333333333333333],[0.542],1,2281.966
8,False,478,1.059,63,[],[],"[(1142, 888)]",[],[1],[98],[1.6333333333333333],"[640.0, 512.0]",horizontal,"(390.0, 762.0)",[0.9833333333333333],[0.557],1,2287.068
8,False,479,0.75,45,[],[],"[(1130, 881)]",[],[1],[79],[1.3166666666666667],"[640.0, 512.0]",vertical,"(390.0, 762.0)",[1.6166666666666667],[0.545],1,2291.254
8,False,480,0.688,41,[],[],"[(1122, 889)]",[],[1],[74],[1.2333333333333334],"[640.0, 512.0]",horizontal,"(890.0, 262.0)",[0.9833333333333333],[0.525],1,2295.665
9,False,481,0.372,22,[],[],"[(1148, 889)]",[],[1],[55],[0.9166666666666666],"[640.0, 512.0]",vertical,"(890.0, 262.0)",[0.8666666666666667],[0.527],1,2299.442
9,False,482,1.497,89,[],[],"[(1123, 893)]",[],[1],[95],[1.5833333333333333],"[640.0, 512.0]",vertical,"(390.0, 262.0)",[1.3833333333333333],[0.086],1,2302.762
9,False,483,0.873,52,[],[],"[(1122, 905)]",[],[1],[85],[1.4166666666666667],"[640.0, 512.0]",horizontal,"(890.0, 762.0)",[0.5],[0.525],1,2307.223
9,False,484,1.293,77,[],[],"[(1112, 889)]",[],[1],[113],[1.8833333333333333],"[640.0, 512.0]",vertical,"(890.0, 762.0)",[0.7666666666666666],[0.574],1,2310.708
9,False,485,1.479,88,[],[],"[(1132, 885)]",[],[1],[123],[2.05],"[640.0, 512.0]",horizontal,"(390.0, 762.0)",[0.65],[0.57],1,2314.921
9,False,486,0.613,36,[],[],"[(1099, 870)]",[],[1],[70],[1.1666666666666667],"[640.0, 512.0]",horizontal,"(890.0, 762.0)",[1.05],[0.541],1,2319.16
9,False,487,0.581,34,[],[],"[(1117, 903)]",[],[1],[67],[1.1166666666666667],"[640.0, 512.0]",horizontal,"(390.0, 762.0)",[1.2333333333333334],[0.527],1,2322.877
9,False,488,0.553,33,[],[],"[(1112, 900)]",[],[1],[69],[1.15],"[640.0, 512.0]",vertical,"(390.0, 762.0)",[1.6833333333333333],[0.572],1,2326.782
9,False,489,1.36,81,[],[],"[(1130, 883)]",[],[1],[116],[1.9333333333333333],"[640.0, 512.0]",vertical,"(890.0, 262.0)",[0.7333333333333333],[0.557],1,2331.107
9,False,490,0.693,41,[],[],"[(1112, 889)]",[],[1],[77],[1.2833333333333332],"[640.0, 512.0]",horizontal,"(390.0, 262.0)",[1.6333333333333333],[0.572],1,2335.365
9,False,491,0.89,53,[],[],"[(1120, 886)]",[],[1],[86],[1.4333333333333333],"[640.0, 512.0]",vertical,"(890.0, 762.0)",[0.9],[0.526],1,2339.837
9,False,492,0.53,31,[],[],"[(1123, 888)]",[],[1],[65],[1.0833333333333333],"[640.0, 512.0]",vertical,"(890.0, 762.0)",[1.3166666666666667],[0.545],1,2343.673
9,False,493,0.844,50,[],[],"[(1087, 918)]",[],[1],[85],[1.4166666666666667],"[640.0, 512.0]",horizontal,"(390.0, 762.0)",[0.85],[0.559],1,2347.576
9,False,494,0.32,19,[],[],"[(1156, 875)]",[],[1],[53],[0.8833333333333333],"[640.0, 512.0]",horizontal,"(890.0, 262.0)",[1.25],[0.54],1,2351.373
9,False,495,0.983,58,[],[],"[(1123, 898)]",[],[1],[91],[1.5166666666666666],"[640.0, 512.0]",vertical,"(890.0, 762.0)",[0.7833333333333333],[0.528],1,2354.982
9,False,496,1.01,60,[],[],"[(1178, 885)]",[],[1],[96],[1.6],"[640.0, 512.0]",vertical,"(890.0, 762.0)",[0.5666666666666667],[0.572],1,2358.844
9,False,497,0.587,35,[],[],"[(1152, 888)]",[],[1],[74],[1.2333333333333334],"[640.0, 512.0]",vertical,"(890.0, 762.0)",[0.65],[0.62],1,2362.524
9,False,498,1.016,60,[],[],"[(1124, 889)]",[],[1],[94],[1.5666666666666667],"[640.0, 512.0]",horizontal,"(890.0, 762.0)",[1.5833333333333333],[0.543],1,2365.892
9,False,499,1.265,75,[],[],"[(1105, 893)]",[],[1],[102],[1.7],"[640.0, 512.0]",vertical,"(890.0, 262.0)",[1.35],[0.426],1,2370.567
9,False,500,1.37,82,[],[],"[(1099, 887)]",[],[1],[128],[2.1333333333333333],"[640.0, 512.0]",vertical,"(390.0, 762.0)",[1.0833333333333333],[0.744],1,2375.115
9,False,501,1.332,79,[],[],"[(1117, 884)]",[],[1],[107],[1.7833333333333332],"[640.0, 512.0]",horizontal,"(390.0, 262.0)",[1.1166666666666667],[0.446],1,2379.966
9,False,502,1.221,73,[],[],"[(1099, 889)]",[],[1],[106],[1.7666666666666666],"[640.0, 512.0]",horizontal,"(390.0, 262.0)",[0.75],[0.525],1,2384.42
9,False,503,0.533,31,[],[],"[(1106, 889)]",[],[1],[72],[1.2],"[640.0, 512.0]",vertical,"(390.0, 762.0)",[0.65],[0.66],1,2388.453
9,False,504,1.274,76,[],[],"[(1153, 857)]",[],[1],[106],[1.7666666666666666],"[640.0, 512.0]",vertical,"(890.0, 762.0)",[0.5833333333333334],[0.476],1,2391.819
9,False,505,1.2,72,[],[],"[(1117, 890)]",[],[1],[104],[1.7333333333333334],"[640.0, 512.0]",horizontal,"(890.0, 762.0)",[0.55],[0.509],1,2396.775
9,False,506,1.194,71,[],[],"[(1147, 873)]",[],[1],[102],[1.7],"[640.0, 512.0]",horizontal,"(890.0, 762.0)",[0.9666666666666667],[0.495],1,2400.533
9,False,507,1.239,74,[],[],"[(1113, 867)]",[],[1],[110],[1.8333333333333333],"[640.0, 512.0]",vertical,"(890.0, 262.0)",[1.3833333333333333],[0.576],1,2404.682
9,False,508,1.265,75,[],[],"[(1161, 889)]",[],[1],[105],[1.75],"[640.0, 512.0]",vertical,"(390.0, 262.0)",[0.85],[0.473],1,2409.452
9,False,509,1.126,67,[],[],"[(1154, 872)]",[],[1],[98],[1.6333333333333333],"[640.0, 512.0]",vertical,"(390.0, 762.0)",[1.55],[0.495],1,2413.553
9,False,510,0.464,27,[],[],"[(1152, 880)]",[],[1],[],[],"[640.0, 512.0]",horizontal,"(890.0, 762.0)",[],[0],0,2418.231
9,False,511,1.177,70,[],[],"[(1161, 863)]",[],[1],[106],[1.7666666666666666],"[640.0, 512.0]",horizontal,"(390.0, 262.0)",[1.25],[0.585],1,2420.356
9,False,512,1.408,84,[],[],"[(1143, 881)]",[],[1],[119],[1.9833333333333334],"[640.0, 512.0]",horizontal,"(390.0, 762.0)",[0.6666666666666666],[0.565],1,2424.958
9,False,513,1.34,80,[],[],"[(1125, 903)]",[],[1],[114],[1.9],"[640.0, 512.0]",horizontal,"(890.0, 262.0)",[0.9666666666666667],[0.538],1,2429.14
9,False,514,0.586,35,[],[],"[(1080, 881)]",[],[1],[67],[1.1166666666666667],"[640.0, 512.0]",vertical,"(890.0, 762.0)",[1.25],[0.51],1,2433.571
9,False,515,1.159,69,[],[],"[(1112, 887)]",[],[1],[103],[1.7166666666666666],"[640.0, 512.0]",horizontal,"(390.0, 262.0)",[0.75],[0.547],1,2437.453
9,False,516,1.222,73,[],[],"[(1153, 880)]",[],[1],[105],[1.75],"[640.0, 512.0]",horizontal,"(890.0, 762.0)",[1.2],[0.507],1,2441.483
9,False,517,0.541,32,[],[],"[(1160, 899)]",[],[1],[70],[1.1666666666666667],"[640.0, 512.0]",horizontal,"(390.0, 262.0)",[0.8666666666666667],[0.61],1,2445.896
9,False,518,0.527,31,[],[],"[(1169, 878)]",[],[1],[65],[1.0833333333333333],"[640.0, 512.0]",vertical,"(390.0, 762.0)",[1.25],[0.542],1,2449.417
9,False,519,0.661,39,[],[],"[(1120, 875)]",[],[1],[71],[1.1833333333333333],"[640.0, 512.0]",vertical,"(890.0, 762.0)",[0.9666666666666667],[0.512],1,2453.238
9,False,520,0.897,53,[],[],"[(1146, 882)]",[],[1],[82],[1.3666666666666667],"[640.0, 512.0]",horizontal,"(890.0, 262.0)",[1.4],[0.464],1,2456.928
9,False,521,0.632,37,[],[],"[(1136, 894)]",[],[1],[70],[1.1666666666666667],"[640.0, 512.0]",vertical,"(890.0, 262.0)",[0.55],[0.528],1,2461.191
9,False,522,1.403,84,[],[],"[(1149, 880)]",[],[1],[118],[1.9666666666666666],"[640.0, 512.0]",vertical,"(890.0, 762.0)",[1.6],[0.54],1,2464.425
9,False,523,0.488,29,[],[],"[(1105, 898)]",[],[1],[62],[1.0333333333333332],"[640.0, 512.0]",vertical,"(890.0, 762.0)",[0.8666666666666667],[0.524],1,2469.493
9,False,524,1.458,87,[],[],"[(1137, 882)]",[],[1],[133],[2.216666666666667],"[640.0, 512.0]",horizontal,"(390.0, 262.0)",[0.9],[0.743],1,2473.155
9,False,525,1.155,69,[],[],"[(1109, 894)]",[],[1],[103],[1.7166666666666666],"[640.0, 512.0]",vertical,"(390.0, 762.0)",[0.7833333333333333],[0.549],1,2477.775
9,False,526,0.478,28,[],[],"[(1121, 899)]",[],[1],[64],[1.0666666666666667],"[640.0, 512.0]",horizontal,"(890.0, 262.0)",[0.5833333333333334],[0.576],1,2481.82
9,False,527,0.588,35,[],[],"[(1081, 902)]",[],[1],[71],[1.1833333333333333],"[640.0, 512.0]",horizontal,"(890.0, 262.0)",[1.1666666666666667],[0.577],1,2484.973
9,False,528,0.479,28,[],[],"[(1190, 923)]",[],[1],[67],[1.1166666666666667],"[640.0, 512.0]",vertical,"(390.0, 262.0)",[1.1833333333333333],[0.629],1,2488.958
9,False,529,1.023,61,[],[],"[(1112, 935)]",[],[1],[93],[1.55],"[640.0, 512.0]",horizontal,"(890.0, 762.0)",[1.6166666666666667],[0.509],1,2540.621
9,False,530,0.443,26,[],[],"[(1123, 899)]",[],[1],[59],[0.9833333333333333],"[640.0, 512.0]",horizontal,"(890.0, 762.0)",[0.9166666666666666],[0.526],1,2545.285
9,False,531,1.493,89,[],[],"[(1080, 898)]",[],[1],[121],[2.0166666666666666],"[640.0, 512.0]",horizontal,"(390.0, 762.0)",[0.7166666666666667],[0.506],1,2548.689
9,False,532,0.522,31,[],[],"[(1083, 892)]",[],[1],[65],[1.0833333333333333],"[640.0, 512.0]",horizontal,"(890.0, 262.0)",[0.7666666666666666],[0.544],1,2553.038
9,False,533,1.033,61,[],[],"[(1121, 883)]",[],[1],[94],[1.5666666666666667],"[640.0, 512.0]",horizontal,"(390.0, 262.0)",[0.9666666666666667],[0.524],1,2556.372
9,False,534,0.903,54,[],[],"[(1172, 889)]",[],[1],[89],[1.4833333333333334],"[640.0, 512.0]",horizontal,"(890.0, 262.0)",[0.6666666666666666],[0.559],1,2560.436
9,False,535,1.235,74,[],[],"[(1116, 885)]",[],[1],[107],[1.7833333333333332],"[640.0, 512.0]",vertical,"(890.0, 262.0)",[0.6666666666666666],[0.527],1,2623.449
9,False,536,0.475,28,[],[],"[(1149, 905)]",[],[1],[64],[1.0666666666666667],"[640.0, 512.0]",horizontal,"(890.0, 762.0)",[0.6166666666666667],[0.575],1,2627.402
9,False,537,1.159,69,[],[],"[(1118, 899)]",[],[1],[102],[1.7],"[640.0, 512.0]",horizontal,"(390.0, 762.0)",[1.5],[0.531],1,2630.687
9,False,538,1.423,85,[],[],"[(1176, 904)]",[],[1],[125],[2.0833333333333335],"[640.0, 512.0]",vertical,"(390.0, 762.0)",[1.3333333333333333],[0.639],1,2635.448
9,False,539,1.136,68,[],[],"[(1107, 899)]",[],[1],[104],[1.7333333333333334],"[640.0, 512.0]",horizontal,"(390.0, 762.0)",[1.3],[0.574],1,2641.841
9,False,540,1.124,67,[],[],"[(1148, 894)]",[],[1],[97],[1.6166666666666667],"[640.0, 512.0]",vertical,"(890.0, 762.0)",[1.35],[0.479],1,2646.401
10,False,541,0.774,46,[],[],"[(1123, 888)]",[],[1],[78],[1.3],"[640.0, 512.0]",horizontal,"(390.0, 762.0)",[1.3833333333333333],[0.51],1,2650.876
10,False,542,0.954,57,[],[],"[(1091, 885)]",[],[1],[93],[1.55],"[640.0, 512.0]",vertical,"(890.0, 762.0)",[1.1333333333333333],[0.576],1,2655.038
10,False,543,1.012,60,[],[],"[(1111, 889)]",[],[1],[95],[1.5833333333333333],"[640.0, 512.0]",horizontal,"(890.0, 762.0)",[0.9],[0.558],1,2659.247
10,False,544,1.234,74,[],[],"[(1115, 882)]",[],[1],[110],[1.8333333333333333],"[640.0, 512.0]",vertical,"(390.0, 262.0)",[1.1],[0.576],1,2663.342
10,False,545,0.969,58,[],[],"[(1135, 885)]",[],[1],[95],[1.5833333333333333],"[640.0, 512.0]",horizontal,"(890.0, 262.0)",[0.5833333333333334],[0.594],1,2667.817
10,False,546,1.248,74,[],[],"[(1154, 870)]",[],[1],[106],[1.7666666666666666],"[640.0, 512.0]",vertical,"(390.0, 262.0)",[0.85],[0.508],1,2671.603
10,False,547,0.706,42,[],[],"[(1105, 882)]",[],[1],[82],[1.3666666666666667],"[640.0, 512.0]",vertical,"(890.0, 762.0)",[1.6333333333333333],[0.643],1,2675.725
10,False,548,0.907,54,[],[],"[(1118, 889)]",[],[1],[90],[1.5],"[640.0, 512.0]",horizontal,"(890.0, 762.0)",[1.4833333333333334],[0.579],1,2680.294
10,False,549,1.122,67,[],[],"[(1118, 878)]",[],[1],[109],[1.8166666666666667],"[640.0, 512.0]",horizontal,"(890.0, 762.0)",[1.15],[0.671],1,2684.818
10,False,550,0.329,19,[],[],"[(1119, 892)]",[],[1],[59],[0.9833333333333333],"[640.0, 512.0]",horizontal,"(890.0, 762.0)",[1.3833333333333333],[0.637],1,2689.504
10,False,551,1.214,72,[],[],"[(1184, 909)]",[],[1],[108],[1.8],"[640.0, 512.0]",horizontal,"(890.0, 762.0)",[1.2666666666666666],[0.574],1,2693.524
10,False,552,0.652,39,[],[],"[(1148, 912)]",[],[1],[72],[1.2],"[640.0, 512.0]",horizontal,"(890.0, 762.0)",[0.7666666666666666],[0.527],1,2936.603
10,False,553,1.433,85,[],[],"[(1125, 907)]",[],[1],[120],[2.0],"[640.0, 512.0]",vertical,"(890.0, 762.0)",[0.9833333333333333],[0.555],1,2940.128
10,False,554,0.694,41,[],[],"[(1099, 908)]",[],[1],[75],[1.25],"[640.0, 512.0]",horizontal,"(390.0, 762.0)",[0.7166666666666667],[0.542],1,2944.624
10,False,555,0.335,20,[],[],"[(1117, 881)]",[],[1],[52],[0.8666666666666667],"[640.0, 512.0]",horizontal,"(390.0, 762.0)",[0.6],[0.511],1,2948.119
10,False,556,0.365,21,[],[],"[(1136, 906)]",[],[1],[54],[0.9],"[640.0, 512.0]",vertical,"(890.0, 262.0)",[0.8666666666666667],[0.524],1,2951.14
10,False,557,0.976,58,[],[],"[(1123, 892)]",[],[1],[94],[1.5666666666666667],"[640.0, 512.0]",vertical,"(390.0, 762.0)",[1.5],[0.568],1,2954.429
10,False,558,0.382,22,[],[],"[(1146, 896)]",[],[1],[57],[0.95],"[640.0, 512.0]",horizontal,"(890.0, 262.0)",[0.5833333333333334],[0.554],1,2958.927
10,False,559,0.819,49,[],[],"[(1148, 894)]",[],[1],[81],[1.35],"[640.0, 512.0]",horizontal,"(890.0, 262.0)",[1.5833333333333333],[0.51],1,2962.061
10,False,560,0.398,23,[],[],"[(1149, 888)]",[],[1],[58],[0.9666666666666667],"[640.0, 512.0]",horizontal,"(390.0, 262.0)",[1.4],[0.556],1,2966.511
10,False,561,0.351,21,[],[],"[(1153, 899)]",[],[1],[51],[0.85],"[640.0, 512.0]",vertical,"(890.0, 262.0)",[1.55],[0.474],1,2970.354
10,False,562,0.44,26,[],[],"[(1149, 889)]",[],[1],[76],[1.2666666666666666],"[640.0, 512.0]",vertical,"(890.0, 262.0)",[0.9166666666666666],[0.804],0,2974.31
10,False,563,0.667,40,[],[],"[(1184, 909)]",[],[1],[73],[1.2166666666666666],"[640.0, 512.0]",horizontal,"(890.0, 262.0)",[0.5166666666666666],[0.521],1,2978.022
10,False,564,1.466,87,[],[],"[(1118, 890)]",[],[1],[117],[1.95],"[640.0, 512.0]",horizontal,"(390.0, 262.0)",[0.9333333333333333],[0.481],1,2995.455
10,False,565,0.66,39,[],[],"[(1113, 883)]",[],[1],[76],[1.2666666666666666],"[640.0, 512.0]",horizontal,"(390.0, 762.0)",[1.1666666666666667],[0.596],1,2999.807
10,False,566,1.001,60,[],[],"[(1148, 899)]",[],[1],[93],[1.55],"[640.0, 512.0]",horizontal,"(390.0, 262.0)",[0.7833333333333333],[0.524],1,3003.705
10,False,567,0.96,57,[],[],"[(1120, 889)]",[],[1],[93],[1.55],"[640.0, 512.0]",vertical,"(390.0, 762.0)",[0.7666666666666666],[0.573],1,3007.472
10,False,568,1.415,84,[],[],"[(1123, 886)]",[],[1],[105],[1.75],"[640.0, 512.0]",vertical,"(390.0, 262.0)",[0.6],[0.33],1,3011.283
10,False,569,0.786,47,[],[],"[(1093, 905)]",[],[1],[75],[1.25],"[640.0, 512.0]",vertical,"(390.0, 262.0)",[1.6],[0.441],1,3015.159
10,False,570,0.457,27,[],[],"[(1173, 870)]",[],[1],[60],[1.0],"[640.0, 512.0]",horizontal,"(890.0, 262.0)",[0.8833333333333333],[0.521],1,3019.576
10,False,571,1.322,79,[],[],"[(1082, 898)]",[],[1],[108],[1.8],"[640.0, 512.0]",vertical,"(890.0, 262.0)",[1.4833333333333334],[0.459],1,3022.96
10,False,572,0.742,44,[],[],"[(1121, 897)]",[],[1],[79],[1.3166666666666667],"[640.0, 512.0]",vertical,"(890.0, 762.0)",[0.5],[0.557],1,3027.945
10,False,573,0.606,36,[],[],"[(1118, 894)]",[],[1],[70],[1.1666666666666667],"[640.0, 512.0]",horizontal,"(890.0, 762.0)",[0.5],[0.541],1,3031.238
10,False,574,1.462,87,[],[],"[(1142, 880)]",[],[1],[],[],"[640.0, 512.0]",horizontal,"(890.0, 762.0)",[],[0],0,3034.503
10,False,575,0.344,20,[],[],"[(1174, 875)]",[],[1],[53],[0.8833333333333333],"[640.0, 512.0]",vertical,"(390.0, 762.0)",[0.95],[0.527],1,3038.108
10,False,576,1.07,64,[],[],"[(1093, 894)]",[],[1],[97],[1.6166666666666667],"[640.0, 512.0]",horizontal,"(890.0, 762.0)",[1.5],[0.524],1,3041.488
10,False,577,1.067,64,[],[],"[(1152, 894)]",[],[1],[95],[1.5833333333333333],"[640.0, 512.0]",vertical,"(390.0, 262.0)",[0.5],[0.492],1,3046.158
10,False,578,1.206,72,[],[],"[(1142, 894)]",[],[1],[108],[1.8],"[640.0, 512.0]",horizontal,"(890.0, 262.0)",[1.0833333333333333],[0.574],1,3049.773
10,False,579,0.67,40,[],[],"[(1154, 886)]",[],[1],[77],[1.2833333333333332],"[640.0, 512.0]",vertical,"(390.0, 762.0)",[1.1666666666666667],[0.592],1,3054.163
10,False,580,0.69,41,[],[],"[(1122, 895)]",[],[1],[80],[1.3333333333333333],"[640.0, 512.0]",vertical,"(890.0, 762.0)",[0.6333333333333333],[0.619],1,3058.065
10,False,581,1.064,63,[],[],"[(1123, 893)]",[],[1],[96],[1.6],"[640.0, 512.0]",vertical,"(390.0, 262.0)",[0.7666666666666666],[0.526],1,3061.619
10,False,582,0.952,57,[],[],"[(1153, 894)]",[],[1],[91],[1.5166666666666666],"[640.0, 512.0]",horizontal,"(890.0, 762.0)",[0.9833333333333333],[0.543],1,3065.508
10,False,583,0.587,35,[],[],"[(1174, 900)]",[],[1],[70],[1.1666666666666667],"[640.0, 512.0]",vertical,"(390.0, 762.0)",[0.5666666666666667],[0.56],1,3069.487
10,False,584,0.351,21,[],[],"[(1146, 886)]",[],[1],[58],[0.9666666666666667],"[640.0, 512.0]",horizontal,"(390.0, 262.0)",[0.5],[0.586],1,3072.711
10,False,585,0.467,28,[],[],"[(1187, 885)]",[],[1],[62],[1.0333333333333332],"[640.0, 512.0]",horizontal,"(390.0, 262.0)",[1.05],[0.539],1,3075.752
10,False,586,0.738,44,[],[],"[(1118, 886)]",[],[1],[76],[1.2666666666666666],"[640.0, 512.0]",horizontal,"(390.0, 262.0)",[1.2333333333333334],[0.503],1,3079.343
10,False,587,0.891,53,[],[],"[(1121, 888)]",[],[1],[87],[1.45],"[640.0, 512.0]",horizontal,"(890.0, 762.0)",[1.35],[0.541],1,3083.337
10,False,588,0.839,50,[],[],"[(1149, 884)]",[],[1],[85],[1.4166666666666667],"[640.0, 512.0]",horizontal,"(890.0, 762.0)",[1.05],[0.557],1,3087.689
10,False,589,0.362,21,[],[],"[(1141, 896)]",[],[1],[55],[0.9166666666666666],"[640.0, 512.0]",vertical,"(890.0, 762.0)",[0.65],[0.538],1,3091.671
10,False,590,0.336,20,[],[],"[(1153, 899)]",[],[1],[64],[1.0666666666666667],"[640.0, 512.0]",horizontal,"(390.0, 262.0)",[1.1333333333333333],[0.709],1,3094.729
10,False,591,0.435,26,[],[],"[(1136, 894)]",[],[1],[66],[1.1],"[640.0, 512.0]",horizontal,"(390.0, 762.0)",[0.55],[0.636],1,3098.422
10,False,592,1.462,87,[],[],"[(1136, 898)]",[],[1],[120],[2.0],"[640.0, 512.0]",horizontal,"(890.0, 762.0)",[0.8166666666666667],[0.523],1,3101.616
10,False,593,0.675,40,[],[],"[(1117, 889)]",[],[1],[71],[1.1833333333333333],"[640.0, 512.0]",horizontal,"(890.0, 262.0)",[1.1],[0.493],1,3105.957
10,False,594,0.515,30,[],[],"[(1120, 870)]",[],[1],[62],[1.0333333333333332],"[640.0, 512.0]",horizontal,"(890.0, 262.0)",[0.6333333333333333],[0.508],1,3109.742
10,False,595,0.935,56,[],[],"[(1113, 875)]",[],[1],[95],[1.5833333333333333],"[640.0, 512.0]",horizontal,"(890.0, 262.0)",[1.2666666666666666],[0.627],1,3112.852
10,False,596,1.135,68,[],[],"[(1171, 880)]",[],[1],[105],[1.75],"[640.0, 512.0]",horizontal,"(890.0, 762.0)",[1.6166666666666667],[0.592],1,3117.211
10,False,597,1.048,62,[],[],"[(1153, 889)]",[],[1],[94],[1.5666666666666667],"[640.0, 512.0]",horizontal,"(890.0, 262.0)",[1.2166666666666666],[0.502],1,3122.056
10,False,598,0.995,59,[],[],"[(1146, 886)]",[],[1],[90],[1.5],"[640.0, 512.0]",horizontal,"(390.0, 762.0)",[1.2333333333333334],[0.494],1,3126.319
10,False,599,1.226,73,[],[],"[(1093, 907)]",[],[1],[79],[1.3166666666666667],"[640.0, 512.0]",vertical,"(890.0, 262.0)",[1.1333333333333333],[0.084],1,3130.505
10,False,600,1.407,84,[],[],"[(1153, 889)]",[],[1],[115],[1.9166666666666667],"[640.0, 512.0]",vertical,"(890.0, 262.0)",[0.5833333333333334],[0.49],1,3134.463
11,False,601,0.596,35,[],[],"[(1166, 890)]",[],[1],[67],[1.1166666666666667],"[640.0, 512.0]",vertical,"(890.0, 762.0)",[0.5166666666666666],[0.506],1,3138.459
11,False,602,1.073,64,[],[],"[(1159, 888)]",[],[1],[95],[1.5833333333333333],"[640.0, 512.0]",horizontal,"(390.0, 762.0)",[0.6833333333333333],[0.488],1,3141.578
11,False,603,0.403,24,[],[],"[(1111, 896)]",[],[1],[74],[1.2333333333333334],"[640.0, 512.0]",horizontal,"(390.0, 262.0)",[0.55],[0.802],0,3145.294
11,False,604,0.581,34,[],[],"[(1148, 877)]",[],[1],[68],[1.1333333333333333],"[640.0, 512.0]",vertical,"(890.0, 262.0)",[0.8166666666666667],[0.545],1,3148.551
11,False,605,0.866,51,[],[],"[(1153, 899)]",[],[1],[83],[1.3833333333333333],"[640.0, 512.0]",horizontal,"(390.0, 262.0)",[1.1],[0.513],1,3152.667
11,False,606,1.483,88,[],[],"[(1093, 899)]",[],[1],[],[],"[640.0, 512.0]",vertical,"(890.0, 262.0)",[],[0],0,3158.397
11,False,607,1.339,80,[],[],"[(1112, 913)]",[],[1],[111],[1.8499999999999999],"[640.0, 512.0]",vertical,"(390.0, 262.0)",[0.9833333333333333],[0.491],1,3162.92
11,False,608,1.204,72,[],[],"[(1105, 905)]",[],[1],[104],[1.7333333333333334],"[640.0, 512.0]",horizontal,"(890.0, 262.0)",[1.1166666666666667],[0.52],1,3167.557
11,False,609,0.678,40,[],[],"[(1123, 893)]",[],[1],[78],[1.3],"[640.0, 512.0]",vertical,"(390.0, 262.0)",[0.5166666666666666],[0.624],1,3171.922
11,False,610,0.314,18,[],[],"[(1103, 899)]",[],[1],[52],[0.8666666666666667],"[640.0, 512.0]",horizontal,"(890.0, 762.0)",[0.7166666666666667],[0.543],1,3175.305
11,False,611,0.521,31,[],[],"[(1123, 894)]",[],[1],[63],[1.05],"[640.0, 512.0]",horizontal,"(390.0, 762.0)",[0.8166666666666667],[0.512],1,3178.41
11,False,612,0.685,41,[],[],"[(1130, 879)]",[],[1],[73],[1.2166666666666666],"[640.0, 512.0]",horizontal,"(890.0, 262.0)",[0.9],[0.524],1,3181.761
11,False,613,1.291,77,[],[],"[(1146, 870)]",[],[1],[111],[1.8499999999999999],"[640.0, 512.0]",vertical,"(890.0, 262.0)",[1.4833333333333334],[0.554],1,3185.422
11,False,614,0.917,55,[],[],"[(1140, 889)]",[],[1],[90],[1.5],"[640.0, 512.0]",vertical,"(390.0, 762.0)",[0.5666666666666667],[0.558],1,3190.256
11,False,615,0.409,24,[],[],"[(1117, 899)]",[],[1],[67],[1.1166666666666667],"[640.0, 512.0]",horizontal,"(390.0, 262.0)",[1.3333333333333333],[0.688],1,3193.842
11,False,616,0.693,41,[],[],"[(1112, 898)]",[],[1],[74],[1.2333333333333334],"[640.0, 512.0]",horizontal,"(890.0, 262.0)",[0.9],[0.523],1,3197.762
11,False,617,1.151,69,[],[],"[(1154, 868)]",[],[1],[100],[1.6666666666666667],"[640.0, 512.0]",horizontal,"(390.0, 262.0)",[1.5833333333333333],[0.495],1,3201.394
11,False,618,1.116,66,[],[],"[(1118, 890)]",[],[1],[99],[1.65],"[640.0, 512.0]",horizontal,"(890.0, 262.0)",[1.1333333333333333],[0.523],1,3206.064
11,False,619,0.401,24,[],[],"[(1105, 906)]",[],[1],[64],[1.0666666666666667],"[640.0, 512.0]",horizontal,"(390.0, 762.0)",[0.9333333333333333],[0.634],1,3210.325
11,False,620,0.362,21,[],[],"[(1078, 894)]",[],[1],[54],[0.9],"[640.0, 512.0]",horizontal,"(390.0, 762.0)",[1.55],[0.523],1,3216.844
11,False,621,0.931,55,[],[],"[(1113, 901)]",[],[1],[87],[1.45],"[640.0, 512.0]",horizontal,"(390.0, 262.0)",[1.05],[0.507],1,3220.862
11,False,622,1.008,60,[],[],"[(1142, 904)]",[],[1],[92],[1.5333333333333332],"[640.0, 512.0]",horizontal,"(890.0, 762.0)",[0.75],[0.503],1,3224.808
11,False,623,1.067,64,[],[],"[(1153, 896)]",[],[1],[97],[1.6166666666666667],"[640.0, 512.0]",vertical,"(890.0, 262.0)",[0.8166666666666667],[0.526],1,3228.578
11,False,624,1.459,87,[],[],"[(1123, 902)]",[],[1],[124],[2.0666666666666664],"[640.0, 512.0]",horizontal,"(390.0, 762.0)",[1.1666666666666667],[0.589],1,3232.493
11,False,625,1.483,88,[],[],"[(1118, 899)]",[],[1],[119],[1.9833333333333334],"[640.0, 512.0]",horizontal,"(890.0, 762.0)",[0.5166666666666666],[0.492],1,3237.21
11,False,626,1.227,73,[],[],"[(1136, 880)]",[],[1],[106],[1.7666666666666666],"[640.0, 512.0]",horizontal,"(390.0, 762.0)",[1.3833333333333333],[0.523],1,3241.209
11,False,627,1.081,64,[],[],"[(1142, 880)]",[],[1],[95],[1.5833333333333333],"[640.0, 512.0]",vertical,"(390.0, 262.0)",[0.8166666666666667],[0.496],1,3245.796
11,False,628,0.568,34,[],[],"[(1129, 887)]",[],[1],[66],[1.1],"[640.0, 512.0]",vertical,"(390.0, 762.0)",[1.65],[0.507],1,3249.64
11,False,629,1.248,74,[],[],"[(1105, 888)]",[],[1],[105],[1.75],"[640.0, 512.0]",horizontal,"(890.0, 262.0)",[1.5666666666666667],[0.49],1,3253.858
11,False,630,1.23,73,[],[],"[(1118, 906)]",[],[1],[113],[1.8833333333333333],"[640.0, 512.0]",vertical,"(890.0, 762.0)",[1.7],[0.645],1,3258.634
11,False,631,0.362,21,[],[],"[(1142, 899)]",[],[1],[55],[0.9166666666666666],"[640.0, 512.0]",vertical,"(890.0, 262.0)",[1.0333333333333332],[0.541],1,3263.728
11,False,632,0.499,29,[],[],"[(1166, 889)]",[],[1],[62],[1.0333333333333332],"[640.0, 512.0]",vertical,"(890.0, 762.0)",[1.5333333333333332],[0.521],1,3267.191
11,False,633,1.005,60,[],[],"[(1123, 894)]",[],[1],[91],[1.5166666666666666],"[640.0, 512.0]",vertical,"(390.0, 262.0)",[1.0666666666666667],[0.49],1,3271.25
11,False,634,1.318,79,[],[],"[(1155, 903)]",[],[1],[118],[1.9666666666666666],"[640.0, 512.0]",horizontal,"(390.0, 762.0)",[0.9333333333333333],[0.633],1,3275.309
11,False,635,1.461,87,[],[],"[(1104, 899)]",[],[1],[118],[1.9666666666666666],"[640.0, 512.0]",horizontal,"(390.0, 762.0)",[1.3166666666666667],[0.488],1,3279.685
11,False,636,1.364,81,[],[],"[(1111, 898)]",[],[1],[117],[1.95],"[640.0, 512.0]",horizontal,"(890.0, 762.0)",[1.0666666666666667],[0.575],1,3284.427
11,False,637,1.301,78,[],[],"[(1162, 874)]",[],[1],[111],[1.8499999999999999],"[640.0, 512.0]",horizontal,"(890.0, 762.0)",[0.9333333333333333],[0.524],1,3288.882
11,False,638,1.425,85,[],[],"[(1117, 895)]",[],[1],[117],[1.95],"[640.0, 512.0]",vertical,"(390.0, 762.0)",[1.5833333333333333],[0.509],1,3293.135
11,False,639,1.089,65,[],[],"[(1076, 880)]",[],[1],[95],[1.5833333333333333],"[640.0, 512.0]",vertical,"(890.0, 262.0)",[0.6666666666666666],[0.475],1,3298.779
11,False,640,1.373,82,[],[],"[(1129, 902)]",[],[1],[116],[1.9333333333333333],"[640.0, 512.0]",horizontal,"(890.0, 262.0)",[1.3166666666666667],[0.539],1,3304.275
11,False,641,1.366,81,[],[],"[(1099, 903)]",[],[1],[121],[2.0166666666666666],"[640.0, 512.0]",horizontal,"(390.0, 762.0)",[0.7833333333333333],[0.644],1,3308.987
11,False,642,0.539,32,[],[],"[(1123, 886)]",[],[1],[69],[1.15],"[640.0, 512.0]",horizontal,"(890.0, 762.0)",[0.8833333333333333],[0.589],1,3313.388
11,False,643,0.728,43,[],[],"[(1100, 901)]",[],[1],[86],[1.4333333333333333],"[640.0, 512.0]",vertical,"(390.0, 762.0)",[0.9333333333333333],[0.688],1,3316.97
11,False,644,0.851,51,[],[],"[(1148, 902)]",[],[1],[90],[1.5],"[640.0, 512.0]",horizontal,"(390.0, 762.0)",[1.25],[0.617],1,3320.797
11,False,645,0.839,50,[],[],"[(1170, 878)]",[],[1],[90],[1.5],"[640.0, 512.0]",vertical,"(390.0, 762.0)",[1.15],[0.639],1,3324.996
11,False,646,1.0,60,[],[],"[(1124, 900)]",[],[1],[97],[1.6166666666666667],"[640.0, 512.0]",horizontal,"(890.0, 262.0)",[0.9166666666666666],[0.59],1,3329.09
11,False,647,0.59,35,[],[],"[(1144, 882)]",[],[1],[69],[1.15],"[640.0, 512.0]",vertical,"(390.0, 762.0)",[1.5833333333333333],[0.543],1,3333.117
11,False,648,0.896,53,[],[],"[(1124, 895)]",[],[1],[81],[1.35],"[640.0, 512.0]",vertical,"(890.0, 262.0)",[1.2166666666666666],[0.442],1,3337.32
11,False,649,0.482,28,[],[],"[(1118, 902)]",[],[1],[63],[1.05],"[640.0, 512.0]",horizontal,"(390.0, 762.0)",[1.5333333333333332],[0.554],1,3341.424
11,False,650,1.471,88,[],[],"[(1122, 890)]",[],[1],[124],[2.0666666666666664],"[640.0, 512.0]",vertical,"(890.0, 762.0)",[1.15],[0.572],1,3345.48
11,False,651,0.702,42,[],[],"[(1148, 894)]",[],[1],[75],[1.25],"[640.0, 512.0]",vertical,"(890.0, 762.0)",[1.3166666666666667],[0.525],1,3350.184
11,False,652,1.299,77,[],[],"[(1131, 884)]",[],[1],[109],[1.8166666666666667],"[640.0, 512.0]",horizontal,"(390.0, 262.0)",[0.7166666666666667],[0.508],1,3354.187
11,False,653,0.995,59,[],[],"[(1136, 892)]",[],[1],[93],[1.55],"[640.0, 512.0]",vertical,"(390.0, 262.0)",[1.2666666666666666],[0.539],1,3358.212
11,False,654,0.44,26,[],[],"[(1107, 885)]",[],[1],[62],[1.0333333333333332],"[640.0, 512.0]",horizontal,"(890.0, 762.0)",[0.8833333333333333],[0.571],1,3362.543
11,False,655,0.421,25,[],[],"[(1143, 889)]",[],[1],[61],[1.0166666666666666],"[640.0, 512.0]",vertical,"(390.0, 762.0)",[1.3666666666666667],[0.57],1,3365.978
11,False,656,0.753,45,[],[],"[(1118, 899)]",[],[1],[79],[1.3166666666666667],"[640.0, 512.0]",horizontal,"(890.0, 262.0)",[1.15],[0.549],1,3369.876
11,False,657,0.7,42,[],[],"[(1148, 899)]",[],[1],[75],[1.25],"[640.0, 512.0]",vertical,"(890.0, 262.0)",[0.75],[0.53],1,3373.826
11,False,658,0.88,52,[],[],"[(1146, 898)]",[],[1],[83],[1.3833333333333333],"[640.0, 512.0]",horizontal,"(890.0, 762.0)",[1.4833333333333334],[0.494],1,3377.312
11,False,659,0.854,51,[],[],"[(1123, 894)]",[],[1],[86],[1.4333333333333333],"[640.0, 512.0]",vertical,"(390.0, 262.0)",[0.55],[0.56],1,3381.611
