block,trial,trial_type,taps_start_loc_during_fix,taps_end_loc_during_fix,taps_on_lever_during_fix,taps_on_lever_s_during_fix,bar_orientation,target_xy,cti,rt,acc,time,pulses,fa_rate_recent100,actual_invalid_type
0,1,catch,"[(1053, 815)]",[],[1],[],vertical,"(390.0, 262.0)",1.7,nan,1,0.606,1,0.0,same
0,2,valid,"[(1032, 843)]",[],[1],[0.4166666666666667],horizontal,"(390.0, 262.0)",0.95,0.391,1,58.68,1,0.0,same
0,3,catch,"[(1109, 852)]",[],[1],[],vertical,"(390.0, 762.0)",1.7,nan,1,68.375,1,0.0,same
0,4,valid,"[(1120, 821)]",[],[1],[0.55],vertical,"(890.0, 262.0)",1.4,0.511,1,7334.725,2,0.0,same
0,5,valid,"[(1165, 786)]",[],[1],[0.85],horizontal,"(390.0, 762.0)",0.4666666666666667,nan,0,7340.988,0,0.0,same
0,6,valid,"[(1111, 800)]",[],[1],[0.4666666666666667],horizontal,"(390.0, 762.0)",1.0833333333333333,0.429,1,7344.839,1,0.0,same
0,7,valid,"[(1116, 802)]",[],[1],[0.6166666666666667],vertical,"(390.0, 262.0)",0.85,0.575,1,7349.553,1,0.0,same
0,8,valid,"[(1128, 811)]",[],[1],[0.7333333333333333],horizontal,"(390.0, 762.0)",0.7666666666666666,0.682,1,7354.603,1,0.0,same
0,9,valid,"[(1160, 790)]",[],[1],[0.4666666666666667],horizontal,"(390.0, 262.0)",1.2333333333333334,0.428,1,7360.248,2,0.0,same
0,10,catch,"[(1157, 794)]",[],[1],[],horizontal,"(890.0, 262.0)",1.7,nan,1,7366.253,2,0.0,same
0,11,catch,"[(1163, 795)]",[],[1],[],horizontal,"(390.0, 762.0)",1.7,nan,1,7371.62,2,0.0,same
0,12,valid,"[(1164, 786)]",[],[1],[0.45],horizontal,"(890.0, 762.0)",1.5166666666666666,0.409,1,7377.155,3,0.0,same
0,13,catch,"[(1157, 793)]",[],[1],[],horizontal,"(390.0, 262.0)",1.7,nan,1,7383.522,3,0.0,same
0,14,valid,"[(1157, 804)]",[],[1],[0.4666666666666667],vertical,"(390.0, 262.0)",0.5333333333333333,0.425,1,7389.737,3,0.0,same
0,15,catch,"[(1135, 801)]",[],[1],[],vertical,"(390.0, 262.0)",1.7,nan,1,7395.321,3,0.0,same
0,16,catch,"[(1172, 800)]",[],[1],[],vertical,"(890.0, 762.0)",1.7,nan,1,7401.556,3,0.0,same
0,17,catch,"[(1158, 796)]",[],[1],[],horizontal,"(390.0, 762.0)",1.7,nan,1,7407.555,3,0.0,same
0,18,valid,"[(1160, 788)]",[],[1],[0.5],vertical,"(390.0, 262.0)",1.2833333333333332,0.466,1,7413.722,3,0.0,same
0,19,valid,"[(1158, 783)]",[],[1],[0.5166666666666666],horizontal,"(890.0, 262.0)",0.6166666666666667,0.478,1,7419.555,3,0.0,same
0,20,valid,"[(1172, 785)]",[],[1],[0.85],horizontal,"(890.0, 262.0)",0.8666666666666667,nan,0,7425.156,0,0.0,same
0,21,valid,"[(1047, 836)]",[],[1],[0.85],horizontal,"(890.0, 762.0)",0.9,nan,0,7429.539,0,0.0,same
0,22,valid,"[(1106, 815)]",[],[1],[0.55],horizontal,"(390.0, 762.0)",1.4,0.505,1,7450.341,1,0.0,same
0,23,catch,"[(1121, 786)]",[],[1],[],vertical,"(390.0, 762.0)",1.7,nan,1,7455.524,1,0.0,same
0,24,catch,"[(1082, 851)]",[],[1],[],horizontal,"(390.0, 262.0)",1.7,nan,1,7460.434,1,0.0,same
0,25,valid,"[(1162, 796)]",[],[1],[0.6],vertical,"(390.0, 262.0)",0.7333333333333333,0.561,1,7465.698,2,0.0,same
0,26,catch,"[(1136, 796)]",[],[1],[],vertical,"(890.0, 762.0)",1.7,nan,1,7471.24,2,0.0,same
0,27,valid,"[(1126, 804)]",[],[1],[0.6666666666666666],horizontal,"(390.0, 262.0)",1.4333333333333333,0.627,1,7476.984,2,0.0,same
0,28,catch,"[(1136, 805)]",[],[1],[],vertical,"(890.0, 262.0)",1.7,nan,1,7483.155,3,0.0,same
0,29,valid,"[(1163, 805)]",[],[1],[0.48333333333333334],vertical,"(390.0, 762.0)",1.3166666666666667,0.444,1,7489.072,3,0.0,same
0,30,catch,"[(1165, 797)]",[],[1],[],horizontal,"(890.0, 262.0)",1.7,nan,1,7495.106,3,0.0,same
0,31,catch,"[(1163, 801)]",[],[1],[],vertical,"(390.0, 762.0)",1.7,nan,1,7501.461,3,0.0,same
0,32,catch,"[(1158, 781)]",[],[1],[],vertical,"(890.0, 262.0)",1.7,nan,1,7507.232,3,0.0,same
0,33,catch,"[(1159, 798)]",[],[1],[],vertical,"(390.0, 262.0)",1.7,nan,1,7513.329,3,0.0,same
0,34,catch,"[(1157, 799)]",[],[1],[],horizontal,"(890.0, 762.0)",1.7,nan,1,7519.384,3,0.0,same
0,35,catch,"[(1160, 798)]",[],[1],[],horizontal,"(890.0, 762.0)",1.7,nan,1,7525.433,3,0.0,same
0,36,valid,"[(1164, 776)]",[],[1],[0.55],horizontal,"(390.0, 262.0)",0.7,0.51,1,7531.37,3,0.0,same
0,37,valid,"[(1160, 792)]",[],[1],[0.48333333333333334],vertical,"(890.0, 762.0)",0.9666666666666667,0.446,1,7536.671,3,0.0,same
0,38,valid,"[(1152, 805)]",[],[1],[0.5166666666666666],horizontal,"(890.0, 762.0)",1.3333333333333333,0.48,1,7542.581,3,0.0,same
0,39,catch,"[(1123, 812)]",[],[1],[0.03333333333333333],horizontal,"(890.0, 262.0)",1.7,"0.02,nan",0,7549.165,0,0.02564102564102564,same
0,40,valid,"[(1087, 792)]",[],[1],[0.6],vertical,"(890.0, 262.0)",1.3666666666666667,0.554,1,7554.355,1,0.025,same
0,41,catch,"[(1167, 790)]",[],[1],[],horizontal,"(890.0, 762.0)",1.7,nan,1,7559.828,1,0.024390243902439025,same
0,42,invalid_same_bar,"[(1159, 802)]",[],[1],[0.6333333333333333],horizontal,"(890.0, 262.0)",1.0666666666666667,0.591,1,7564.978,1,0.023809523809523808,same
0,43,valid,"[(1155, 816)]",[],[1],[0.5333333333333333],horizontal,"(890.0, 762.0)",1.4,0.49,1,7570.346,2,0.023255813953488372,same
0,44,valid,"[(1160, 783)]",[],[1],[0.6166666666666667],vertical,"(390.0, 262.0)",1.0,0.579,1,7576.202,2,0.022727272727272728,same
0,45,invalid_adjacent_other_bar,"[(1160, 808)]",[],[1],[0.5333333333333333],vertical,"(390.0, 262.0)",1.5,0.497,1,7582.155,2,0.022222222222222223,other
0,46,catch,"[(1116, 817)]",[],[1],[],vertical,"(890.0, 262.0)",1.7,nan,1,7588.106,3,0.021739130434782608,same
0,47,catch,"[(1164, 796)]",[],[1],[],horizontal,"(890.0, 262.0)",1.7,nan,1,7594.589,3,0.02127659574468085,same
0,48,valid,"[(1160, 778)]",[],[1],[0.55],horizontal,"(390.0, 262.0)",0.6166666666666667,0.506,1,7600.823,3,0.020833333333333332,same
0,49,catch,"[(1160, 802)]",[],[1],[],horizontal,"(390.0, 262.0)",1.7,nan,1,7606.472,3,0.02040816326530612,same
0,50,valid,"[(1160, 795)]",[],[1],[0.55],vertical,"(390.0, 762.0)",1.0666666666666667,0.51,1,7612.606,3,0.02,same
0,51,catch,"[(1158, 790)]",[],[1],[],vertical,"(390.0, 262.0)",1.7,nan,1,7618.339,3,0.02,same
0,52,valid,"[(1160, 796)]",[],[1],[0.6166666666666667],horizontal,"(390.0, 762.0)",1.3166666666666667,0.573,1,7624.056,3,0.02,same
0,53,valid,"[(1165, 786)]",[],[1],[0.6],vertical,"(390.0, 262.0)",1.3166666666666667,0.554,1,7629.893,3,0.02,same
0,54,catch,"[(1164, 773)]",[],[1],[],horizontal,"(390.0, 762.0)",1.7,nan,1,7636.023,3,0.02,same
0,55,valid,"[(1136, 782)]",[],[1],[0.45],vertical,"(890.0, 262.0)",1.5166666666666666,0.407,1,7642.456,3,0.02,same
0,56,valid,"[(1132, 802)]",[],[1],[0.85],horizontal,"(390.0, 262.0)",1.05,nan,0,7648.937,0,0.02,same
0,57,valid,"[(1116, 799)]",[],[1],[0.85],horizontal,"(890.0, 762.0)",0.65,nan,0,7653.564,0,0.02,same
0,58,valid,"[(1110, 790)]",[],[1],[0.6333333333333333],horizontal,"(890.0, 262.0)",0.7833333333333333,0.586,1,7657.99,1,0.02,same
0,59,valid,"[(1140, 786)]",[],[1],[0.5833333333333334],horizontal,"(390.0, 762.0)",0.48333333333333334,0.539,1,7662.973,1,0.02,same
0,60,valid,"[(1131, 787)]",[],[1],[0.4666666666666667],vertical,"(890.0, 262.0)",1.05,0.426,1,7667.605,1,0.02,same
0,61,catch,"[(1136, 826)]",[],[1],[],horizontal,"(390.0, 762.0)",1.7,nan,1,7672.137,2,0.02,same
0,62,valid,"[(1155, 791)]",[],[1],[0.5],horizontal,"(890.0, 762.0)",1.3166666666666667,0.455,1,7678.09,2,0.02,same
0,63,catch,"[(1156, 786)]",[],[1],[],horizontal,"(890.0, 262.0)",1.7,nan,1,7683.881,2,0.02,same
0,64,valid,"[(1124, 822)]",[],[1],[0.6],horizontal,"(390.0, 762.0)",1.2166666666666666,0.552,1,7689.84,3,0.02,same
0,65,invalid_adjacent_other_bar,"[(1158, 796)]",[],[1],[0.85],horizontal,"(390.0, 762.0)",0.7666666666666666,nan,0,7695.911,0,0.02,other
0,66,valid,"[(1111, 799)]",[],[1],[0.7333333333333333],vertical,"(890.0, 262.0)",1.2333333333333334,0.684,1,7700.26,1,0.02,same
0,67,catch,"[(1135, 809)]",[],[1],[],vertical,"(890.0, 262.0)",1.7,nan,1,7705.735,1,0.02,same
0,68,valid,"[(1128, 792)]",[],[1],[0.85],horizontal,"(390.0, 762.0)",0.55,nan,0,7711.055,0,0.02,same
0,69,valid,"[(1116, 783)]",[],[1],[0.55],horizontal,"(390.0, 262.0)",0.6,0.505,1,7715.539,1,0.02,same
0,70,valid,"[(1131, 797)]",[],[1],[0.6],horizontal,"(890.0, 762.0)",1.2333333333333334,0.552,1,7720.263,1,0.02,same
0,71,valid,"[(1148, 806)]",[],[1],[0.5333333333333333],horizontal,"(890.0, 262.0)",1.1333333333333333,0.488,1,7725.624,1,0.02,same
0,72,invalid_adjacent_other_bar,"[(1121, 821)]",[],[1],[0.4166666666666667],horizontal,"(390.0, 762.0)",1.1166666666666667,0.375,1,7731.014,2,0.02,other
0,73,valid,"[(1151, 797)]",[],[1],[0.4666666666666667],vertical,"(890.0, 262.0)",1.0666666666666667,0.423,1,7737.042,2,0.02,same
0,74,valid,"[(1131, 803)]",[],[1],[0.5],vertical,"(890.0, 262.0)",0.36666666666666664,0.454,1,7742.439,2,0.02,same
0,75,invalid_same_bar,"[(1154, 809)]",[],[1],[0.55],horizontal,"(390.0, 262.0)",1.0166666666666666,0.507,1,7747.322,3,0.02,same
0,76,valid,"[(1131, 811)]",[],[1],[0.6666666666666666],vertical,"(890.0, 262.0)",0.35,0.623,1,7753.654,3,0.02,same
0,77,catch,"[(1139, 801)]",[],[1],[],horizontal,"(890.0, 262.0)",1.7,nan,1,7758.921,3,0.02,same
0,78,valid,"[(1142, 801)]",[],[1],[0.6333333333333333],horizontal,"(390.0, 262.0)",0.85,0.595,1,7764.789,3,0.02,same
0,79,catch,"[(1148, 806)]",[],[1],[],vertical,"(390.0, 762.0)",1.7,nan,1,7770.324,3,0.02,same
0,80,catch,"[(1147, 798)]",[],[1],[],horizontal,"(890.0, 762.0)",1.7,nan,1,7776.721,3,0.02,same
0,81,valid,"[(1146, 796)]",[],[1],[0.65],vertical,"(390.0, 762.0)",1.2,0.603,1,7782.843,3,0.02,same
0,82,valid,"[(1159, 793)]",[],[1],[0.48333333333333334],vertical,"(390.0, 262.0)",0.8666666666666667,0.442,1,7789.162,3,0.02,same
0,83,catch,"[(1141, 819)]",[],[1],[],vertical,"(390.0, 762.0)",1.7,nan,1,7794.685,3,0.02,same
0,84,catch,"[(1156, 786)]",[],[1],[],horizontal,"(390.0, 262.0)",1.7,nan,1,7801.191,3,0.02,same
0,85,invalid_same_bar,"[(1156, 790)]",[],[1],[0.6333333333333333],vertical,"(890.0, 262.0)",1.0166666666666666,0.594,1,7807.298,3,0.02,same
0,86,catch,"[(1141, 813)]",[],[1],[],vertical,"(390.0, 762.0)",1.7,nan,1,7813.576,3,0.02,same
0,87,valid,"[(1155, 762)]",[],[1],[0.6333333333333333],vertical,"(890.0, 762.0)",0.3833333333333333,0.587,1,7819.641,3,0.02,same
0,88,catch,"[(1147, 801)]",[],[1],[],vertical,"(890.0, 762.0)",1.7,nan,1,7824.844,3,0.02,same
0,89,catch,"[(1116, 789)]",[],[1],[],horizontal,"(390.0, 762.0)",1.7,nan,1,7830.677,3,0.0,same
0,90,valid,"[(1155, 796)]",[],[1],[0.48333333333333334],vertical,"(890.0, 762.0)",0.7166666666666667,0.442,1,7836.49,3,0.0,same
0,91,invalid_same_bar,"[(1132, 796)]",[],[1],[0.6333333333333333],horizontal,"(390.0, 762.0)",0.8833333333333333,0.598,1,7842.306,3,0.0,same
0,92,valid,"[(1160, 796)]",[],[1],[0.6333333333333333],horizontal,"(890.0, 762.0)",1.2333333333333334,0.593,1,7848.328,3,0.0,same
0,93,catch,"[(1136, 821)]",[],[1],[],vertical,"(390.0, 262.0)",1.7,nan,1,7854.456,3,0.0,same
0,94,catch,"[(1154, 799)]",[],[1],[],vertical,"(890.0, 762.0)",1.7,nan,1,7861.714,3,0.0,same
0,95,valid,"[(1127, 807)]",[],[1],[0.7166666666666667],horizontal,"(390.0, 762.0)",1.1,0.667,1,7867.672,3,0.0,same
0,96,valid,"[(1165, 789)]",[],[1],[0.6166666666666667],horizontal,"(390.0, 262.0)",1.3,0.571,1,7873.891,3,0.0,same
0,97,valid,"[(1123, 805)]",[],[1],[0.85],horizontal,"(890.0, 262.0)",0.5166666666666666,nan,0,7879.702,0,0.0,same
0,98,valid,"[(1116, 788)]",[],[1],[0.85],horizontal,"(890.0, 762.0)",1.0833333333333333,nan,0,7884.355,0,0.0,same
0,99,valid,"[(1092, 802)]",[],[1],[0.85],horizontal,"(890.0, 762.0)",1.3833333333333333,nan,0,7889.259,0,0.0,same
0,100,valid,"[(1126, 781)]",[],[1],[0.5166666666666666],horizontal,"(890.0, 762.0)",1.4,0.475,1,7894.689,1,0.0,same
0,101,catch,"[(1143, 775)]",[],[1],[],vertical,"(890.0, 762.0)",1.7,nan,1,7899.715,1,0.0,same
0,102,valid,"[(1134, 778)]",[],[1],[0.55],horizontal,"(390.0, 262.0)",1.5,0.509,1,7904.406,1,0.0,same
0,103,valid,"[(1140, 807)]",[],[1],[0.75],horizontal,"(390.0, 262.0)",0.5833333333333334,0.715,1,7909.764,2,0.0,same
0,104,valid,"[(1155, 790)]",[],[1],[0.5],horizontal,"(890.0, 262.0)",1.1,0.456,1,7915.289,2,0.0,same
0,105,valid,"[(1155, 790)]",[],[1],[0.5333333333333333],vertical,"(390.0, 262.0)",1.1,0.494,1,7920.407,2,0.0,same
0,106,invalid_adjacent_other_bar,"[(1140, 791)]",[],[1],[0.5333333333333333],horizontal,"(390.0, 762.0)",1.45,0.491,1,7925.607,3,0.0,other
0,107,valid,"[(1160, 801)]",[],[1],[0.6333333333333333],vertical,"(890.0, 262.0)",1.1333333333333333,0.591,1,7932.057,3,0.0,same
0,108,valid,"[(1149, 804)]",[],[1],[0.85],vertical,"(390.0, 262.0)",0.6333333333333333,nan,0,7938.141,0,0.0,same
0,109,valid,"[(1091, 890)]",[],[1],[0.43333333333333335],horizontal,"(890.0, 262.0)",1.3333333333333333,0.395,1,7942.374,1,0.0,same
0,110,valid,"[(1106, 806)]",[],[1],[0.5166666666666666],horizontal,"(390.0, 762.0)",0.5,0.473,1,8150.524,1,0.0,same
0,111,catch,"[(1135, 792)]",[],[1],[],horizontal,"(390.0, 762.0)",1.7,nan,1,8154.807,1,0.0,same
0,112,valid,"[(1130, 773)]",[],[1],[0.7],vertical,"(390.0, 262.0)",0.8,0.648,1,8160.022,2,0.0,same
0,113,valid,"[(1131, 795)]",[],[1],[0.45],horizontal,"(890.0, 262.0)",0.7,0.41,1,8165.423,2,0.0,same
0,114,valid,"[(1126, 792)]",[],[1],[0.6166666666666667],vertical,"(890.0, 762.0)",1.05,0.57,1,8170.441,2,0.0,same
0,115,invalid_same_bar,"[(1135, 816)]",[],[1],[0.5833333333333334],vertical,"(890.0, 262.0)",1.1333333333333333,0.542,1,8175.621,3,0.0,same
0,116,valid,"[(1107, 791)]",[],[1],[0.5],horizontal,"(890.0, 762.0)",0.7833333333333333,0.462,1,8182.091,3,0.0,same
0,117,valid,"[(1148, 801)]",[],[1],[0.5166666666666666],vertical,"(890.0, 262.0)",0.8666666666666667,0.483,1,8187.657,3,0.0,same
0,118,valid,"[(1157, 792)]",[],[1],[0.48333333333333334],vertical,"(890.0, 762.0)",1.1833333333333333,0.443,1,8193.024,3,0.0,same
0,119,valid,"[(1150, 773)]",[],[1],[0.5],horizontal,"(390.0, 262.0)",1.5166666666666666,0.459,1,8199.239,3,0.0,same
0,120,valid,"[(1143, 783)]",[],[1],[0.55],vertical,"(390.0, 762.0)",0.8333333333333334,0.506,1,8205.089,3,0.0,same
0,121,catch,"[(1148, 800)]",[],[1],[],horizontal,"(890.0, 762.0)",1.7,nan,1,8210.907,3,0.0,same
0,122,valid,"[(1072, 831)]",[],[1],[0.6666666666666666],horizontal,"(890.0, 262.0)",0.9166666666666666,0.619,1,8216.59,3,0.0,same
0,123,catch,"[(1152, 796)]",[],[1],[],horizontal,"(890.0, 762.0)",1.7,nan,1,8222.794,3,0.0,same
0,124,valid,"[(1145, 782)]",[],[1],[0.85],horizontal,"(390.0, 762.0)",0.4666666666666667,nan,0,8228.74,0,0.0,same
0,125,catch,"[(1129, 781)]",[],[1],[],vertical,"(390.0, 262.0)",1.7,nan,1,8232.968,1,0.0,same
0,126,catch,"[(1160, 799)]",[],[1],[],horizontal,"(390.0, 262.0)",1.7,nan,1,8238.401,1,0.0,same
0,127,valid,"[(1159, 798)]",[],[1],[0.85],horizontal,"(390.0, 262.0)",1.4166666666666667,nan,0,8243.444,0,0.0,same
0,128,valid,"[(1156, 795)]",[],[1],[0.4666666666666667],horizontal,"(390.0, 262.0)",1.0833333333333333,0.425,1,8248.435,1,0.0,same
0,129,valid,"[(1156, 791)]",[],[1],[0.5666666666666667],horizontal,"(890.0, 762.0)",0.6333333333333333,0.525,1,8253.717,1,0.0,same
0,130,valid,"[(1142, 788)]",[],[1],[0.55],horizontal,"(390.0, 262.0)",0.95,0.513,1,8258.124,1,0.0,same
0,131,catch,"[(1156, 789)]",[],[1],[],horizontal,"(390.0, 762.0)",1.7,nan,1,8263.375,2,0.0,same
0,132,valid,"[(1135, 764)]",[],[1],[0.6166666666666667],horizontal,"(890.0, 262.0)",1.25,0.568,1,8268.84,2,0.0,same
0,133,catch,"[(1129, 784)]",[],[1],[],horizontal,"(890.0, 762.0)",1.7,nan,1,8274.265,2,0.0,same
0,134,valid,"[(1147, 804)]",[],[1],[],horizontal,"(890.0, 262.0)",,"('cti', 1.441)",0,8279.724,0,0.0,same
0,135,valid,"[(1131, 796)]",[],[1],[0.7166666666666667],vertical,"(390.0, 262.0)",0.6833333333333333,0.672,1,8284.689,1,0.0,same
0,136,valid,"[(1161, 791)]",[],[1],[0.85],horizontal,"(390.0, 262.0)",0.35,nan,0,8290.273,0,0.0,same
0,137,catch,"[(1117, 808)]",[],[1],[],horizontal,"(390.0, 762.0)",1.7,nan,1,8294.16,1,0.0,same
0,138,catch,"[(1155, 820)]",[],[1],[],horizontal,"(390.0, 762.0)",1.7,nan,1,8300.049,1,0.0,same
0,139,catch,"[(1167, 798)]",[],[1],[],vertical,"(390.0, 262.0)",1.7,nan,1,8305.128,1,0.0,same
0,140,valid,"[(1158, 783)]",[],[1],[0.5833333333333334],vertical,"(390.0, 262.0)",0.35,0.54,1,8310.624,2,0.0,same
0,141,catch,"[(1157, 795)]",[],[1],[],vertical,"(390.0, 262.0)",1.7,nan,1,8315.575,2,0.0,same
0,142,valid,"[(1155, 812)]",[],[1],[0.6],horizontal,"(890.0, 262.0)",0.8166666666666667,0.559,1,8321.113,2,0.0,same
0,143,catch,"[(1140, 803)]",[],[1],[],vertical,"(390.0, 762.0)",1.7,nan,1,8326.702,3,0.0,same
0,144,valid,"[(1156, 772)]",[],[1],[0.5833333333333334],vertical,"(390.0, 762.0)",0.5,0.541,1,8333.242,3,0.0,same
0,145,valid,"[(1156, 799)]",[],[1],[0.6333333333333333],horizontal,"(390.0, 762.0)",0.4666666666666667,0.592,1,8338.208,3,0.0,same
0,146,valid,"[(1158, 801)]",[],[1],[0.5333333333333333],vertical,"(890.0, 762.0)",0.6166666666666667,0.489,1,8343.773,3,0.0,same
0,147,catch,"[(1157, 794)]",[],[1],[],vertical,"(390.0, 262.0)",1.7,nan,1,8348.924,3,0.0,same
0,148,valid,"[(1135, 819)]",[],[1],[0.6833333333333333],vertical,"(390.0, 262.0)",1.25,0.639,1,8355.186,3,0.0,same
0,149,valid,"[(1157, 795)]",[],[1],[0.6333333333333333],vertical,"(390.0, 762.0)",1.2333333333333334,0.589,1,8361.375,3,0.0,same
0,150,valid,"[(1156, 772)]",[],[1],[0.6666666666666666],horizontal,"(390.0, 762.0)",1.3,0.623,1,8367.775,3,0.0,same
0,151,valid,"[(1160, 785)]",[],[1],[0.5333333333333333],vertical,"(390.0, 262.0)",0.43333333333333335,0.49,1,8373.861,3,0.0,same
0,152,invalid_adjacent_other_bar,"[(1130, 795)]",[],[1],[0.85],horizontal,"(390.0, 262.0)",1.5333333333333332,nan,0,8379.474,0,0.0,other
0,153,valid,"[(1130, 782)]",[],[1],[0.5833333333333334],horizontal,"(390.0, 762.0)",1.3,0.54,1,8385.16,1,0.0,same
0,154,valid,"[(1160, 785)]",[],[1],[0.6166666666666667],vertical,"(390.0, 762.0)",0.9666666666666667,0.575,1,8390.224,1,0.0,same
0,155,catch,"[(1160, 772)]",[],[1],[],vertical,"(390.0, 262.0)",1.7,nan,1,8395.591,1,0.0,same
0,156,valid,"[(1131, 816)]",[],[1],[0.5333333333333333],vertical,"(890.0, 762.0)",0.6,0.491,1,8400.86,2,0.0,same
0,157,valid,"[(1145, 783)]",[],[1],[0.5666666666666667],vertical,"(890.0, 262.0)",1.2666666666666666,0.526,1,8406.367,2,0.0,same
0,158,valid,"[(1162, 773)]",[],[1],[0.5333333333333333],vertical,"(890.0, 762.0)",0.4166666666666667,0.492,1,8411.97,2,0.0,same
0,159,valid,"[(1135, 810)]",[],[1],[0.6],horizontal,"(390.0, 262.0)",1.4833333333333334,0.563,1,8416.513,3,0.0,same
0,160,catch,"[(1146, 786)]",[],[1],[],vertical,"(890.0, 262.0)",1.7,nan,1,8423.207,3,0.0,same
0,161,valid,"[(1157, 786)]",[],[1],[0.6166666666666667],vertical,"(390.0, 762.0)",0.3833333333333333,0.575,1,8429.573,3,0.0,same
0,162,valid,"[(1157, 802)]",[],[1],[0.5666666666666667],vertical,"(390.0, 262.0)",0.7666666666666666,0.519,1,8434.966,3,0.0,same
0,163,catch,"[(1132, 776)]",[],[1],[],horizontal,"(390.0, 262.0)",1.7,nan,1,8440.329,3,0.0,same
0,164,valid,"[(1157, 779)]",[],[1],[0.55],horizontal,"(390.0, 762.0)",0.5,0.51,1,8446.159,3,0.0,same
0,165,invalid_adjacent_other_bar,"[(1131, 782)]",[],[1],[0.5],vertical,"(390.0, 762.0)",0.7333333333333333,0.457,1,8451.609,3,0.0,other
0,166,valid,"[(1155, 785)]",[],[1],[0.5333333333333333],vertical,"(890.0, 762.0)",1.2166666666666666,0.489,1,8457.475,3,0.0,same
0,167,catch,"[(1150, 776)]",[],[1],[],vertical,"(890.0, 762.0)",1.7,nan,1,8463.392,3,0.0,same
0,168,valid,"[(1155, 792)]",[],[1],[0.7],vertical,"(390.0, 762.0)",1.3,0.654,1,8469.36,3,0.0,same
0,169,invalid_adjacent_other_bar,"[(1142, 763)]",[],[1],[0.85],horizontal,"(390.0, 262.0)",0.5333333333333333,nan,0,8476.069,0,0.0,other
0,170,valid,"[(1126, 781)]",[],[1],[0.5],horizontal,"(390.0, 262.0)",1.2666666666666666,0.463,1,8480.793,1,0.0,same
0,171,valid,"[(1136, 785)]",[],[1],[0.65],horizontal,"(390.0, 762.0)",0.7666666666666666,0.615,1,8485.954,1,0.0,same
0,172,invalid_same_bar,"[(1134, 789)]",[],[1],[0.7],horizontal,"(890.0, 762.0)",0.5666666666666667,0.659,1,8490.906,1,0.0,same
0,173,valid,"[(1149, 810)]",[],[1],[0.5],horizontal,"(890.0, 262.0)",1.0,0.459,1,8495.366,2,0.0,same
0,174,valid,"[(1147, 781)]",[],[1],[0.5333333333333333],vertical,"(390.0, 262.0)",0.6333333333333333,0.491,1,8501.158,2,0.0,same
0,175,catch,"[(1158, 793)]",[],[1],[],vertical,"(890.0, 262.0)",1.7,nan,1,8506.806,2,0.0,same
0,176,valid,"[(1121, 801)]",[],[1],[0.5166666666666666],vertical,"(890.0, 762.0)",0.36666666666666664,0.472,1,8512.575,3,0.0,same
0,177,catch,"[(1158, 796)]",[],[1],[],horizontal,"(890.0, 762.0)",1.7,nan,1,8518.042,3,0.0,same
0,178,valid,"[(1160, 774)]",[],[1],[0.5333333333333333],horizontal,"(390.0, 262.0)",0.8166666666666667,0.486,1,8524.363,3,0.0,same
0,179,valid,"[(1126, 816)]",[],[1],[0.6333333333333333],horizontal,"(390.0, 762.0)",1.2,0.591,1,8530.2,3,0.0,same
0,180,valid,"[(1126, 781)]",[],[1],[0.5333333333333333],vertical,"(890.0, 262.0)",0.45,0.496,1,8536.682,3,0.0,same
0,181,valid,"[(1126, 798)]",[],[1],[0.5],vertical,"(390.0, 762.0)",0.95,0.46,1,8541.932,3,0.0,same
0,182,valid,"[(1137, 778)]",[],[1],[0.5166666666666666],horizontal,"(390.0, 262.0)",1.1833333333333333,0.475,1,8548.068,3,0.0,same
0,183,valid,"[(1138, 791)]",[],[1],[0.5],vertical,"(390.0, 762.0)",1.0,0.459,1,8554.517,3,0.0,same
0,184,catch,"[(1160, 774)]",[],[1],[],horizontal,"(390.0, 762.0)",1.7,nan,1,8560.375,3,0.0,same
0,185,valid,"[(1146, 773)]",[],[1],[0.7333333333333333],vertical,"(890.0, 762.0)",1.2833333333333332,0.69,1,8566.62,3,0.0,same
0,186,catch,"[(1155, 824)]",[],[1],[],vertical,"(390.0, 262.0)",1.7,nan,1,8573.331,3,0.0,same
0,187,valid,"[(1160, 786)]",[],[1],[0.5666666666666667],vertical,"(390.0, 762.0)",1.15,0.521,1,8579.024,3,0.0,same
0,188,valid,"[(1136, 782)]",[],[1],[0.55],horizontal,"(390.0, 762.0)",0.8333333333333334,0.519,1,8585.297,3,0.0,same
0,189,valid,"[(1151, 795)]",[],[1],[0.5833333333333334],horizontal,"(390.0, 262.0)",1.4833333333333334,0.544,1,8591.122,3,0.0,same
0,190,valid,"[(1126, 791)]",[],[1],[0.5],vertical,"(890.0, 762.0)",1.2666666666666666,0.459,1,8597.475,3,0.0,same
0,191,valid,"[(1161, 783)]",[],[1],[0.48333333333333334],vertical,"(890.0, 762.0)",1.2166666666666666,0.446,1,8603.163,3,0.0,same
0,192,invalid_same_bar,"[(1126, 780)]",[],[1],[0.6166666666666667],vertical,"(890.0, 762.0)",1.0166666666666666,0.572,1,8608.99,3,0.0,same
0,193,valid,"[(1155, 791)]",[],[1],[0.5],vertical,"(890.0, 262.0)",1.35,0.458,1,8614.808,3,0.0,same
0,194,valid,"[(1131, 782)]",[],[1],[0.6666666666666666],horizontal,"(890.0, 262.0)",0.9666666666666667,0.619,1,8621.068,3,0.0,same
0,195,catch,"[(1151, 783)]",[],[1],[],vertical,"(890.0, 262.0)",1.7,nan,1,8626.851,3,0.0,same
0,196,invalid_same_bar,"[(1151, 786)]",[],[1],[0.5333333333333333],horizontal,"(890.0, 762.0)",0.7666666666666666,0.494,1,8633.11,3,0.0,same
0,197,valid,"[(1131, 764)]",[],[1],[0.5833333333333334],vertical,"(890.0, 762.0)",0.8333333333333334,0.54,1,8638.509,3,0.0,same
0,198,valid,"[(1157, 782)]",[],[1],[0.5833333333333334],horizontal,"(390.0, 762.0)",1.2333333333333334,0.539,1,8644.569,3,0.0,same
0,199,valid,"[(1153, 796)]",[],[1],[0.5666666666666667],horizontal,"(890.0, 762.0)",0.48333333333333334,0.523,1,8650.97,3,0.0,same
0,200,valid,"[(1156, 794)]",[],[1],[0.5166666666666666],vertical,"(890.0, 762.0)",1.4666666666666666,0.475,1,8656.275,3,0.0,same
0,201,valid,"[(1160, 794)]",[],[1],[0.5333333333333333],horizontal,"(390.0, 262.0)",1.4666666666666666,0.495,1,8662.609,3,0.0,same
0,202,valid,"[(1160, 776)]",[],[1],[0.55],vertical,"(890.0, 262.0)",0.35,0.505,1,8668.442,3,0.0,same
0,203,valid,"[(1160, 781)]",[],[1],[0.6166666666666667],vertical,"(390.0, 762.0)",0.9,0.575,1,8673.686,3,0.0,same
0,204,valid,"[(1151, 811)]",[],[1],[0.6166666666666667],vertical,"(890.0, 762.0)",0.8166666666666667,0.574,1,8679.35,3,0.0,same
0,205,catch,"[(1131, 811)]",[],[1],[],horizontal,"(890.0, 762.0)",1.7,nan,1,8685.149,3,0.0,same
0,206,catch,"[(1154, 796)]",[],[1],[],vertical,"(890.0, 762.0)",1.7,nan,1,8691.11,3,0.0,same
0,207,invalid_same_bar,"[(1131, 785)]",[],[1],[0.5333333333333333],horizontal,"(390.0, 262.0)",0.6,0.491,1,8697.421,3,0.0,same
0,208,valid,"[(1150, 776)]",[],[1],[0.5],vertical,"(890.0, 262.0)",0.5833333333333334,0.457,1,8702.636,3,0.0,same
0,209,valid,"[(1156, 781)]",[],[1],[0.5833333333333334],vertical,"(390.0, 762.0)",0.95,0.541,1,8708.227,3,0.0,same
0,210,catch,"[(1160, 777)]",[],[1],[],vertical,"(890.0, 762.0)",1.7,nan,1,8714.293,3,0.0,same
0,211,invalid_adjacent_other_bar,"[(1158, 781)]",[],[1],[0.5166666666666666],vertical,"(390.0, 262.0)",1.05,0.473,1,8720.261,3,0.0,other
0,212,valid,"[(1134, 787)]",[],[1],[0.5166666666666666],horizontal,"(890.0, 262.0)",1.25,0.489,1,8726.082,3,0.0,same
0,213,valid,"[(1151, 775)]",[],[1],[0.5166666666666666],vertical,"(390.0, 762.0)",0.55,0.48,1,8731.959,3,0.0,same
0,214,valid,"[(1123, 798)]",[],[1],[0.6],vertical,"(390.0, 262.0)",0.7166666666666667,0.56,1,8737.403,3,0.0,same
0,215,valid,"[(1145, 796)]",[],[1],[0.5833333333333334],horizontal,"(890.0, 262.0)",0.43333333333333335,0.538,1,8742.926,3,0.0,same
0,216,valid,"[(1138, 777)]",[],[1],[0.5333333333333333],vertical,"(390.0, 762.0)",1.2333333333333334,0.489,1,8748.507,3,0.0,same
0,217,valid,"[(1131, 772)]",[],[1],[0.85],vertical,"(890.0, 262.0)",0.5833333333333334,nan,0,8754.442,0,0.0,same
0,218,valid,"[(1116, 780)]",[],[1],[0.6333333333333333],horizontal,"(890.0, 262.0)",0.5333333333333333,0.592,1,8758.843,1,0.0,same
0,219,valid,"[(1150, 806)]",[],[1],[0.85],horizontal,"(390.0, 762.0)",0.9833333333333333,nan,0,8763.577,0,0.0,same
0,220,valid,"[(1142, 790)]",[],[1],[0.5666666666666667],vertical,"(390.0, 762.0)",0.5,0.53,1,8768.392,1,0.0,same
0,221,catch,"[(1141, 796)]",[],[1],[],horizontal,"(390.0, 262.0)",1.7,nan,1,8772.766,1,0.0,same
0,222,valid,"[(1163, 779)]",[],[1],[0.85],horizontal,"(890.0, 762.0)",0.5833333333333334,nan,0,8778.326,0,0.0,same
0,223,valid,"[(1111, 781)]",[],[1],[0.6],vertical,"(390.0, 262.0)",0.75,0.557,1,8782.392,1,0.0,same
0,224,valid,"[(1153, 777)]",[],[1],[0.5],vertical,"(390.0, 262.0)",0.7833333333333333,0.464,1,8787.459,1,0.0,same
0,225,valid,"[(1123, 791)]",[],[1],[0.5],horizontal,"(890.0, 262.0)",0.7666666666666666,0.462,1,8792.392,1,0.0,same
0,226,valid,"[(1121, 789)]",[],[1],[0.6],vertical,"(890.0, 262.0)",0.8833333333333333,0.559,1,8797.441,2,0.0,same
0,227,valid,"[(1160, 782)]",[],[1],[0.6833333333333333],horizontal,"(390.0, 762.0)",0.6666666666666666,0.639,1,8802.844,2,0.0,same
0,228,catch,"[(1131, 799)]",[],[1],[],vertical,"(390.0, 262.0)",1.7,nan,1,8808.016,2,0.0,same
0,229,valid,"[(1136, 811)]",[],[1],[0.85],vertical,"(890.0, 762.0)",0.65,nan,0,8813.706,0,0.0,same
0,230,valid,"[(1091, 855)]",[],[1],[0.48333333333333334],vertical,"(390.0, 262.0)",1.3666666666666667,0.45,1,8818.16,1,0.0,same
0,231,valid,"[(1121, 817)]",[],[1],[0.5333333333333333],vertical,"(890.0, 262.0)",0.8333333333333334,0.492,1,8856.894,1,0.0,same
0,232,catch,"[(1160, 799)]",[],[1],[],vertical,"(390.0, 762.0)",1.7,nan,1,8861.996,1,0.0,same
0,233,catch,"[(1150, 816)]",[],[1],[],horizontal,"(890.0, 762.0)",1.7,nan,1,8867.393,2,0.0,same
0,234,invalid_adjacent_other_bar,"[(1153, 820)]",[],[1],[0.5],horizontal,"(890.0, 762.0)",1.15,0.465,1,8873.653,2,0.0,other
0,235,catch,"[(1153, 808)]",[],[1],[],horizontal,"(390.0, 262.0)",1.7,nan,1,8878.91,2,0.0,same
0,236,valid,"[(1126, 806)]",[],[1],[0.5166666666666666],horizontal,"(390.0, 262.0)",1.25,0.479,1,8884.378,3,0.0,same
0,237,catch,"[(1156, 794)]",[],[1],[],vertical,"(390.0, 762.0)",1.7,nan,1,8890.537,3,0.0,same
0,238,valid,"[(1126, 822)]",[],[1],[0.48333333333333334],horizontal,"(390.0, 262.0)",0.65,0.451,1,8896.15,3,0.0,same
0,239,invalid_adjacent_other_bar,"[(1126, 793)]",[],[1],[0.85],horizontal,"(390.0, 762.0)",0.8666666666666667,nan,0,8901.809,0,0.0,other
0,240,valid,"[(1086, 789)]",[],[1],[0.85],vertical,"(390.0, 262.0)",1.3166666666666667,nan,0,8906.15,0,0.0,same
0,241,valid,"[(1137, 859)]",[],[1],[0.5],vertical,"(390.0, 262.0)",0.5166666666666666,0.463,1,8911.195,1,0.0,same
0,242,valid,"[(1146, 793)]",[],[1],[0.5166666666666666],vertical,"(390.0, 262.0)",1.1333333333333333,0.478,1,9104.593,1,0.0,same
0,243,valid,"[(1129, 779)]",[],[1],[0.55],horizontal,"(890.0, 762.0)",1.1666666666666667,0.507,1,9110.21,1,0.0,same
0,244,valid,"[(1156, 799)]",[],[1],[0.5666666666666667],vertical,"(890.0, 762.0)",0.5,0.52,1,9115.559,2,0.0,same
0,245,valid,"[(1155, 782)]",[],[1],[0.6833333333333333],horizontal,"(890.0, 262.0)",1.4,0.644,1,9120.465,2,0.0,same
0,246,valid,"[(1156, 791)]",[],[1],[0.26666666666666666],horizontal,"(390.0, 762.0)",1.5,0.23,1,9126.053,2,0.0,same
0,247,valid,"[(1125, 800)]",[],[1],[0.55],vertical,"(390.0, 762.0)",0.5666666666666667,0.508,1,9131.977,3,0.0,same
0,248,valid,"[(1109, 807)]",[],[1],[],horizontal,"(390.0, 762.0)",,"('cti', 0.545)",0,9137.16,0,0.0,same
0,249,invalid_same_bar,"[(1096, 802)]",[],[1],[0.5166666666666666],vertical,"(890.0, 262.0)",1.4166666666666667,0.477,1,9141.059,1,0.0,same
0,250,valid,"[(1149, 816)]",[],[1],[0.5],horizontal,"(390.0, 762.0)",0.5833333333333334,0.459,1,9149.018,1,0.0,same
0,251,valid,"[(1109, 816)]",[],[1],[0.5333333333333333],vertical,"(890.0, 762.0)",0.5,0.488,1,9153.443,1,0.0,same
0,252,valid,"[(1107, 817)]",[],[1],[0.5166666666666666],vertical,"(390.0, 262.0)",1.4166666666666667,0.478,1,9158.593,2,0.0,same
0,253,valid,"[(1132, 781)]",[],[1],[0.5],vertical,"(890.0, 762.0)",0.9666666666666667,0.461,1,9164.46,2,0.0,same
0,254,valid,"[(1109, 811)]",[],[1],[0.6333333333333333],vertical,"(890.0, 762.0)",0.36666666666666664,0.598,1,9169.795,2,0.0,same
0,255,valid,"[(1116, 860)]",[],[1],[0.45],horizontal,"(390.0, 262.0)",0.3833333333333333,0.416,1,9175.378,3,0.0,same
0,256,catch,"[(1128, 805)]",[],[1],[0.03333333333333333],horizontal,"(390.0, 262.0)",1.7,"0.019,nan",0,9696.362,0,0.02,same
0,257,valid,"[(1131, 826)]",[],[1],[0.43333333333333335],horizontal,"(890.0, 762.0)",1.5333333333333332,0.397,1,9701.196,1,0.02,same
0,258,catch,"[(1143, 756)]",[],[1],[],horizontal,"(890.0, 262.0)",1.7,nan,1,9706.402,1,0.02,same
0,259,invalid_same_bar,"[(1131, 798)]",[],[1],[0.65],vertical,"(390.0, 262.0)",1.1333333333333333,0.605,1,9711.479,1,0.02,same
0,260,valid,"[(1135, 805)]",[],[1],[0.5166666666666666],horizontal,"(390.0, 262.0)",1.0333333333333332,0.475,1,9717.347,2,0.02,same
0,261,catch,"[(1121, 833)]",[],[1],[],vertical,"(390.0, 762.0)",1.7,nan,1,9722.763,2,0.02,same
0,262,valid,"[(1134, 823)]",[],[1],[0.5333333333333333],horizontal,"(890.0, 262.0)",0.9833333333333333,0.497,1,9728.263,2,0.02,same
0,263,invalid_same_bar,"[(1126, 809)]",[],[1],[0.5333333333333333],vertical,"(890.0, 762.0)",1.2666666666666666,0.493,1,9734.04,3,0.02,same
0,264,catch,"[(1168, 791)]",[],[1],[],vertical,"(390.0, 762.0)",1.7,nan,1,9740.405,3,0.02,same
0,265,valid,"[(1155, 776)]",[],[1],[0.85],vertical,"(390.0, 262.0)",1.4333333333333333,nan,0,9746.588,0,0.02,same
0,266,invalid_same_bar,"[(1130, 787)]",[],[1],[0.45],vertical,"(890.0, 262.0)",1.4666666666666666,0.411,1,9751.843,1,0.02,same
0,267,valid,"[(1126, 785)]",[],[1],[0.48333333333333334],vertical,"(390.0, 762.0)",0.5166666666666666,0.443,1,9757.449,1,0.02,same
0,268,valid,"[(1155, 796)]",[],[1],[0.85],vertical,"(390.0, 262.0)",1.1166666666666667,nan,0,9761.603,0,0.02,same
0,269,catch,"[(1122, 782)]",[],[1],[],horizontal,"(390.0, 262.0)",1.7,nan,1,9766.435,1,0.02,same
0,270,valid,"[(1160, 777)]",[],[1],[0.5166666666666666],horizontal,"(890.0, 262.0)",0.9333333333333333,0.48,1,9772.12,1,0.02,same
0,271,catch,"[(1140, 781)]",[],[1],[],horizontal,"(890.0, 762.0)",1.7,nan,1,9777.198,1,0.02,same
0,272,catch,"[(1131, 786)]",[],[1],[],horizontal,"(390.0, 262.0)",1.7,nan,1,9782.196,2,0.02,same
0,273,catch,"[(1129, 783)]",[],[1],[],vertical,"(390.0, 762.0)",1.7,nan,1,9787.854,2,0.02,same
0,274,catch,"[(1158, 782)]",[],[1],[],horizontal,"(390.0, 262.0)",1.7,nan,1,9793.247,2,0.02,same
0,275,valid,"[(1111, 821)]",[],[1],[0.5833333333333334],vertical,"(390.0, 762.0)",1.4166666666666667,0.548,1,9798.793,3,0.02,same
0,276,valid,"[(1170, 782)]",[],[1],[0.5666666666666667],horizontal,"(890.0, 262.0)",0.8,0.524,1,9805.63,3,0.02,same
0,277,valid,"[(1082, 860)]",[],[1],[0.5],horizontal,"(390.0, 762.0)",1.4666666666666666,0.463,1,9811.284,3,0.02,same
0,278,valid,"[(1160, 783)]",[],[1],[0.6166666666666667],vertical,"(890.0, 762.0)",1.3333333333333333,0.578,1,9818.011,3,0.02,same
0,279,valid,"[(1157, 813)]",[],[1],[0.5833333333333334],vertical,"(890.0, 762.0)",0.4166666666666667,0.544,1,9824.248,3,0.02,same
0,280,valid,"[(1160, 798)]",[],[1],[0.6333333333333333],horizontal,"(390.0, 762.0)",0.8833333333333333,0.589,1,9829.184,3,0.02,same
0,281,valid,"[(1132, 807)]",[],[1],[0.7333333333333333],horizontal,"(390.0, 262.0)",0.5166666666666666,0.702,1,9834.878,3,0.02,same
0,282,invalid_same_bar,"[(1150, 786)]",[],[1],[0.5166666666666666],horizontal,"(890.0, 762.0)",1.2666666666666666,0.474,1,9840.316,3,0.02,same
0,283,catch,"[(1160, 798)]",[],[1],[],vertical,"(890.0, 262.0)",1.7,nan,1,9846.314,3,0.02,same
0,284,valid,"[(1138, 833)]",[],[1],[0.6666666666666666],vertical,"(390.0, 762.0)",0.5,0.621,1,9852.464,3,0.02,same
0,285,valid,"[(1131, 780)]",[],[1],[0.48333333333333334],vertical,"(390.0, 262.0)",0.4666666666666667,0.442,1,9868.696,3,0.02,same
0,286,valid,"[(1121, 781)]",[],[1],[0.5166666666666666],vertical,"(890.0, 262.0)",1.15,0.476,1,9874.011,3,0.02,same
0,287,invalid_same_bar,"[(1175, 802)]",[],[1],[0.5833333333333334],horizontal,"(390.0, 262.0)",0.4666666666666667,0.536,1,9880.051,3,0.02,same
0,288,valid,"[(1129, 791)]",[],[1],[0.5833333333333334],vertical,"(390.0, 262.0)",1.3166666666666667,0.543,1,9885.224,3,0.02,same
0,289,valid,"[(1127, 801)]",[],[1],[0.48333333333333334],horizontal,"(390.0, 262.0)",0.7166666666666667,0.442,1,9891.302,3,0.02,same
0,290,invalid_same_bar,"[(1111, 791)]",[],[1],[0.45],vertical,"(890.0, 262.0)",1.5166666666666666,0.409,1,9897.063,3,0.02,same
0,291,valid,"[(1158, 783)]",[],[1],[0.85],vertical,"(390.0, 762.0)",0.65,nan,0,9903.614,0,0.02,same
0,292,catch,"[(1109, 792)]",[],[1],[],horizontal,"(390.0, 762.0)",1.7,nan,1,9908.235,1,0.02,same
0,293,catch,"[(1124, 764)]",[],[1],[],horizontal,"(890.0, 762.0)",1.7,nan,1,9913.706,1,0.02,same
0,294,valid,"[(1136, 795)]",[],[1],[0.5166666666666666],vertical,"(890.0, 262.0)",1.3666666666666667,0.479,1,9918.713,1,0.02,same
0,295,catch,"[(1138, 775)]",[],[1],[],horizontal,"(890.0, 262.0)",1.7,nan,1,9924.017,2,0.02,same
0,296,valid,"[(1148, 770)]",[],[1],[0.55],vertical,"(890.0, 262.0)",1.2333333333333334,0.513,1,9929.278,2,0.02,same
0,297,catch,"[(1158, 769)]",[],[1],[],horizontal,"(390.0, 762.0)",1.7,nan,1,9934.633,2,0.02,same
0,298,valid,"[(1136, 786)]",[],[1],[0.6666666666666666],horizontal,"(890.0, 262.0)",0.8833333333333333,0.623,1,9940.28,3,0.02,same
0,299,valid,"[(1131, 786)]",[],[1],[0.5],horizontal,"(890.0, 262.0)",1.4,0.467,1,9946.146,3,0.02,same
0,300,valid,"[(1132, 778)]",[],[1],[0.5],horizontal,"(890.0, 262.0)",0.95,0.454,1,9952.197,3,0.02,same
0,301,catch,"[(1160, 781)]",[],[1],[],horizontal,"(890.0, 262.0)",1.7,nan,1,9958.23,3,0.02,same
0,302,valid,"[(1160, 775)]",[],[1],[0.1],vertical,"(890.0, 262.0)",1.4666666666666666,0.068,0,9964.212,0,0.02,same
0,303,invalid_adjacent_other_bar,"[(1122, 791)]",[],[1],[0.5166666666666666],vertical,"(890.0, 262.0)",0.6166666666666667,0.472,1,9969.047,1,0.02,other
0,304,valid,"[(1112, 821)]",[],[1],[0.65],vertical,"(390.0, 262.0)",1.4,0.611,1,9973.884,1,0.02,same
0,305,valid,"[(1157, 786)]",[],[1],[0.5333333333333333],horizontal,"(390.0, 762.0)",1.0666666666666667,0.49,1,9979.513,1,0.02,same
0,306,catch,"[(1133, 780)]",[],[1],[],horizontal,"(890.0, 262.0)",1.7,nan,1,9984.663,2,0.0,same
0,307,valid,"[(1160, 774)]",[],[1],[],horizontal,"(390.0, 762.0)",,"('fix', 0.5)",0,9990.613,0,0.0,same
0,308,valid,"[(1121, 816)]",[],[1],[0.6833333333333333],vertical,"(890.0, 762.0)",0.3833333333333333,0.638,1,9992.624,1,0.0,same
0,309,valid,"[(1150, 799)]",[],[1],[0.75],vertical,"(390.0, 762.0)",1.2333333333333334,0.712,1,9998.231,1,0.0,same
0,310,valid,"[(1137, 794)]",[],[1],[0.5],horizontal,"(390.0, 262.0)",0.4166666666666667,0.46,1,10003.78,1,0.0,same
0,311,valid,"[(1121, 811)]",[],[1],[0.55],vertical,"(390.0, 762.0)",1.05,0.509,1,10008.877,2,0.0,same
0,312,valid,"[(1131, 782)]",[],[1],[0.65],horizontal,"(890.0, 762.0)",0.4166666666666667,0.605,1,10014.58,2,0.0,same
0,313,invalid_adjacent_other_bar,"[(1160, 789)]",[],[1],[0.85],vertical,"(890.0, 262.0)",1.2833333333333332,nan,0,10019.715,0,0.0,other
0,314,valid,"[(1087, 786)]",[],[1],[0.6],vertical,"(890.0, 762.0)",1.1333333333333333,0.555,1,10025.297,1,0.0,same
0,315,valid,"[(1157, 795)]",[],[1],[0.5333333333333333],vertical,"(890.0, 762.0)",0.7,0.493,1,10030.305,1,0.0,same
0,316,catch,"[(1116, 806)]",[],[1],[],vertical,"(390.0, 762.0)",1.7,nan,1,10035.16,1,0.0,same
0,317,valid,"[(1112, 772)]",[],[1],[0.55],horizontal,"(890.0, 762.0)",0.8833333333333333,0.506,1,10040.38,2,0.0,same
0,318,valid,"[(1126, 782)]",[],[1],[0.6166666666666667],vertical,"(390.0, 762.0)",1.1,0.586,1,10045.648,2,0.0,same
0,319,valid,"[(1136, 777)]",[],[1],[0.48333333333333334],horizontal,"(890.0, 262.0)",1.2166666666666666,0.445,1,10051.448,2,0.0,same
0,320,valid,"[(1149, 790)]",[],[1],[0.55],vertical,"(390.0, 262.0)",0.5666666666666667,0.512,1,10057.165,3,0.0,same
0,321,valid,"[(1146, 796)]",[],[1],[0.6333333333333333],horizontal,"(390.0, 762.0)",0.36666666666666664,0.593,1,10062.579,3,0.0,same
0,322,valid,"[(1155, 776)]",[],[1],[0.5166666666666666],horizontal,"(890.0, 262.0)",1.0666666666666667,0.476,1,10067.881,3,0.0,same
0,323,valid,"[(1136, 795)]",[],[1],[0.6666666666666666],horizontal,"(890.0, 262.0)",0.9666666666666667,0.633,1,10073.688,3,0.0,same
0,324,valid,"[(1096, 820)]",[],[1],[0.5333333333333333],horizontal,"(890.0, 262.0)",0.9166666666666666,0.497,1,10079.699,3,0.0,same
0,325,valid,"[(1116, 793)]",[],[1],[0.85],vertical,"(390.0, 262.0)",1.4833333333333334,nan,0,10086.282,0,0.0,same
0,326,catch,"[(1099, 776)]",[],[1],[],vertical,"(390.0, 262.0)",1.7,nan,1,10091.509,1,0.0,same
0,327,catch,"[(1150, 795)]",[],[1],[],horizontal,"(890.0, 762.0)",1.7,nan,1,10096.587,1,0.0,same
0,328,catch,"[(1131, 783)]",[],[1],[],vertical,"(390.0, 262.0)",1.7,nan,1,10101.81,1,0.0,same
0,329,valid,"[(1138, 816)]",[],[1],[0.5166666666666666],vertical,"(890.0, 762.0)",0.9166666666666666,0.483,1,10106.83,2,0.0,same
0,330,valid,"[(1121, 781)]",[],[1],[0.4666666666666667],vertical,"(890.0, 262.0)",0.6333333333333333,0.43,1,10112.647,2,0.0,same
0,331,catch,"[(1121, 785)]",[],[1],[],vertical,"(890.0, 262.0)",1.7,nan,1,10117.664,2,0.0,same
0,332,valid,"[(1129, 793)]",[],[1],[],vertical,"(890.0, 762.0)",,"('fix', 0.235)",0,10123.46,0,0.0,same
0,333,valid,"[(1111, 842)]",[],[1],[0.55],horizontal,"(890.0, 262.0)",1.1,0.509,1,10125.517,1,0.0,same
0,334,catch,"[(1136, 789)]",[],[1],[],horizontal,"(390.0, 262.0)",1.7,nan,1,10344.532,1,0.0,same
0,335,valid,"[(1122, 777)]",[],[1],[0.48333333333333334],horizontal,"(890.0, 762.0)",1.3,0.441,1,10349.946,1,0.0,same
0,336,invalid_adjacent_other_bar,"[(1091, 816)]",[],[1],[0.5333333333333333],vertical,"(890.0, 762.0)",0.7,0.487,1,10355.249,2,0.0,other
0,337,valid,"[(1147, 812)]",[],[1],[],vertical,"(390.0, 762.0)",,"('cti', 0.525)",0,10360.674,0,0.0,same
0,338,catch,"[(1125, 820)]",[],[1],[],vertical,"(890.0, 262.0)",1.7,nan,1,10364.617,1,0.0,same
0,339,catch,"[(1152, 795)]",[],[1],[],horizontal,"(890.0, 262.0)",1.7,"('cti', 1.686),nan",0,10369.771,0,0.02,same
0,340,valid,"[(1074, 835)]",[],[1],[0.6833333333333333],vertical,"(890.0, 262.0)",0.5833333333333334,0.637,1,10374.816,1,0.02,same
0,341,valid,"[(1130, 807)]",[],[1],[0.85],vertical,"(390.0, 262.0)",0.6833333333333333,nan,0,10643.023,0,0.02,same
0,342,invalid_adjacent_other_bar,"[(1091, 793)]",[],[1],[0.85],vertical,"(390.0, 262.0)",0.36666666666666664,nan,0,10647.777,0,0.02,other
0,343,valid,"[(1131, 786)]",[],[1],[0.7166666666666667],vertical,"(390.0, 262.0)",1.3833333333333333,0.67,1,10656.148,1,0.02,same
0,344,valid,"[(1160, 796)]",[],[1],[0.5666666666666667],vertical,"(390.0, 762.0)",1.5333333333333332,0.525,1,10661.643,1,0.02,same
0,345,catch,"[(1160, 815)]",[],[1],[],horizontal,"(390.0, 762.0)",1.7,nan,1,10666.949,1,0.02,same
0,346,valid,"[(1163, 795)]",[],[1],[0.7666666666666666],vertical,"(890.0, 762.0)",0.9333333333333333,0.716,1,10671.748,2,0.02,same
0,347,valid,"[(1177, 781)]",[],[1],[0.5333333333333333],horizontal,"(390.0, 762.0)",0.5666666666666667,0.49,1,10677.728,2,0.02,same
0,348,valid,"[(1162, 781)]",[],[1],[0.5166666666666666],horizontal,"(390.0, 262.0)",0.55,0.477,1,10682.697,2,0.02,same
0,349,valid,"[(1160, 778)]",[],[1],[0.85],horizontal,"(890.0, 262.0)",0.5333333333333333,nan,0,10687.984,0,0.02,same
0,350,catch,"[(1156, 791)]",[],[1],[],vertical,"(390.0, 762.0)",1.7,nan,1,10692.631,1,0.02,same
0,351,catch,"[(1157, 791)]",[],[1],[],horizontal,"(890.0, 762.0)",1.7,nan,1,10697.834,1,0.02,same
0,352,valid,"[(1159, 798)]",[],[1],[0.5166666666666666],horizontal,"(390.0, 762.0)",0.8666666666666667,0.473,1,10703.394,1,0.02,same
0,353,catch,"[(1178, 807)]",[],[1],[],horizontal,"(390.0, 762.0)",,"('fix', 0.367),nan",0,10708.206,0,0.04,same
0,354,catch,"[(1116, 796)]",[],[1],[],horizontal,"(890.0, 762.0)",1.7,nan,1,10710.427,1,0.04,same
0,355,valid,"[(1161, 786)]",[],[1],[0.5],vertical,"(890.0, 762.0)",0.9166666666666666,0.46,1,10716.393,1,0.04,same
0,356,valid,"[(1160, 796)]",[],[1],[0.85],vertical,"(890.0, 262.0)",0.65,nan,0,10721.464,0,0.04,same
0,357,valid,"[(1132, 781)]",[],[1],[0.5333333333333333],vertical,"(390.0, 762.0)",0.48333333333333334,0.489,1,10725.922,1,0.04,same
0,358,catch,"[(1165, 801)]",[],[1],[],vertical,"(390.0, 262.0)",1.7,nan,1,10730.183,1,0.04,same
0,359,valid,"[(1162, 792)]",[],[1],[0.85],vertical,"(390.0, 262.0)",1.1333333333333333,nan,0,10735.467,0,0.04,same
0,360,catch,"[(1126, 796)]",[],[1],[],horizontal,"(390.0, 262.0)",1.7,nan,1,10740.699,1,0.04,same
0,361,valid,"[(1165, 796)]",[],[1],[0.85],vertical,"(890.0, 262.0)",0.6666666666666666,nan,0,10745.678,0,0.04,same
0,362,valid,"[(1160, 791)]",[],[1],[0.5],vertical,"(390.0, 262.0)",0.9,0.459,1,10750.304,1,0.04,same
0,363,valid,"[(1161, 790)]",[],[1],[],horizontal,"(890.0, 262.0)",,"('fix', 0.392)",0,10755.199,0,0.04,same
0,364,valid,"[(1110, 808)]",[],[1],[0.5166666666666666],horizontal,"(890.0, 762.0)",0.7333333333333333,0.472,1,10757.125,1,0.04,same
0,365,valid,"[(1159, 787)]",[],[1],[0.6666666666666666],horizontal,"(890.0, 762.0)",1.4333333333333333,0.62,1,10762.133,1,0.04,same
0,366,invalid_same_bar,"[(1159, 802)]",[],[1],[0.5833333333333334],horizontal,"(890.0, 762.0)",0.6166666666666667,0.541,1,10767.732,1,0.04,same
0,367,catch,"[(1135, 787)]",[],[1],[],vertical,"(890.0, 762.0)",1.7,nan,1,10772.4,2,0.04,same
0,368,valid,"[(1160, 786)]",[],[1],[0.5],vertical,"(390.0, 762.0)",1.1666666666666667,0.459,1,10778.249,2,0.04,same
0,369,valid,"[(1160, 782)]",[],[1],[0.5833333333333334],vertical,"(390.0, 262.0)",1.5166666666666666,0.538,1,10783.646,2,0.04,same
0,370,valid,"[(1160, 778)]",[],[1],[0.4666666666666667],vertical,"(890.0, 762.0)",1.4666666666666666,0.428,1,10789.349,3,0.04,same
0,371,catch,"[(1160, 777)]",[],[1],[],horizontal,"(390.0, 262.0)",1.7,nan,1,10795.908,3,0.04,same
0,372,valid,"[(1156, 759)]",[],[1],[0.5],horizontal,"(890.0, 262.0)",0.35,0.46,1,10801.769,3,0.04,same
0,373,valid,"[(1159, 779)]",[],[1],[0.6166666666666667],horizontal,"(390.0, 262.0)",0.55,0.569,1,10807.033,3,0.04,same
0,374,catch,"[(1136, 792)]",[],[1],[],horizontal,"(890.0, 762.0)",1.7,nan,1,10812.433,3,0.04,same
0,375,valid,"[(1151, 773)]",[],[1],[0.6],horizontal,"(890.0, 762.0)",0.65,0.553,1,10818.915,3,0.04,same
0,376,invalid_same_bar,"[(1159, 774)]",[],[1],[0.5666666666666667],horizontal,"(890.0, 262.0)",0.6,0.52,1,10824.121,3,0.04,same
0,377,valid,"[(1175, 781)]",[],[1],[0.65],vertical,"(890.0, 762.0)",0.9833333333333333,0.613,1,10829.681,3,0.04,same
0,378,valid,"[(1160, 795)]",[],[1],[0.6166666666666667],horizontal,"(890.0, 262.0)",0.5166666666666666,0.574,1,10835.733,3,0.04,same
0,379,catch,"[(1158, 783)]",[],[1],[],vertical,"(390.0, 762.0)",1.7,nan,1,10841.333,3,0.04,same
0,380,valid,"[(1145, 771)]",[],[1],[0.5],vertical,"(890.0, 262.0)",1.5333333333333332,0.46,1,10847.399,3,0.04,same
0,381,valid,"[(1160, 791)]",[],[1],[0.5166666666666666],horizontal,"(890.0, 762.0)",0.6333333333333333,0.473,1,10853.633,3,0.04,same
0,382,valid,"[(1160, 783)]",[],[1],[0.4666666666666667],vertical,"(390.0, 762.0)",1.0666666666666667,0.425,1,10859.343,3,0.04,same
0,383,invalid_same_bar,"[(1169, 794)]",[],[1],[0.5833333333333334],horizontal,"(390.0, 762.0)",0.4166666666666667,0.54,1,10864.918,3,0.04,same
0,384,valid,"[(1166, 796)]",[],[1],[0.5166666666666666],horizontal,"(890.0, 762.0)",0.6166666666666667,0.473,1,10870.595,3,0.04,same
0,385,valid,"[(1163, 804)]",[],[1],[],horizontal,"(890.0, 762.0)",,"('fix', 0.445)",0,10876.366,0,0.04,same
0,386,valid,"[(1131, 817)]",[],[1],[0.6333333333333333],horizontal,"(890.0, 762.0)",0.4,0.585,1,10878.35,1,0.04,same
0,387,valid,"[(1131, 807)]",[],[1],[0.65],horizontal,"(390.0, 262.0)",0.5333333333333333,0.604,1,10882.599,1,0.04,same
0,388,valid,"[(1131, 811)]",[],[1],[0.5],vertical,"(890.0, 762.0)",1.5333333333333332,0.457,1,10887.616,1,0.04,same
0,389,valid,"[(1136, 786)]",[],[1],[0.5333333333333333],horizontal,"(390.0, 762.0)",1.3166666666666667,0.494,1,10893.616,2,0.02,same
0,390,catch,"[(1158, 772)]",[],[1],[],horizontal,"(890.0, 262.0)",1.7,nan,1,10899.886,2,0.02,same
0,391,valid,"[(1158, 794)]",[],[1],[],vertical,"(890.0, 762.0)",,"('fix', 0.452)",0,10905.768,0,0.02,same
0,392,catch,"[(1124, 792)]",[],[1],[],vertical,"(390.0, 762.0)",1.7,nan,1,10908.018,1,0.02,same
0,393,invalid_same_bar,"[(1159, 786)]",[],[1],[],horizontal,"(890.0, 262.0)",,"('fix', 0.398)",0,10913.567,0,0.02,same
0,394,catch,"[(1131, 795)]",[],[1],[],horizontal,"(390.0, 762.0)",1.7,nan,1,10915.783,1,0.02,same
0,395,catch,"[(1152, 774)]",[],[1],[],horizontal,"(390.0, 762.0)",1.7,nan,1,10920.767,1,0.02,same
0,396,valid,"[(1126, 803)]",[],[1],[0.5166666666666666],horizontal,"(890.0, 262.0)",0.9166666666666666,0.477,1,10925.983,1,0.02,same
0,397,valid,"[(1157, 796)]",[],[1],[0.5166666666666666],vertical,"(390.0, 262.0)",0.7166666666666667,0.471,1,10930.88,2,0.02,same
0,398,valid,"[(1116, 836)]",[],[1],[0.5166666666666666],horizontal,"(890.0, 762.0)",0.8166666666666667,0.477,1,10935.984,2,0.02,same
0,399,valid,"[(1163, 787)]",[],[1],[0.5666666666666667],horizontal,"(890.0, 762.0)",0.75,0.523,1,10942.163,2,0.02,same
0,400,valid,"[(1160, 805)]",[],[1],[0.4666666666666667],horizontal,"(390.0, 262.0)",0.6333333333333333,0.434,1,10947.201,3,0.02,same
0,401,valid,"[(1160, 792)]",[],[1],[0.6],horizontal,"(890.0, 762.0)",0.7166666666666667,0.553,1,10952.825,3,0.02,same
0,402,valid,"[(1151, 772)]",[],[1],[0.6],vertical,"(890.0, 762.0)",0.6,0.563,1,10958.383,3,0.02,same
0,403,catch,"[(1160, 790)]",[],[1],[],horizontal,"(890.0, 762.0)",1.7,nan,1,10963.993,3,0.0,same
0,404,valid,"[(1155, 786)]",[],[1],[0.5333333333333333],horizontal,"(890.0, 762.0)",1.3166666666666667,0.489,1,10969.651,3,0.0,same
0,405,catch,"[(1155, 799)]",[],[1],[],vertical,"(890.0, 762.0)",1.7,nan,1,10975.832,3,0.0,same
0,406,catch,"[(1175, 789)]",[],[1],[],horizontal,"(390.0, 262.0)",1.7,nan,1,10981.934,3,0.0,same
0,407,valid,"[(1163, 791)]",[],[1],[0.5],vertical,"(390.0, 762.0)",0.5833333333333334,0.459,1,10987.815,3,0.0,same
0,408,catch,"[(1155, 782)]",[],[1],[],vertical,"(390.0, 262.0)",1.7,nan,1,10992.849,3,0.0,same
0,409,valid,"[(1163, 788)]",[],[1],[0.5166666666666666],vertical,"(390.0, 762.0)",0.75,0.474,1,10999.137,3,0.0,same
0,410,catch,"[(1160, 786)]",[],[1],[],vertical,"(890.0, 762.0)",1.7,nan,1,11004.883,3,0.0,same
0,411,valid,"[(1167, 788)]",[],[1],[],horizontal,"(890.0, 762.0)",,"('fix', 0.364)",0,11010.55,0,0.0,same
0,412,invalid_adjacent_other_bar,"[(1140, 796)]",[],[1],[0.55],horizontal,"(390.0, 762.0)",0.6333333333333333,0.51,1,11012.5,1,0.0,other
0,413,valid,"[(1141, 811)]",[],[1],[0.5833333333333334],vertical,"(390.0, 762.0)",0.7,0.543,1,11017.289,1,0.0,same
0,414,valid,"[(1150, 806)]",[],[1],[0.6333333333333333],vertical,"(390.0, 762.0)",1.1666666666666667,0.586,1,11022.881,1,0.0,same
0,415,catch,"[(1156, 806)]",[],[1],[],vertical,"(890.0, 262.0)",,"('fix', 0.41),nan",0,11028.199,0,0.02,same
0,416,valid,"[(1132, 812)]",[],[1],[0.6],vertical,"(890.0, 262.0)",1.1,0.557,1,11030.192,1,0.02,same
0,417,catch,"[(1155, 808)]",[],[1],[],vertical,"(390.0, 262.0)",,"('cti', 1.615),nan",0,11035.551,0,0.04,same
0,418,valid,"[(1155, 798)]",[],[1],[],vertical,"(890.0, 762.0)",,"('fix', 0.622)",0,11040.511,0,0.04,same
0,419,catch,"[(1116, 804)]",[],[1],[],horizontal,"(890.0, 262.0)",1.7,nan,1,11042.718,1,0.04,same
0,420,valid,"[(1159, 819)]",[],[1],[0.43333333333333335],horizontal,"(890.0, 262.0)",1.5,0.39,1,11048.482,1,0.04,same
0,421,invalid_adjacent_other_bar,"[(1159, 795)]",[],[1],[0.5166666666666666],horizontal,"(390.0, 262.0)",1.4666666666666666,0.475,1,11054.112,1,0.04,other
0,422,catch,"[(1160, 778)]",[],[1],[],vertical,"(890.0, 262.0)",1.7,nan,1,11060.195,2,0.04,same
0,423,valid,"[(1161, 784)]",[],[1],[0.6],vertical,"(390.0, 262.0)",1.4,0.56,1,11065.792,2,0.04,same
0,424,valid,"[(1159, 770)]",[],[1],[0.6166666666666667],horizontal,"(390.0, 262.0)",1.3166666666666667,0.567,1,11071.468,2,0.04,same
0,425,catch,"[(1161, 786)]",[],[1],[],vertical,"(390.0, 262.0)",1.7,nan,1,11077.133,3,0.04,same
0,426,valid,"[(1155, 770)]",[],[1],[0.5166666666666666],vertical,"(390.0, 262.0)",0.3833333333333333,0.47,1,11083.593,3,0.04,same
0,427,invalid_adjacent_other_bar,"[(1155, 785)]",[],[1],[0.85],horizontal,"(390.0, 262.0)",0.8666666666666667,nan,0,11088.643,0,0.04,other
0,428,valid,"[(1114, 791)]",[],[1],[0.5666666666666667],horizontal,"(390.0, 762.0)",1.4333333333333333,0.522,1,11093.385,1,0.04,same
0,429,catch,"[(1160, 778)]",[],[1],[],horizontal,"(890.0, 262.0)",1.7,nan,1,11099.217,1,0.04,same
0,430,valid,"[(1160, 786)]",[],[1],[0.5833333333333334],vertical,"(390.0, 262.0)",0.8833333333333333,0.54,1,11104.217,1,0.04,same
0,431,valid,"[(1127, 779)]",[],[1],[0.6166666666666667],horizontal,"(390.0, 762.0)",0.5666666666666667,0.575,1,11109.429,2,0.04,same
0,432,valid,"[(1166, 773)]",[],[1],[0.48333333333333334],vertical,"(890.0, 762.0)",1.0833333333333333,0.447,1,11114.841,2,0.04,same
0,433,catch,"[(1160, 786)]",[],[1],[],vertical,"(390.0, 762.0)",1.7,nan,1,11120.508,2,0.04,same
0,434,valid,"[(1112, 816)]",[],[1],[0.85],horizontal,"(890.0, 762.0)",0.9333333333333333,nan,0,11125.951,0,0.04,same
0,435,catch,"[(1132, 785)]",[],[1],[],horizontal,"(390.0, 762.0)",1.7,nan,1,11130.917,1,0.04,same
0,436,valid,"[(1156, 780)]",[],[1],[0.85],vertical,"(390.0, 762.0)",0.5333333333333333,nan,0,11136.1,0,0.04,same
0,437,valid,"[(1122, 781)]",[],[1],[0.7333333333333333],vertical,"(390.0, 262.0)",1.0833333333333333,0.691,1,11140.534,1,0.04,same
0,438,invalid_same_bar,"[(1160, 786)]",[],[1],[],vertical,"(890.0, 262.0)",,"('fix', 0.47)",0,11145.735,0,0.04,same
0,439,catch,"[(1097, 825)]",[],[1],[],vertical,"(890.0, 762.0)",,"('cti', 0.487),nan",0,11147.767,0,0.06,same
0,440,valid,"[(1128, 836)]",[],[1],[0.85],vertical,"(390.0, 762.0)",1.3666666666666667,nan,0,11152.551,0,0.06,same
0,441,valid,"[(1117, 825)]",[],[1],[0.5333333333333333],vertical,"(390.0, 762.0)",1.2,0.49,1,11252.435,1,0.06,same
0,442,valid,"[(1128, 782)]",[],[1],[0.6333333333333333],horizontal,"(390.0, 262.0)",0.4666666666666667,0.586,1,11257.804,1,0.06,same
0,443,valid,"[(1172, 785)]",[],[1],[0.65],horizontal,"(890.0, 262.0)",1.0333333333333332,0.604,1,11262.021,1,0.06,same
0,444,valid,"[(1161, 789)]",[],[1],[0.5166666666666666],horizontal,"(890.0, 762.0)",0.7,0.472,1,11267.251,2,0.06,same
0,445,valid,"[(1175, 804)]",[],[1],[0.6],horizontal,"(890.0, 262.0)",1.2833333333333332,0.558,1,11272.027,2,0.06,same
0,446,valid,"[(1160, 795)]",[],[1],[0.4666666666666667],vertical,"(390.0, 762.0)",0.5833333333333334,0.431,1,11277.768,2,0.06,same
0,447,catch,"[(1160, 801)]",[],[1],[],vertical,"(890.0, 762.0)",1.7,nan,1,11282.712,3,0.06,same
0,448,catch,"[(1168, 785)]",[],[1],[],horizontal,"(890.0, 262.0)",1.7,nan,1,11288.984,3,0.06,same
0,449,valid,"[(1160, 774)]",[],[1],[0.65],vertical,"(890.0, 262.0)",1.0,0.602,1,11295.073,3,0.06,same
0,450,invalid_adjacent_other_bar,"[(1155, 782)]",[],[1],[0.4666666666666667],horizontal,"(890.0, 262.0)",0.6333333333333333,0.426,1,11301.236,3,0.06,other
0,451,valid,"[(1165, 781)]",[],[1],[],horizontal,"(390.0, 762.0)",,"('fix', 0.444)",0,11306.418,0,0.06,same
0,452,valid,"[(1132, 787)]",[],[1],[0.6166666666666667],vertical,"(890.0, 762.0)",1.0,0.568,1,11308.369,1,0.06,same
0,453,catch,"[(1175, 785)]",[],[1],[],horizontal,"(390.0, 262.0)",1.7,nan,1,11313.435,1,0.06,same
0,454,catch,"[(1157, 778)]",[],[1],[],vertical,"(390.0, 762.0)",1.7,nan,1,11319.029,1,0.06,same
0,455,catch,"[(1153, 802)]",[],[1],[],horizontal,"(390.0, 762.0)",1.7,nan,1,11324.751,2,0.06,same
0,456,valid,"[(1161, 781)]",[],[1],[0.5333333333333333],horizontal,"(390.0, 762.0)",1.4333333333333333,0.493,1,11330.43,2,0.06,same
0,457,valid,"[(1162, 799)]",[],[1],[],vertical,"(890.0, 262.0)",,"('fix', 0.394)",0,11336.451,0,0.06,same
0,458,invalid_adjacent_other_bar,"[(1153, 769)]",[],[1],[0.5166666666666666],horizontal,"(390.0, 762.0)",0.65,0.476,1,11338.602,1,0.06,other
0,459,catch,"[(1136, 799)]",[],[1],[],vertical,"(390.0, 262.0)",1.7,nan,1,11343.434,1,0.06,same
0,460,catch,"[(1141, 781)]",[],[1],[],vertical,"(890.0, 262.0)",1.7,nan,1,11348.562,1,0.06,same
0,461,valid,"[(1159, 808)]",[],[1],[0.48333333333333334],vertical,"(390.0, 262.0)",0.4666666666666667,0.441,1,11353.901,2,0.06,same
0,462,valid,"[(1175, 766)]",[],[1],[0.6],horizontal,"(890.0, 762.0)",1.3666666666666667,0.558,1,11359.192,2,0.06,same
0,463,invalid_adjacent_other_bar,"[(1160, 790)]",[],[1],[0.5833333333333334],vertical,"(890.0, 762.0)",0.7666666666666666,0.541,1,11365.246,2,0.06,other
0,464,catch,"[(1131, 811)]",[],[1],[],horizontal,"(390.0, 762.0)",1.7,nan,1,11370.733,3,0.06,same
0,465,catch,"[(1168, 777)]",[],[1],[],vertical,"(390.0, 262.0)",1.7,nan,1,11377.334,3,0.04,same
0,466,valid,"[(1155, 779)]",[],[1],[0.85],horizontal,"(890.0, 762.0)",0.9666666666666667,nan,0,11383.22,0,0.04,same
0,467,valid,"[(1116, 806)]",[],[1],[0.85],horizontal,"(890.0, 762.0)",0.9833333333333333,nan,0,11387.914,0,0.02,same
0,468,valid,"[(1153, 806)]",[],[1],[0.55],vertical,"(890.0, 762.0)",1.4,0.513,1,11392.603,1,0.02,same
0,469,valid,"[(1175, 791)]",[],[1],[],vertical,"(390.0, 262.0)",,"('fix', 0.413)",0,11397.853,0,0.02,same
0,470,invalid_same_bar,"[(1165, 804)]",[],[1],[0.55],vertical,"(890.0, 262.0)",0.9666666666666667,0.507,1,11399.801,1,0.02,same
0,471,valid,"[(1131, 781)]",[],[1],[0.48333333333333334],vertical,"(390.0, 262.0)",1.2833333333333332,0.437,1,11404.671,1,0.02,same
0,472,valid,"[(1148, 795)]",[],[1],[0.5333333333333333],vertical,"(890.0, 262.0)",1.25,0.496,1,11410.013,1,0.02,same
0,473,valid,"[(1131, 791)]",[],[1],[0.5166666666666666],vertical,"(390.0, 762.0)",1.1333333333333333,0.477,1,11415.401,2,0.02,same
0,474,catch,"[(1141, 791)]",[],[1],[],horizontal,"(890.0, 762.0)",1.7,nan,1,11420.808,2,0.02,same
0,475,catch,"[(1153, 779)]",[],[1],[],horizontal,"(390.0, 262.0)",1.7,nan,1,11426.285,2,0.02,same
0,476,catch,"[(1136, 791)]",[],[1],[],horizontal,"(390.0, 762.0)",1.7,nan,1,11432.286,3,0.02,same
0,477,valid,"[(1170, 799)]",[],[1],[0.5],horizontal,"(390.0, 762.0)",0.9,0.464,1,11437.986,3,0.02,same
0,478,valid,"[(1172, 795)]",[],[1],[0.5166666666666666],vertical,"(890.0, 762.0)",0.8833333333333333,0.481,1,11443.736,3,0.02,same
0,479,catch,"[(1172, 779)]",[],[1],[],horizontal,"(390.0, 762.0)",,"('fix', 0.518),nan",0,11449.617,0,0.04,same
0,480,catch,"[(1131, 782)]",[],[1],[],horizontal,"(390.0, 762.0)",1.7,nan,1,11451.689,1,0.04,same
0,481,valid,"[(1161, 806)]",[],[1],[0.85],vertical,"(390.0, 262.0)",1.3333333333333333,nan,0,11457.315,0,0.04,same
0,482,valid,"[(1131, 777)]",[],[1],[0.5],vertical,"(390.0, 262.0)",1.2166666666666666,0.463,1,11462.402,1,0.04,same
0,483,invalid_adjacent_other_bar,"[(1156, 781)]",[],[1],[0.6833333333333333],horizontal,"(390.0, 762.0)",1.25,0.637,1,11467.954,1,0.04,other
0,484,valid,"[(1160, 790)]",[],[1],[0.5833333333333334],vertical,"(390.0, 262.0)",1.3666666666666667,0.54,1,11473.491,1,0.04,same
0,485,invalid_adjacent_other_bar,"[(1094, 809)]",[],[1],[0.5],horizontal,"(890.0, 762.0)",0.6833333333333333,0.463,1,11479.323,2,0.04,other
0,486,valid,"[(1091, 845)]",[],[1],[0.5166666666666666],horizontal,"(890.0, 762.0)",0.36666666666666664,0.474,1,11489.519,2,0.04,same
0,487,valid,"[(1144, 807)]",[],[1],[0.48333333333333334],horizontal,"(390.0, 762.0)",0.36666666666666664,0.44,1,11665.061,2,0.04,same
0,488,valid,"[(1155, 784)]",[],[1],[0.6166666666666667],vertical,"(890.0, 762.0)",0.95,0.572,1,11670.305,3,0.04,same
0,489,invalid_adjacent_other_bar,"[(1158, 772)]",[],[1],[0.5],vertical,"(890.0, 762.0)",0.4666666666666667,0.457,1,11676.452,3,0.02,other
0,490,valid,"[(1136, 804)]",[],[1],[0.48333333333333334],horizontal,"(890.0, 762.0)",0.75,0.444,1,11681.525,3,0.02,same
0,491,valid,"[(1158, 791)]",[],[1],[0.5833333333333334],vertical,"(390.0, 262.0)",1.4333333333333333,0.541,1,11686.816,3,0.02,same
0,492,valid,"[(1142, 786)]",[],[1],[0.5],vertical,"(390.0, 262.0)",0.8333333333333334,0.461,1,11692.836,3,0.02,same
0,493,catch,"[(1155, 835)]",[],[1],[],vertical,"(390.0, 262.0)",1.7,nan,1,11698.602,3,0.02,same
0,494,valid,"[(1158, 804)]",[],[1],[0.5166666666666666],vertical,"(390.0, 262.0)",0.85,0.475,1,11704.256,3,0.02,same
0,495,invalid_same_bar,"[(1161, 780)]",[],[1],[0.4666666666666667],vertical,"(390.0, 262.0)",0.7833333333333333,0.424,1,11710.241,3,0.02,same
0,496,valid,"[(1097, 809)]",[],[1],[0.43333333333333335],vertical,"(890.0, 262.0)",1.2166666666666666,0.395,1,11715.437,3,0.02,same
0,497,valid,"[(1160, 802)]",[],[1],[0.6333333333333333],vertical,"(390.0, 262.0)",1.1,0.589,1,11721.868,3,0.02,same
0,498,valid,"[(1162, 792)]",[],[1],[0.4666666666666667],vertical,"(890.0, 262.0)",0.75,0.423,1,11727.772,3,0.02,same
0,499,valid,"[(1092, 806)]",[],[1],[0.55],vertical,"(890.0, 762.0)",0.4666666666666667,0.508,1,11732.98,3,0.02,same
0,500,catch,"[(1151, 806)]",[],[1],[],vertical,"(390.0, 762.0)",1.7,nan,1,11738.42,3,0.02,same
0,501,catch,"[(1162, 782)]",[],[1],[],horizontal,"(390.0, 262.0)",1.7,nan,1,11744.437,3,0.02,same
0,502,catch,"[(1141, 805)]",[],[1],[],horizontal,"(890.0, 762.0)",1.7,nan,1,11750.469,3,0.02,same
0,503,catch,"[(1161, 801)]",[],[1],[],horizontal,"(390.0, 762.0)",1.7,nan,1,11756.595,3,0.02,same
0,504,catch,"[(1160, 782)]",[],[1],[],vertical,"(390.0, 762.0)",1.7,nan,1,11762.753,3,0.02,same
0,505,valid,"[(1160, 783)]",[],[1],[0.6833333333333333],horizontal,"(390.0, 762.0)",1.0333333333333332,0.641,1,11768.337,3,0.02,same
0,506,valid,"[(1113, 824)]",[],[1],[0.5166666666666666],horizontal,"(390.0, 262.0)",1.2833333333333332,0.476,1,11774.623,3,0.02,same
0,507,valid,"[(1155, 774)]",[],[1],[],vertical,"(390.0, 262.0)",,"('fix', 0.492)",0,11780.719,0,0.02,same
0,508,valid,"[(1148, 777)]",[],[1],[0.6333333333333333],vertical,"(890.0, 762.0)",0.6,0.595,1,11782.787,1,0.02,same
0,509,valid,"[(1127, 804)]",[],[1],[0.5166666666666666],vertical,"(390.0, 262.0)",0.6,0.476,1,11787.863,1,0.02,same
0,510,valid,"[(1132, 782)]",[],[1],[0.5166666666666666],horizontal,"(390.0, 262.0)",0.7,0.475,1,11792.545,1,0.02,same
0,511,valid,"[(1158, 783)]",[],[1],[0.5666666666666667],horizontal,"(390.0, 762.0)",1.3166666666666667,0.527,1,11797.554,2,0.02,same
0,512,valid,"[(1136, 789)]",[],[1],[0.5166666666666666],horizontal,"(390.0, 762.0)",1.2166666666666666,0.476,1,11803.47,2,0.02,same
0,513,valid,"[(1136, 783)]",[],[1],[0.7333333333333333],horizontal,"(890.0, 262.0)",1.25,0.689,1,11808.911,2,0.02,same
0,514,valid,"[(1160, 786)]",[],[1],[0.5166666666666666],horizontal,"(890.0, 262.0)",1.2,0.476,1,11814.802,3,0.02,same
0,515,catch,"[(1155, 766)]",[],[1],[],vertical,"(890.0, 262.0)",1.7,nan,1,11821.486,3,0.02,same
0,516,catch,"[(1160, 786)]",[],[1],[],vertical,"(390.0, 262.0)",1.7,nan,1,11827.587,3,0.02,same
0,517,catch,"[(1171, 804)]",[],[1],[],vertical,"(890.0, 762.0)",1.7,nan,1,11833.505,3,0.02,same
0,518,valid,"[(1158, 782)]",[],[1],[0.5166666666666666],vertical,"(390.0, 762.0)",1.0666666666666667,0.486,1,11839.465,3,0.02,same
0,519,valid,"[(1156, 773)]",[],[1],[0.85],vertical,"(390.0, 262.0)",1.2,nan,0,11845.071,0,0.02,same
0,520,catch,"[(1142, 778)]",[],[1],[],horizontal,"(390.0, 762.0)",,"('fix', 0.572),nan",0,11850.02,0,0.04,same
0,521,valid,"[(1121, 769)]",[],[1],[0.75],horizontal,"(390.0, 262.0)",0.6833333333333333,0.703,1,11852.2,1,0.04,same
0,522,valid,"[(1155, 773)]",[],[1],[0.5833333333333334],vertical,"(890.0, 762.0)",1.1166666666666667,0.547,1,11857.378,1,0.04,same
0,523,catch,"[(1155, 775)]",[],[1],[],vertical,"(390.0, 762.0)",1.7,nan,1,11862.571,1,0.04,same
0,524,catch,"[(1160, 778)]",[],[1],[],vertical,"(890.0, 262.0)",1.7,nan,1,11867.852,2,0.04,same
0,525,valid,"[(1152, 782)]",[],[1],[0.5],horizontal,"(890.0, 262.0)",1.2666666666666666,0.462,1,11873.511,2,0.04,same
0,526,valid,"[(1146, 781)]",[],[1],[0.55],vertical,"(390.0, 762.0)",0.6333333333333333,0.512,1,11878.828,2,0.04,same
0,527,catch,"[(1111, 808)]",[],[1],[],horizontal,"(890.0, 762.0)",1.7,nan,1,11883.883,3,0.04,same
0,528,valid,"[(1120, 772)]",[],[1],[0.5333333333333333],horizontal,"(890.0, 762.0)",0.43333333333333335,0.495,1,11890.418,3,0.04,same
0,529,valid,"[(1157, 776)]",[],[1],[0.5166666666666666],vertical,"(890.0, 262.0)",0.75,0.48,1,11895.803,3,0.02,same
0,530,valid,"[(1153, 811)]",[],[1],[0.6833333333333333],horizontal,"(890.0, 762.0)",0.8333333333333334,0.641,1,11901.287,3,0.02,same
0,531,catch,"[(1156, 779)]",[],[1],[],horizontal,"(390.0, 262.0)",1.7,nan,1,11907.14,3,0.02,same
0,532,catch,"[(1159, 780)]",[],[1],[],vertical,"(890.0, 762.0)",1.7,nan,1,11913.203,3,0.02,same
0,533,valid,"[(1165, 765)]",[],[1],[0.5666666666666667],horizontal,"(390.0, 262.0)",0.9833333333333333,0.525,1,11919.053,3,0.02,same
0,534,valid,"[(1160, 790)]",[],[1],[0.8],horizontal,"(390.0, 762.0)",1.0833333333333333,0.762,1,11924.877,3,0.02,same
0,535,catch,"[(1142, 773)]",[],[1],[],horizontal,"(890.0, 762.0)",1.7,nan,1,11930.92,3,0.02,same
0,536,valid,"[(1160, 772)]",[],[1],[0.5333333333333333],vertical,"(390.0, 262.0)",1.2666666666666666,0.495,1,11937.287,3,0.02,same
0,537,catch,"[(1123, 808)]",[],[1],[],vertical,"(890.0, 262.0)",1.7,nan,1,11942.937,3,0.02,same
0,538,catch,"[(1156, 781)]",[],[1],[],horizontal,"(890.0, 262.0)",1.7,nan,1,11949.437,3,0.02,same
0,539,catch,"[(1156, 779)]",[],[1],[],horizontal,"(890.0, 262.0)",1.7,nan,1,11955.271,3,0.02,same
0,540,valid,"[(1160, 778)]",[],[1],[0.6333333333333333],horizontal,"(890.0, 762.0)",0.9833333333333333,0.594,1,11961.253,3,0.02,same
0,541,valid,"[(1150, 806)]",[],[1],[0.5833333333333334],horizontal,"(390.0, 762.0)",0.6666666666666666,0.544,1,11967.403,3,0.02,same
0,542,valid,"[(1157, 797)]",[],[1],[0.65],horizontal,"(890.0, 262.0)",0.85,0.61,1,11973.187,3,0.02,same
0,543,valid,"[(1137, 786)]",[],[1],[0.5333333333333333],horizontal,"(890.0, 262.0)",0.6,0.492,1,11979.265,3,0.02,same
0,544,valid,"[(1167, 784)]",[],[1],[0.4666666666666667],horizontal,"(890.0, 262.0)",0.8666666666666667,0.428,1,11984.713,3,0.02,same
0,545,valid,"[(1164, 769)]",[],[1],[0.48333333333333334],vertical,"(890.0, 262.0)",1.1166666666666667,0.443,1,11990.487,3,0.02,same
0,546,valid,"[(1160, 811)]",[],[1],[0.5833333333333334],vertical,"(890.0, 262.0)",1.0166666666666666,0.542,1,11996.491,3,0.02,same
0,547,valid,"[(1123, 799)]",[],[1],[0.75],vertical,"(390.0, 762.0)",0.9166666666666666,0.703,1,12002.704,3,0.02,same
0,548,valid,"[(1155, 775)]",[],[1],[0.4666666666666667],vertical,"(390.0, 762.0)",0.95,0.429,1,12008.987,3,0.02,same
0,549,catch,"[(1161, 810)]",[],[1],[],vertical,"(390.0, 262.0)",1.7,nan,1,12014.954,3,0.02,same
0,550,valid,"[(1165, 799)]",[],[1],[],vertical,"(890.0, 762.0)",,"('fix', 0.442)",0,12020.904,0,0.02,same
0,551,invalid_same_bar,"[(1132, 803)]",[],[1],[0.55],vertical,"(390.0, 262.0)",0.6,0.509,1,12022.938,1,0.02,same
0,552,valid,"[(1131, 812)]",[],[1],[0.5166666666666666],vertical,"(390.0, 262.0)",0.55,0.48,1,12027.576,1,0.02,same
0,553,valid,"[(1131, 806)]",[],[1],[0.6],horizontal,"(390.0, 262.0)",1.2333333333333334,0.563,1,12032.625,1,0.02,same
0,554,valid,"[(1133, 776)]",[],[1],[0.7],horizontal,"(390.0, 262.0)",0.95,0.654,1,12037.925,2,0.02,same
0,555,valid,"[(1141, 835)]",[],[1],[0.48333333333333334],horizontal,"(890.0, 262.0)",1.1833333333333333,0.446,1,12043.388,2,0.02,same
0,556,valid,"[(1074, 840)]",[],[1],[0.75],vertical,"(390.0, 762.0)",0.8,0.707,1,12050.174,2,0.02,same
0,557,valid,"[(1159, 779)]",[],[1],[0.5333333333333333],vertical,"(390.0, 762.0)",1.1833333333333333,0.494,1,12059.504,3,0.02,same
0,558,valid,"[(1121, 816)]",[],[1],[0.36666666666666664],vertical,"(890.0, 262.0)",1.5333333333333332,0.33,1,12066.105,3,0.02,same
0,559,valid,"[(1126, 803)]",[],[1],[0.5],vertical,"(890.0, 762.0)",1.5333333333333332,0.458,1,12072.737,3,0.02,same
0,560,valid,"[(1141, 803)]",[],[1],[0.55],horizontal,"(390.0, 762.0)",0.9,0.506,1,12079.127,3,0.02,same
0,561,valid,"[(1158, 802)]",[],[1],[0.5333333333333333],vertical,"(890.0, 262.0)",0.43333333333333335,0.495,1,12085.112,3,0.02,same
0,562,valid,"[(1160, 803)]",[],[1],[0.5166666666666666],horizontal,"(890.0, 262.0)",1.3,0.477,1,12090.271,3,0.02,same
0,563,valid,"[(1146, 806)]",[],[1],[0.48333333333333334],vertical,"(890.0, 762.0)",0.7,0.446,1,12096.31,3,0.02,same
0,564,catch,"[(1155, 793)]",[],[1],[],horizontal,"(390.0, 762.0)",1.7,nan,1,12101.688,3,0.02,same
0,565,valid,"[(1158, 809)]",[],[1],[0.85],vertical,"(390.0, 262.0)",1.1333333333333333,nan,0,12107.742,0,0.02,same
0,566,invalid_same_bar,"[(1141, 783)]",[],[1],[0.48333333333333334],vertical,"(890.0, 262.0)",1.4166666666666667,0.444,1,12112.745,1,0.02,same
0,567,valid,"[(1165, 803)]",[],[1],[],vertical,"(390.0, 262.0)",,"('fix', 0.345)",0,12118.409,0,0.02,same
0,568,invalid_adjacent_other_bar,"[(1136, 805)]",[],[1],[0.7666666666666666],horizontal,"(890.0, 262.0)",1.3833333333333333,0.722,1,12120.301,1,0.02,other
0,569,catch,"[(1155, 766)]",[],[1],[],horizontal,"(390.0, 762.0)",1.7,nan,1,12125.905,1,0.02,same
0,570,valid,"[(1131, 813)]",[],[1],[0.6333333333333333],horizontal,"(890.0, 262.0)",0.8333333333333334,0.588,1,12130.965,1,0.0,same
0,571,valid,"[(1153, 792)]",[],[1],[0.5666666666666667],horizontal,"(390.0, 762.0)",1.45,0.526,1,12136.071,2,0.0,same
0,572,valid,"[(1132, 786)]",[],[1],[0.48333333333333334],vertical,"(390.0, 762.0)",0.8333333333333334,0.449,1,12141.949,2,0.0,same
0,573,catch,"[(1156, 789)]",[],[1],[],vertical,"(390.0, 262.0)",,"('fix', 0.407),nan",0,12146.854,0,0.02,same
0,574,valid,"[(1141, 805)]",[],[1],[0.85],horizontal,"(390.0, 762.0)",0.4666666666666667,nan,0,12148.852,0,0.02,same
0,575,valid,"[(1131, 787)]",[],[1],[0.6166666666666667],horizontal,"(890.0, 262.0)",1.4333333333333333,0.577,1,12153.119,1,0.02,same
0,576,valid,"[(1131, 789)]",[],[1],[0.5666666666666667],horizontal,"(390.0, 762.0)",1.3,0.523,1,12158.703,1,0.02,same
0,577,valid,"[(1141, 769)]",[],[1],[0.48333333333333334],horizontal,"(390.0, 262.0)",1.0166666666666666,0.443,1,12164.008,1,0.02,same
0,578,invalid_same_bar,"[(1131, 799)]",[],[1],[0.4666666666666667],horizontal,"(890.0, 262.0)",1.0166666666666666,0.428,1,12169.039,2,0.02,same
0,579,valid,"[(1147, 807)]",[],[1],[0.48333333333333334],vertical,"(890.0, 762.0)",1.0,0.437,1,12174.621,2,0.02,same
0,580,invalid_adjacent_other_bar,"[(1146, 787)]",[],[1],[0.5166666666666666],vertical,"(890.0, 762.0)",0.8,0.473,1,12179.847,2,0.02,other
0,581,catch,"[(1146, 778)]",[],[1],[],vertical,"(390.0, 762.0)",1.7,nan,1,12185.087,3,0.02,same
0,582,valid,"[(1161, 784)]",[],[1],[0.5666666666666667],vertical,"(890.0, 262.0)",1.2,0.526,1,12191.271,3,0.02,same
0,583,valid,"[(1155, 795)]",[],[1],[],vertical,"(390.0, 762.0)",,"('fix', 0.646)",0,12197.569,0,0.02,same
0,584,valid,"[(1136, 781)]",[],[1],[0.85],horizontal,"(390.0, 262.0)",1.2333333333333334,nan,0,12199.753,0,0.02,same
0,585,catch,"[(1116, 812)]",[],[1],[],vertical,"(390.0, 262.0)",,"('cti', 1.218),nan",0,12204.622,0,0.04,same
0,586,valid,"[(1119, 850)]",[],[1],[0.43333333333333335],vertical,"(890.0, 262.0)",0.6833333333333333,0.392,1,12208.888,1,0.04,same
0,587,valid,"[(1158, 816)]",[],[1],[0.45],horizontal,"(390.0, 262.0)",0.7333333333333333,0.414,1,12518.826,1,0.04,same
0,588,catch,"[(1140, 810)]",[],[1],[],horizontal,"(890.0, 262.0)",1.7,nan,1,12523.79,1,0.04,same
0,589,valid,"[(1116, 790)]",[],[1],[0.5],horizontal,"(890.0, 262.0)",0.65,0.458,1,12529.681,2,0.04,same
0,590,catch,"[(1126, 791)]",[],[1],[],vertical,"(390.0, 262.0)",1.7,nan,1,12535.155,2,0.04,same
0,591,valid,"[(1155, 776)]",[],[1],[0.6666666666666666],horizontal,"(890.0, 762.0)",1.1166666666666667,0.628,1,12541.207,2,0.04,same
0,592,valid,"[(1156, 811)]","[(1068, 883)]",[1],[0.36666666666666664],horizontal,"(890.0, 262.0)",,"('bar', 0.378)",0,12547.273,0,0.04,same
0,593,valid,"[(1135, 799)]",[],[1],[0.6333333333333333],vertical,"(390.0, 762.0)",1.45,0.594,1,12549.935,1,0.04,same
0,594,catch,"[(1154, 764)]",[],[1],[],horizontal,"(390.0, 262.0)",1.7,nan,1,12555.348,1,0.04,same
0,595,valid,"[(1158, 787)]",[],[1],[0.5166666666666666],vertical,"(890.0, 762.0)",1.3666666666666667,0.475,1,12560.619,1,0.04,same
0,596,valid,"[(1138, 779)]",[],[1],[0.4666666666666667],vertical,"(890.0, 762.0)",1.1333333333333333,0.441,1,12566.323,2,0.04,same
0,597,valid,"[(1136, 784)]",[],[1],[0.4666666666666667],vertical,"(390.0, 262.0)",1.3833333333333333,0.43,1,12571.81,2,0.04,same
0,598,valid,"[(1156, 786)]",[],[1],[0.5666666666666667],horizontal,"(390.0, 262.0)",1.2333333333333334,0.524,1,12577.256,2,0.04,same
0,599,valid,"[(1136, 811)]",[],[1],[0.55],vertical,"(890.0, 262.0)",0.9,0.514,1,12583.208,3,0.04,same
0,600,valid,"[(1166, 778)]",[],[1],[0.5],horizontal,"(890.0, 262.0)",1.2666666666666666,0.462,1,12589.438,3,0.04,same
0,601,valid,"[(1134, 786)]",[],[1],[0.85],vertical,"(890.0, 762.0)",0.7333333333333333,nan,0,12595.206,0,0.04,same
0,602,valid,"[(1129, 774)]",[],[1],[0.55],vertical,"(390.0, 762.0)",1.4666666666666666,0.505,1,12599.524,1,0.04,same
0,603,catch,"[(1126, 836)]",[],[1],[],vertical,"(390.0, 262.0)",1.7,nan,1,12604.829,1,0.04,same
0,604,catch,"[(1130, 798)]",[],[1],[],horizontal,"(890.0, 762.0)",1.7,nan,1,12610.422,1,0.04,same
0,605,valid,"[(1169, 782)]",[],[1],[],vertical,"(890.0, 762.0)",,"('fix', 0.442)",0,12616.074,0,0.04,same
0,606,valid,"[(1163, 790)]",[],[1],[0.5333333333333333],horizontal,"(890.0, 262.0)",0.7666666666666666,0.495,1,12618.421,1,0.04,same
0,607,invalid_same_bar,"[(1165, 798)]",[],[1],[0.45],vertical,"(390.0, 262.0)",1.2833333333333332,0.41,1,12623.273,1,0.04,same
0,608,valid,"[(1161, 790)]",[],[1],[0.5333333333333333],vertical,"(890.0, 762.0)",0.6,0.492,1,12628.789,1,0.04,same
0,609,catch,"[(1162, 786)]",[],[1],[],horizontal,"(890.0, 762.0)",1.7,nan,1,12633.222,2,0.04,same
0,610,valid,"[(1179, 801)]",[],[1],[],vertical,"(390.0, 262.0)",,"('fix', 0.386)",0,12639.106,0,0.04,same
0,611,valid,"[(1163, 784)]",[],[1],[0.45],vertical,"(890.0, 762.0)",1.5,0.409,1,12641.023,1,0.04,same
0,612,catch,"[(1157, 783)]",[],[1],[],horizontal,"(390.0, 762.0)",1.7,nan,1,12646.574,1,0.04,same
0,613,invalid_adjacent_other_bar,"[(1177, 786)]",[],[1],[],horizontal,"(390.0, 262.0)",,"('fix', 0.5)",0,12652.206,0,0.04,other
0,614,catch,"[(1155, 806)]",[],[1],[],horizontal,"(390.0, 762.0)",1.7,nan,1,12654.249,1,0.04,same
0,615,catch,"[(1154, 794)]",[],[1],[],horizontal,"(890.0, 762.0)",1.7,nan,1,12659.526,1,0.04,same
0,616,invalid_same_bar,"[(1150, 807)]",[],[1],[0.5833333333333334],vertical,"(390.0, 762.0)",0.9,0.539,1,12664.54,1,0.04,same
0,617,valid,"[(1159, 792)]",[],[1],[0.5],vertical,"(890.0, 262.0)",0.9833333333333333,0.467,1,12669.856,2,0.04,same
0,618,valid,"[(1155, 781)]",[],[1],[0.5],horizontal,"(890.0, 262.0)",0.8166666666666667,0.463,1,12674.824,2,0.04,same
0,619,invalid_same_bar,"[(1158, 788)]",[],[1],[0.5166666666666666],horizontal,"(890.0, 762.0)",0.95,0.483,1,12679.857,2,0.04,same
0,620,valid,"[(1141, 801)]",[],[1],[0.48333333333333334],horizontal,"(390.0, 762.0)",1.15,0.444,1,12684.922,3,0.04,same
0,621,catch,"[(1158, 774)]",[],[1],[],horizontal,"(890.0, 762.0)",,"('cti', 1.681),nan",0,12690.69,0,0.06,same
0,622,valid,"[(1145, 776)]",[],[1],[0.4],horizontal,"(390.0, 762.0)",0.7833333333333333,0.367,1,12695.657,1,0.06,same
0,623,invalid_same_bar,"[(1155, 809)]",[],[1],[0.6166666666666667],horizontal,"(390.0, 262.0)",0.36666666666666664,0.578,1,12700.458,1,0.04,same
0,624,invalid_same_bar,"[(1126, 796)]",[],[1],[0.48333333333333334],vertical,"(890.0, 262.0)",1.2833333333333332,0.443,1,12705.009,1,0.04,same
0,625,valid,"[(1126, 793)]",[],[1],[0.6833333333333333],vertical,"(390.0, 762.0)",1.2166666666666666,0.643,1,12710.54,2,0.04,same
0,626,catch,"[(1158, 783)]",[],[1],[],vertical,"(390.0, 762.0)",1.7,nan,1,12716.475,2,0.04,same
0,627,valid,"[(1156, 792)]",[],[1],[0.48333333333333334],horizontal,"(390.0, 262.0)",0.6833333333333333,0.448,1,12722.074,2,0.04,same
0,628,invalid_adjacent_other_bar,"[(1133, 794)]",[],[1],[0.5],vertical,"(890.0, 262.0)",0.5333333333333333,0.468,1,12727.073,3,0.04,other
0,629,valid,"[(1175, 779)]",[],[1],[],vertical,"(390.0, 262.0)",,"('fix', 0.317)",0,12732.606,0,0.04,same
0,630,valid,"[(1116, 782)]",[],[1],[0.4666666666666667],vertical,"(890.0, 262.0)",1.25,0.426,1,12734.442,1,0.04,same
0,631,catch,"[(1136, 786)]",[],[1],[],vertical,"(890.0, 762.0)",1.7,nan,1,12739.539,1,0.04,same
0,632,catch,"[(1157, 776)]",[],[1],[],vertical,"(390.0, 262.0)",1.7,nan,1,12744.917,1,0.04,same
0,633,valid,"[(1086, 835)]",[],[1],[0.85],vertical,"(390.0, 762.0)",0.3833333333333333,nan,0,12750.317,0,0.04,same
0,634,valid,"[(1132, 811)]",[],[1],[0.35],vertical,"(390.0, 762.0)",1.5166666666666666,0.315,1,12754.852,1,0.04,same
0,635,valid,"[(1155, 782)]",[],[1],[0.85],vertical,"(390.0, 262.0)",0.5333333333333333,nan,0,12760.688,0,0.02,same
0,636,valid,"[(1131, 792)]",[],[1],[0.5333333333333333],horizontal,"(890.0, 262.0)",1.4666666666666666,0.49,1,12764.816,1,0.02,same
0,637,invalid_adjacent_other_bar,"[(1159, 788)]",[],[1],[0.5333333333333333],horizontal,"(390.0, 762.0)",1.5333333333333332,0.495,1,12769.94,1,0.02,other
0,638,invalid_same_bar,"[(1160, 802)]",[],[1],[0.5333333333333333],vertical,"(890.0, 762.0)",1.1,0.492,1,12775.391,1,0.02,same
0,639,valid,"[(1159, 807)]",[],[1],[0.6666666666666666],horizontal,"(890.0, 762.0)",0.35,0.624,1,12780.457,2,0.02,same
0,640,valid,"[(1160, 779)]",[],[1],[0.5333333333333333],vertical,"(890.0, 262.0)",1.25,0.492,1,12785.241,2,0.02,same
0,641,valid,"[(1159, 793)]",[],[1],[0.55],vertical,"(890.0, 762.0)",1.0666666666666667,0.518,1,12791.102,2,0.02,same
0,642,catch,"[(1154, 784)]",[],[1],[],vertical,"(890.0, 262.0)",1.7,nan,1,12796.696,3,0.02,same
0,643,valid,"[(1160, 789)]",[],[1],[],vertical,"(390.0, 262.0)",,"('fix', 0.468)",0,12803.073,0,0.02,same
0,644,valid,"[(1133, 803)]",[],[1],[0.5],horizontal,"(390.0, 262.0)",0.7166666666666667,0.461,1,12805.041,1,0.02,same
0,645,valid,"[(1151, 790)]",[],[1],[0.5333333333333333],horizontal,"(390.0, 262.0)",0.3833333333333333,0.497,1,12809.371,1,0.02,same
0,646,valid,"[(1121, 836)]",[],[1],[0.3],vertical,"(890.0, 762.0)",1.3333333333333333,0.266,1,12814.047,1,0.02,same
0,647,valid,"[(1136, 806)]",[],[1],[0.85],vertical,"(390.0, 262.0)",0.4666666666666667,nan,0,13598.427,0,0.02,same
0,648,catch,"[(1137, 786)]",[],[1],[],vertical,"(390.0, 762.0)",1.7,nan,1,13602.789,1,0.02,same
0,649,valid,"[(1159, 791)]",[],[1],[0.55],horizontal,"(390.0, 262.0)",1.5333333333333332,0.506,1,13608.27,1,0.02,same
0,650,valid,"[(1135, 802)]",[],[1],[0.5],horizontal,"(390.0, 262.0)",0.55,0.464,1,13613.295,1,0.02,same
0,651,invalid_same_bar,"[(1131, 820)]",[],[1],[0.48333333333333334],horizontal,"(390.0, 762.0)",0.7,0.445,1,13618.084,2,0.02,same
0,652,valid,"[(1156, 792)]",[],[1],[0.5],horizontal,"(890.0, 762.0)",1.5166666666666666,0.46,1,13623.395,2,0.02,same
0,653,valid,"[(1121, 830)]",[],[1],[0.85],vertical,"(390.0, 262.0)",1.5166666666666666,nan,0,13628.777,0,0.02,same
0,654,valid,"[(1133, 819)]",[],[1],[0.5666666666666667],horizontal,"(890.0, 262.0)",0.6666666666666666,0.522,1,13634.16,1,0.02,same
0,655,catch,"[(1146, 809)]",[],[1],[],vertical,"(390.0, 262.0)",1.7,nan,1,13795.026,1,0.02,same
0,656,valid,"[(1137, 794)]",[],[1],[0.5666666666666667],vertical,"(390.0, 762.0)",1.2666666666666666,0.521,1,13799.983,1,0.02,same
0,657,valid,"[(1153, 806)]",[],[1],[0.48333333333333334],vertical,"(890.0, 762.0)",1.0166666666666666,0.444,1,13805.644,2,0.02,same
0,658,valid,"[(1140, 795)]",[],[1],[0.5333333333333333],horizontal,"(390.0, 262.0)",0.7,0.49,1,13811.138,2,0.02,same
0,659,valid,"[(1136, 780)]",[],[1],[0.55],vertical,"(390.0, 762.0)",0.75,0.508,1,13816.47,2,0.02,same
0,660,valid,"[(1131, 787)]",[],[1],[0.5333333333333333],horizontal,"(890.0, 762.0)",0.9333333333333333,0.491,1,13821.369,3,0.02,same
0,661,catch,"[(1155, 791)]",[],[1],[],vertical,"(390.0, 762.0)",1.7,nan,1,13826.963,3,0.02,same
0,662,valid,"[(1166, 790)]",[],[1],[0.5],vertical,"(890.0, 262.0)",1.1166666666666667,0.452,1,13832.901,3,0.02,same
0,663,catch,"[(1156, 773)]",[],[1],[],vertical,"(390.0, 762.0)",1.7,nan,1,13838.603,3,0.02,same
0,664,valid,"[(1157, 773)]",[],[1],[0.85],vertical,"(390.0, 762.0)",0.4166666666666667,nan,0,13844.565,0,0.02,same
0,665,valid,"[(1137, 776)]",[],[1],[0.85],vertical,"(890.0, 262.0)",0.7833333333333333,nan,0,13848.43,0,0.02,same
0,666,valid,"[(1122, 782)]",[],[1],[0.45],horizontal,"(890.0, 262.0)",1.4333333333333333,0.407,1,13852.915,1,0.02,same
0,667,invalid_same_bar,"[(1151, 785)]",[],[1],[0.5166666666666666],horizontal,"(390.0, 762.0)",0.9833333333333333,0.47,1,13858.361,1,0.02,same
0,668,valid,"[(1136, 796)]",[],[1],[0.4666666666666667],vertical,"(390.0, 262.0)",0.6833333333333333,0.427,1,13863.018,1,0.02,same
0,669,valid,"[(1126, 813)]",[],[1],[0.45],vertical,"(890.0, 762.0)",0.55,0.411,1,13867.455,2,0.02,same
0,670,invalid_adjacent_other_bar,"[(1151, 816)]",[],[1],[0.48333333333333334],vertical,"(890.0, 762.0)",0.7833333333333333,0.436,1,13872.354,2,0.02,other
0,671,valid,"[(1131, 802)]",[],[1],[0.48333333333333334],vertical,"(390.0, 262.0)",0.36666666666666664,0.441,1,13877.194,2,0.0,same
0,672,catch,"[(1132, 792)]",[],[1],[],horizontal,"(890.0, 262.0)",1.7,nan,1,13882.076,3,0.0,same
0,673,valid,"[(1137, 792)]",[],[1],[0.5666666666666667],horizontal,"(890.0, 262.0)",0.65,0.522,1,13888.51,3,0.0,same
0,674,valid,"[(1165, 815)]",[],[1],[0.7333333333333333],vertical,"(890.0, 262.0)",0.9,0.687,1,13893.587,3,0.0,same
0,675,catch,"[(1163, 782)]",[],[1],[],horizontal,"(890.0, 762.0)",1.7,nan,1,13899.359,3,0.0,same
0,676,valid,"[(1160, 793)]",[],[1],[0.6],horizontal,"(390.0, 262.0)",0.4166666666666667,0.561,1,13905.36,3,0.0,same
0,677,valid,"[(1157, 788)]",[],[1],[0.85],vertical,"(390.0, 262.0)",1.0,nan,0,13910.627,0,0.0,same
0,678,catch,"[(1136, 809)]",[],[1],[],horizontal,"(390.0, 762.0)",1.7,nan,1,13915.46,1,0.0,same
0,679,invalid_same_bar,"[(1146, 797)]",[],[1],[],vertical,"(390.0, 762.0)",,"('fix', 0.684)",0,13920.403,0,0.0,same
0,680,valid,"[(1071, 802)]",[],[1],[0.5],vertical,"(390.0, 262.0)",0.6666666666666666,0.46,1,13922.66,1,0.0,same
0,681,valid,"[(1156, 809)]",[],[1],[0.5],vertical,"(390.0, 262.0)",0.7333333333333333,0.456,1,13927.584,1,0.0,same
0,682,valid,"[(1160, 808)]",[],[1],[],vertical,"(390.0, 762.0)",,"('cti', 1.127)",0,13932.32,0,0.0,same
0,683,invalid_adjacent_other_bar,"[(1160, 809)]",[],[1],[0.5666666666666667],vertical,"(390.0, 262.0)",0.36666666666666664,0.522,1,13936.345,1,0.0,other
0,684,catch,"[(1156, 811)]",[],[1],[],vertical,"(390.0, 262.0)",1.7,nan,1,13940.988,1,0.0,same
0,685,valid,"[(1156, 790)]",[],[1],[0.6],horizontal,"(890.0, 262.0)",1.05,0.554,1,13946.128,1,0.0,same
0,686,catch,"[(1131, 811)]",[],[1],[],vertical,"(890.0, 262.0)",1.7,nan,1,13950.946,2,0.0,same
0,687,valid,"[(1155, 790)]",[],[1],[0.6666666666666666],horizontal,"(390.0, 262.0)",1.1,0.625,1,13956.739,2,0.0,same
0,688,valid,"[(1162, 799)]",[],[1],[],vertical,"(390.0, 762.0)",,"('fix', 0.458)",0,13962.193,0,0.0,same
0,689,valid,"[(1131, 787)]",[],[1],[0.6],vertical,"(390.0, 762.0)",1.1,0.562,1,13964.131,1,0.0,same
0,690,valid,"[(1135, 806)]",[],[1],[0.48333333333333334],vertical,"(890.0, 262.0)",0.7,0.441,1,13969.567,1,0.0,same
0,691,valid,"[(1156, 800)]",[],[1],[0.5],horizontal,"(390.0, 762.0)",0.85,0.464,1,13974.29,1,0.0,same
0,692,catch,"[(1132, 801)]",[],[1],[],horizontal,"(390.0, 262.0)",1.7,nan,1,13979.162,2,0.0,same
0,693,catch,"[(1161, 785)]",[],[1],[],vertical,"(390.0, 262.0)",1.7,nan,1,13985.127,2,0.0,same
0,694,valid,"[(1153, 804)]",[],[1],[0.5666666666666667],vertical,"(890.0, 762.0)",1.0166666666666666,0.528,1,13990.744,2,0.0,same
0,695,valid,"[(1136, 803)]",[],[1],[0.6333333333333333],horizontal,"(390.0, 262.0)",0.9,0.598,1,13996.111,3,0.0,same
0,696,valid,"[(1171, 796)]",[],[1],[],vertical,"(890.0, 762.0)",,"('fix', 0.403)",0,14002.495,0,0.0,same
0,697,valid,"[(1086, 800)]",[],[1],[0.48333333333333334],horizontal,"(390.0, 762.0)",0.95,0.442,1,14004.427,1,0.0,same
0,698,valid,"[(1160, 791)]",[],[1],[0.85],horizontal,"(890.0, 762.0)",0.6,nan,0,14009.326,0,0.0,same
0,699,catch,"[(1136, 801)]",[],[1],[],vertical,"(390.0, 262.0)",1.7,nan,1,14014.195,1,0.0,same
0,700,invalid_same_bar,"[(1166, 802)]",[],[1],[0.6166666666666667],horizontal,"(390.0, 262.0)",0.95,0.575,1,14019.395,1,0.0,same
0,701,valid,"[(1165, 796)]",[],[1],[0.6166666666666667],horizontal,"(890.0, 262.0)",0.48333333333333334,0.571,1,14024.194,1,0.0,same
0,702,valid,"[(1161, 815)]",[],[1],[0.5666666666666667],horizontal,"(390.0, 762.0)",1.15,0.523,1,14028.511,2,0.0,same
0,703,valid,"[(1160, 794)]",[],[1],[0.65],horizontal,"(890.0, 262.0)",0.48333333333333334,0.605,1,14034.211,2,0.0,same
0,704,valid,"[(1131, 811)]",[],[1],[0.5],horizontal,"(390.0, 262.0)",0.8166666666666667,0.456,1,14038.903,2,0.0,same
0,705,catch,"[(1156, 788)]",[],[1],[],horizontal,"(890.0, 762.0)",1.7,nan,1,14044.324,3,0.0,same
0,706,valid,"[(1155, 782)]",[],[1],[0.85],vertical,"(390.0, 762.0)",1.1333333333333333,nan,0,14050.352,0,0.0,same
0,707,valid,"[(1145, 797)]",[],[1],[0.85],horizontal,"(390.0, 762.0)",1.3,nan,0,14055.361,0,0.0,same
0,708,invalid_adjacent_other_bar,"[(1135, 797)]",[],[1],[0.5166666666666666],horizontal,"(390.0, 762.0)",0.95,0.475,1,14060.212,1,0.0,other
0,709,valid,"[(1159, 809)]",[],[1],[0.5666666666666667],horizontal,"(890.0, 262.0)",0.7666666666666666,0.525,1,14065.194,1,0.0,same
0,710,catch,"[(1131, 796)]",[],[1],[],vertical,"(390.0, 262.0)",1.7,nan,1,14070.033,1,0.0,same
0,711,valid,"[(1117, 793)]",[],[1],[0.6166666666666667],horizontal,"(390.0, 762.0)",0.7833333333333333,0.574,1,14075.419,2,0.0,same
0,712,catch,"[(1161, 786)]",[],[1],[],horizontal,"(890.0, 262.0)",1.7,nan,1,14080.819,2,0.0,same
0,713,invalid_adjacent_other_bar,"[(1159, 786)]",[],[1],[0.55],vertical,"(890.0, 762.0)",1.4166666666666667,0.506,1,14086.377,2,0.0,other
0,714,valid,"[(1160, 806)]",[],[1],[0.85],horizontal,"(390.0, 762.0)",0.43333333333333335,nan,0,14091.959,0,0.0,same
0,715,catch,"[(1141, 801)]",[],[1],[],vertical,"(890.0, 262.0)",1.7,nan,1,14096.251,1,0.0,same
0,716,catch,"[(1116, 806)]",[],[1],[],vertical,"(390.0, 762.0)",1.7,nan,1,14101.372,1,0.0,same
0,717,valid,"[(1161, 809)]",[],[1],[0.65],horizontal,"(390.0, 262.0)",1.5166666666666666,0.609,1,14106.734,1,0.0,same
0,718,valid,"[(1153, 806)]",[],[1],[0.5166666666666666],horizontal,"(890.0, 262.0)",1.2,0.473,1,14112.087,2,0.0,same
0,719,invalid_adjacent_other_bar,"[(1160, 802)]",[],[1],[0.6],horizontal,"(390.0, 762.0)",1.1,0.558,1,14117.711,2,0.0,other
0,720,invalid_same_bar,"[(1159, 801)]",[],[1],[0.85],horizontal,"(390.0, 762.0)",1.0666666666666667,nan,0,14122.968,0,0.0,same
0,721,valid,"[(1141, 807)]",[],[1],[0.6166666666666667],horizontal,"(390.0, 762.0)",0.7833333333333333,0.576,1,14128.286,1,0.0,same
0,722,valid,"[(1175, 798)]",[],[1],[0.6333333333333333],vertical,"(390.0, 262.0)",0.5666666666666667,0.591,1,14132.895,1,0.0,same
0,723,valid,"[(1160, 808)]",[],[1],[0.5666666666666667],vertical,"(890.0, 762.0)",1.5,0.522,1,14137.201,1,0.0,same
0,724,valid,"[(1160, 803)]",[],[1],[0.5166666666666666],vertical,"(390.0, 262.0)",1.0666666666666667,0.476,1,14143.017,2,0.0,same
0,725,catch,"[(1160, 781)]",[],[1],[],vertical,"(390.0, 262.0)",1.7,nan,1,14148.61,2,0.0,same
0,726,invalid_same_bar,"[(1158, 795)]",[],[1],[0.48333333333333334],vertical,"(890.0, 762.0)",1.25,0.438,1,14154.012,2,0.0,same
0,727,catch,"[(1153, 812)]",[],[1],[],horizontal,"(890.0, 762.0)",1.7,nan,1,14159.569,3,0.0,same
0,728,catch,"[(1165, 799)]",[],[1],[],horizontal,"(390.0, 262.0)",,"('fix', 0.445),nan",0,14166.226,0,0.02,same
0,729,valid,"[(1141, 811)]",[],[1],[0.5],vertical,"(890.0, 262.0)",1.3833333333333333,0.461,1,14168.163,1,0.02,same
0,730,valid,"[(1133, 807)]",[],[1],[0.6833333333333333],horizontal,"(890.0, 762.0)",0.85,0.641,1,14173.204,1,0.02,same
0,731,invalid_same_bar,"[(1119, 817)]",[],[1],[0.5],vertical,"(390.0, 262.0)",1.0166666666666666,0.461,1,14178.711,1,0.02,same
0,732,valid,"[(1098, 849)]",[],[1],[0.55],horizontal,"(390.0, 762.0)",0.48333333333333334,0.508,1,14183.961,2,0.02,same
0,733,valid,"[(1159, 808)]",[],[1],[0.85],vertical,"(390.0, 262.0)",1.2666666666666666,nan,0,14189.061,0,0.02,same
0,734,catch,"[(1132, 781)]",[],[1],[],vertical,"(890.0, 262.0)",1.7,nan,1,14193.944,1,0.02,same
0,735,valid,"[(1132, 807)]",[],[1],[0.5],horizontal,"(390.0, 762.0)",0.5833333333333334,0.459,1,14199.494,1,0.02,same
0,736,valid,"[(1132, 790)]",[],[1],[0.5166666666666666],vertical,"(890.0, 762.0)",0.8,0.483,1,14204.328,1,0.02,same
0,737,valid,"[(1155, 789)]",[],[1],[0.48333333333333334],vertical,"(890.0, 762.0)",0.5,0.448,1,14209.098,2,0.02,same
0,738,valid,"[(1158, 798)]",[],[1],[0.5333333333333333],horizontal,"(890.0, 762.0)",0.5166666666666666,0.488,1,14213.729,2,0.02,same
0,739,catch,"[(1146, 812)]",[],[1],[],horizontal,"(390.0, 262.0)",1.7,nan,1,14218.361,2,0.02,same
0,740,catch,"[(1167, 810)]",[],[1],[],horizontal,"(390.0, 762.0)",1.7,nan,1,14224.124,3,0.02,same
0,741,catch,"[(1132, 814)]",[],[1],[],vertical,"(390.0, 262.0)",1.7,nan,1,14230.153,3,0.02,same
0,742,valid,"[(1156, 792)]",[],[1],[0.5166666666666666],horizontal,"(390.0, 262.0)",0.36666666666666664,0.477,1,14236.092,3,0.02,same
0,743,valid,"[(1165, 806)]",[],[1],[0.85],horizontal,"(890.0, 262.0)",1.2166666666666666,nan,0,14241.095,0,0.02,same
0,744,valid,"[(1110, 793)]",[],[1],[0.7],horizontal,"(390.0, 262.0)",1.3,0.667,1,14246.048,1,0.02,same
0,745,invalid_same_bar,"[(1116, 820)]",[],[1],[0.55],vertical,"(390.0, 262.0)",0.36666666666666664,0.509,1,14251.311,1,0.02,same
0,746,valid,"[(1146, 800)]",[],[1],[0.4666666666666667],vertical,"(890.0, 262.0)",1.35,0.429,1,14256.232,1,0.02,same
0,747,valid,"[(1120, 813)]",[],[1],[0.45],horizontal,"(890.0, 262.0)",1.4833333333333334,0.41,1,14262.145,2,0.02,same
0,748,invalid_adjacent_other_bar,"[(1157, 792)]",[],[1],[0.85],vertical,"(390.0, 762.0)",1.3166666666666667,nan,0,14267.923,0,0.02,other
0,749,valid,"[(1158, 811)]",[],[1],[0.65],horizontal,"(390.0, 762.0)",0.95,0.609,1,14272.763,1,0.02,same
0,750,valid,"[(1158, 811)]",[],[1],[0.85],vertical,"(390.0, 762.0)",0.6,nan,0,14277.931,0,0.02,same
0,751,valid,"[(1087, 811)]",[],[1],[0.55],vertical,"(890.0, 762.0)",0.5166666666666666,0.502,1,14282.273,1,0.02,same
0,752,catch,"[(1136, 809)]",[],[1],[],horizontal,"(390.0, 262.0)",1.7,nan,1,14306.102,1,0.02,same
0,753,catch,"[(1137, 825)]",[],[1],[],horizontal,"(390.0, 262.0)",1.7,nan,1,14311.639,1,0.02,same
0,754,valid,"[(1121, 816)]",[],[1],[0.48333333333333334],vertical,"(390.0, 762.0)",1.3166666666666667,0.444,1,14316.908,2,0.02,same
0,755,catch,"[(1111, 855)]",[],[1],[],vertical,"(890.0, 762.0)",1.7,nan,1,14323.161,2,0.02,same
0,756,invalid_same_bar,"[(1174, 801)]",[],[1],[0.55],horizontal,"(890.0, 762.0)",0.6666666666666666,0.509,1,14328.962,2,0.02,same
0,757,valid,"[(1131, 811)]",[],[1],[0.5166666666666666],horizontal,"(390.0, 262.0)",1.1333333333333333,0.477,1,14333.83,3,0.02,same
0,758,valid,"[(1121, 843)]",[],[1],[0.5166666666666666],vertical,"(390.0, 762.0)",1.0333333333333332,0.476,1,14340.166,3,0.02,same
0,759,valid,"[(1160, 810)]",[],[1],[0.5166666666666666],horizontal,"(890.0, 762.0)",0.6333333333333333,0.482,1,14346.337,3,0.02,same
0,760,invalid_adjacent_other_bar,"[(1167, 810)]",[],[1],[],horizontal,"(390.0, 762.0)",,"('fix', 0.397)",0,14351.913,0,0.02,other
0,761,valid,"[(1107, 811)]",[],[1],[0.85],vertical,"(890.0, 262.0)",0.5333333333333333,nan,0,14353.813,0,0.02,same
0,762,invalid_same_bar,"[(1135, 807)]",[],[1],[],horizontal,"(890.0, 762.0)",,"('cti', 0.525)",0,14358.662,0,0.02,same
0,763,valid,"[(1121, 861)]",[],[1],[],vertical,"(890.0, 262.0)",,"('cti', 1.173)",0,14361.963,0,0.02,same
0,764,invalid_adjacent_other_bar,"[(1088, 815)]",[],[1],[0.55],vertical,"(890.0, 762.0)",0.4666666666666667,0.51,1,14837.183,1,0.02,other
0,765,catch,"[(1126, 793)]",[],[1],[],vertical,"(390.0, 262.0)",1.7,nan,1,14841.997,1,0.02,same
0,766,valid,"[(1150, 806)]",[],[1],[0.48333333333333334],vertical,"(390.0, 262.0)",1.4166666666666667,0.446,1,14847.555,1,0.02,same
0,767,valid,"[(1152, 811)]",[],[1],[0.5666666666666667],vertical,"(390.0, 262.0)",0.5,0.529,1,14853.101,2,0.02,same
0,768,valid,"[(1125, 815)]",[],[1],[0.5],horizontal,"(890.0, 762.0)",1.1333333333333333,0.46,1,14857.971,2,0.02,same
0,769,valid,"[(1172, 796)]",[],[1],[0.48333333333333334],vertical,"(890.0, 762.0)",1.5166666666666666,0.442,1,14863.197,2,0.02,same
0,770,valid,"[(1127, 802)]",[],[1],[0.5833333333333334],vertical,"(890.0, 762.0)",0.95,0.542,1,14869.08,3,0.02,same
0,771,valid,"[(1155, 808)]",[],[1],[0.45],horizontal,"(390.0, 262.0)",1.1666666666666667,0.409,1,14875.381,3,0.02,same
0,772,catch,"[(1161, 807)]",[],[1],[],vertical,"(390.0, 762.0)",1.7,nan,1,14881.098,3,0.02,same
0,773,valid,"[(1177, 801)]",[],[1],[0.6666666666666666],vertical,"(890.0, 762.0)",1.0166666666666666,0.617,1,14887.081,3,0.02,same
0,774,valid,"[(1166, 777)]",[],[1],[0.6],horizontal,"(890.0, 262.0)",0.8833333333333333,0.564,1,14893.065,3,0.02,same
0,775,valid,"[(1171, 790)]",[],[1],[0.7],vertical,"(390.0, 262.0)",0.85,0.663,1,14898.648,3,0.02,same
0,776,invalid_adjacent_other_bar,"[(1141, 806)]",[],[1],[0.85],vertical,"(390.0, 762.0)",0.48333333333333334,nan,0,14904.68,0,0.02,other
0,777,valid,"[(1128, 798)]",[],[1],[0.65],vertical,"(390.0, 762.0)",1.4166666666666667,0.606,1,14908.831,1,0.02,same
0,778,valid,"[(1152, 809)]",[],[1],[0.6166666666666667],horizontal,"(890.0, 762.0)",0.8166666666666667,0.573,1,14914.192,1,0.0,same
0,779,valid,"[(1155, 807)]",[],[1],[],horizontal,"(390.0, 262.0)",,"('fix', 0.474)",0,14918.747,0,0.0,same
0,780,valid,"[(1138, 794)]",[],[1],[0.85],vertical,"(390.0, 762.0)",0.4166666666666667,nan,0,14920.801,0,0.0,same
0,781,valid,"[(1126, 793)]",[],[1],[0.85],vertical,"(390.0, 262.0)",0.7333333333333333,nan,0,14924.908,0,0.0,same
0,782,catch,"[(1144, 793)]",[],[1],[],horizontal,"(890.0, 262.0)",,"('cti', 1.569),nan",0,14929.571,0,0.02,same
0,783,valid,"[(1167, 819)]",[],[1],[0.85],horizontal,"(390.0, 762.0)",0.4166666666666667,nan,0,14934.362,0,0.02,same
0,784,valid,"[(1131, 815)]",[],[1],[0.48333333333333334],horizontal,"(890.0, 762.0)",1.2,0.442,1,14938.798,1,0.02,same
0,785,invalid_same_bar,"[(1171, 780)]",[],[1],[0.5],horizontal,"(390.0, 762.0)",0.75,0.466,1,14944.109,1,0.02,same
0,786,valid,"[(1172, 798)]",[],[1],[0.5],horizontal,"(890.0, 762.0)",1.5166666666666666,0.459,1,14948.852,1,0.02,same
0,787,valid,"[(1160, 805)]",[],[1],[0.55],vertical,"(890.0, 762.0)",0.7333333333333333,0.511,1,14954.562,2,0.02,same
0,788,valid,"[(1177, 806)]",[],[1],[0.5166666666666666],horizontal,"(390.0, 262.0)",1.2333333333333334,0.477,1,14959.943,2,0.02,same
0,789,valid,"[(1160, 789)]",[],[1],[0.5166666666666666],horizontal,"(890.0, 762.0)",1.4,0.478,1,14965.397,2,0.02,same
0,790,valid,"[(1174, 799)]",[],[1],[0.5333333333333333],vertical,"(390.0, 762.0)",1.0166666666666666,0.492,1,14971.046,3,0.02,same
0,791,valid,"[(1170, 781)]",[],[1],[0.6333333333333333],horizontal,"(390.0, 762.0)",1.1833333333333333,0.602,1,14977.166,3,0.02,same
0,792,valid,"[(1164, 791)]",[],[1],[0.65],horizontal,"(890.0, 762.0)",1.2,0.618,1,14982.981,3,0.02,same
0,793,catch,"[(1161, 795)]",[],[1],[],horizontal,"(890.0, 262.0)",,"('fix', 0.507),nan",0,14989.305,0,0.04,same
0,794,valid,"[(1131, 813)]",[],[1],[0.85],horizontal,"(390.0, 262.0)",0.8666666666666667,nan,0,14991.302,0,0.04,same
0,795,invalid_same_bar,"[(1141, 786)]",[],[1],[0.6166666666666667],vertical,"(890.0, 262.0)",1.35,0.569,1,14996.193,1,0.04,same
0,796,valid,"[(1122, 821)]",[],[1],[0.5],vertical,"(890.0, 262.0)",1.4166666666666667,0.467,1,15001.641,1,0.04,same
0,797,catch,"[(1158, 791)]",[],[1],[],horizontal,"(390.0, 262.0)",,"('cti', 1.577),nan",0,15007.257,0,0.06,same
0,798,valid,"[(1121, 845)]",[],[1],[],vertical,"(390.0, 762.0)",,"('cti', 1.162)",0,15011.675,0,0.06,same
0,799,valid,"[(1125, 842)]",[],[1],[0.6333333333333333],horizontal,"(890.0, 262.0)",0.6166666666666667,0.595,1,15016.217,1,0.06,same
0,800,valid,"[(1132, 813)]",[],[1],[0.4666666666666667],vertical,"(890.0, 762.0)",1.0166666666666666,0.432,1,17071.092,1,0.06,same
0,801,valid,"[(1156, 817)]",[],[1],[0.5166666666666666],vertical,"(890.0, 262.0)",1.2833333333333332,0.484,1,17076.054,1,0.06,same
0,802,valid,"[(1136, 799)]",[],[1],[0.5],vertical,"(890.0, 262.0)",1.3166666666666667,0.454,1,17081.765,2,0.06,same
0,803,valid,"[(1146, 782)]",[],[1],[0.48333333333333334],vertical,"(890.0, 762.0)",1.1166666666666667,0.449,1,17087.874,2,0.06,same
0,804,valid,"[(1156, 801)]",[],[1],[0.48333333333333334],vertical,"(890.0, 762.0)",1.0333333333333332,0.448,1,17093.127,2,0.06,same
0,805,valid,"[(1131, 806)]",[],[1],[0.6166666666666667],vertical,"(890.0, 262.0)",1.1833333333333333,0.575,1,17098.922,3,0.06,same
0,806,catch,"[(1158, 778)]",[],[1],[],horizontal,"(390.0, 262.0)",1.7,nan,1,17105.133,3,0.06,same
0,807,invalid_same_bar,"[(1131, 815)]",[],[1],[],horizontal,"(890.0, 262.0)",,"('cti', 1.286)",0,17110.839,0,0.06,same
0,808,valid,"[(1126, 799)]",[],[1],[0.5833333333333334],vertical,"(390.0, 262.0)",1.15,0.547,1,17117.104,1,0.06,same
0,809,valid,"[(1170, 783)]",[],[1],[0.45],vertical,"(390.0, 762.0)",1.3166666666666667,0.408,1,17122.572,1,0.06,same
0,810,valid,"[(1126, 811)]",[],[1],[0.85],horizontal,"(390.0, 262.0)",1.45,nan,0,17128.288,0,0.06,same
0,811,valid,"[(1151, 806)]",[],[1],[0.48333333333333334],vertical,"(890.0, 262.0)",1.2,0.44,1,17134.036,1,0.06,same
0,812,valid,"[(1156, 798)]",[],[1],[0.4666666666666667],vertical,"(890.0, 762.0)",1.1,0.427,1,17139.133,1,0.06,same
0,813,catch,"[(1169, 782)]",[],[1],[],horizontal,"(390.0, 762.0)",1.7,nan,1,17144.12,1,0.06,same
0,814,valid,"[(1158, 794)]",[],[1],[0.55],horizontal,"(890.0, 262.0)",0.7666666666666666,0.509,1,17149.7,2,0.06,same
0,815,catch,"[(1158, 790)]",[],[1],[],horizontal,"(390.0, 762.0)",1.7,nan,1,17155.2,2,0.06,same
0,816,valid,"[(1136, 806)]",[],[1],[0.85],horizontal,"(390.0, 262.0)",0.5166666666666666,nan,0,17160.837,0,0.06,same
0,817,valid,"[(1111, 776)]",[],[1],[0.48333333333333334],vertical,"(890.0, 762.0)",1.2833333333333332,0.443,1,17164.943,1,0.06,same
0,818,catch,"[(1174, 790)]",[],[1],[],vertical,"(890.0, 262.0)",1.7,nan,1,17169.933,1,0.06,same
0,819,valid,"[(1156, 783)]",[],[1],[0.5333333333333333],vertical,"(890.0, 262.0)",0.8,0.489,1,17175.222,1,0.06,same
0,820,valid,"[(1175, 807)]",[],[1],[0.4666666666666667],vertical,"(390.0, 762.0)",1.05,0.426,1,17179.641,2,0.06,same
0,821,valid,"[(1165, 793)]",[],[1],[0.5166666666666666],horizontal,"(890.0, 262.0)",0.75,0.476,1,17185.38,2,0.06,same
0,822,valid,"[(1160, 773)]",[],[1],[0.4666666666666667],vertical,"(390.0, 262.0)",0.7166666666666667,0.431,1,17190.542,2,0.06,same
0,823,valid,"[(1174, 778)]",[],[1],[0.5166666666666666],horizontal,"(390.0, 262.0)",1.2166666666666666,0.475,1,17195.689,3,0.06,same
0,824,valid,"[(1163, 772)]",[],[1],[0.85],vertical,"(390.0, 262.0)",1.45,nan,0,17201.688,0,0.06,same
0,825,valid,"[(1129, 810)]",[],[1],[0.5166666666666666],vertical,"(390.0, 262.0)",1.0,0.478,1,17206.596,1,0.06,same
0,826,valid,"[(1165, 781)]",[],[1],[0.5166666666666666],vertical,"(390.0, 262.0)",0.8333333333333334,0.48,1,17212.233,1,0.06,same
0,827,valid,"[(1182, 781)]",[],[1],[0.5],vertical,"(390.0, 262.0)",1.4833333333333334,0.462,1,17217.005,1,0.06,same
0,828,valid,"[(1165, 792)]",[],[1],[0.5833333333333334],vertical,"(890.0, 262.0)",0.3833333333333333,0.544,1,17222.223,2,0.06,same
0,829,valid,"[(1180, 772)]",[],[1],[0.5166666666666666],horizontal,"(390.0, 762.0)",1.0333333333333332,0.475,1,17226.904,2,0.06,same
0,830,catch,"[(1126, 789)]",[],[1],[],horizontal,"(890.0, 262.0)",1.7,nan,1,17231.758,2,0.06,same
0,831,valid,"[(1159, 783)]",[],[1],[0.5833333333333334],horizontal,"(890.0, 262.0)",0.6833333333333333,0.543,1,17237.539,3,0.06,same
0,832,invalid_adjacent_other_bar,"[(1178, 785)]",[],[1],[0.4666666666666667],horizontal,"(890.0, 762.0)",1.1166666666666667,0.423,1,17243.739,3,0.04,other
0,833,invalid_adjacent_other_bar,"[(1180, 781)]",[],[1],[0.6333333333333333],vertical,"(390.0, 762.0)",1.3,0.592,1,17249.368,3,0.04,other
0,834,invalid_same_bar,"[(1154, 776)]",[],[1],[0.5],horizontal,"(890.0, 762.0)",0.7166666666666667,0.463,1,17255.072,3,0.04,same
0,835,valid,"[(1159, 773)]",[],[1],[0.5166666666666666],horizontal,"(390.0, 262.0)",0.9166666666666666,0.481,1,17260.543,3,0.04,same
0,836,valid,"[(1159, 773)]",[],[1],[0.5666666666666667],horizontal,"(890.0, 262.0)",1.3166666666666667,0.533,1,17266.172,3,0.04,same
0,837,valid,"[(1156, 797)]",[],[1],[0.5],horizontal,"(390.0, 262.0)",0.7666666666666666,0.46,1,17272.655,3,0.04,same
0,838,valid,"[(1115, 761)]",[],[1],[0.55],vertical,"(890.0, 262.0)",0.7333333333333333,0.516,1,17278.639,3,0.04,same
0,839,catch,"[(1155, 771)]",[],[1],[],horizontal,"(390.0, 262.0)",1.7,nan,1,17284.056,3,0.04,same
0,840,valid,"[(1161, 781)]",[],[1],[0.85],vertical,"(390.0, 262.0)",0.4166666666666667,nan,0,17289.999,0,0.04,same
0,841,valid,"[(1130, 778)]",[],[1],[0.4666666666666667],vertical,"(390.0, 262.0)",0.5166666666666666,0.429,1,17294.222,1,0.04,same
0,842,valid,"[(1155, 776)]",[],[1],[0.55],horizontal,"(890.0, 262.0)",1.3833333333333333,0.513,1,17298.355,1,0.04,same
0,843,valid,"[(1160, 783)]",[],[1],[0.5166666666666666],horizontal,"(390.0, 762.0)",1.3833333333333333,0.48,1,17303.521,1,0.02,same
0,844,valid,"[(1156, 813)]",[],[1],[0.5666666666666667],horizontal,"(390.0, 762.0)",0.7166666666666667,0.526,1,17309.134,2,0.02,same
0,845,valid,"[(1158, 778)]",[],[1],[0.55],vertical,"(390.0, 762.0)",1.3333333333333333,0.511,1,17314.94,2,0.02,same
0,846,valid,"[(1156, 786)]",[],[1],[0.6333333333333333],horizontal,"(890.0, 262.0)",1.2166666666666666,0.587,1,17320.943,2,0.02,same
0,847,catch,"[(1158, 782)]",[],[1],[],horizontal,"(390.0, 762.0)",1.7,nan,1,17326.713,3,0.0,same
0,848,catch,"[(1178, 781)]",[],[1],[],horizontal,"(890.0, 262.0)",,"('fix', 0.401),nan",0,17332.856,0,0.02,same
0,849,catch,"[(1132, 806)]",[],[1],[],vertical,"(890.0, 762.0)",1.7,nan,1,17334.804,1,0.02,same
0,850,valid,"[(1132, 788)]",[],[1],[0.6166666666666667],horizontal,"(390.0, 762.0)",1.2666666666666666,0.57,1,17340.278,1,0.02,same
0,851,valid,"[(1131, 790)]",[],[1],[0.5166666666666666],horizontal,"(890.0, 762.0)",1.4333333333333333,0.479,1,17346.272,1,0.02,same
0,852,valid,"[(1157, 792)]",[],[1],[0.5166666666666666],horizontal,"(390.0, 262.0)",0.75,0.474,1,17352.055,2,0.02,same
0,853,catch,"[(1141, 775)]",[],[1],[],horizontal,"(390.0, 262.0)",,"('cti', 1.677),nan",0,17357.13,0,0.04,same
0,854,valid,"[(1154, 782)]",[],[1],[0.55],vertical,"(390.0, 262.0)",0.7666666666666666,0.507,1,17361.966,1,0.04,same
0,855,valid,"[(1158, 794)]",[],[1],[0.5666666666666667],vertical,"(890.0, 762.0)",0.7833333333333333,0.542,1,17366.671,1,0.04,same
0,856,valid,"[(1157, 799)]",[],[1],"[0.85, 0.85]",horizontal,"(890.0, 762.0)",0.7833333333333333,"0.8,nan",0,17371.918,0,0.04,same
0,857,valid,"[(1155, 788)]",[],[1],[0.4666666666666667],vertical,"(390.0, 262.0)",1.15,0.428,1,17376.289,1,0.04,same
0,858,valid,"[(1156, 779)]",[],[1],[0.5],vertical,"(890.0, 262.0)",1.0333333333333332,0.461,1,17381.674,1,0.04,same
0,859,valid,"[(1163, 796)]",[],[1],[0.5666666666666667],horizontal,"(390.0, 262.0)",1.1166666666666667,0.524,1,17386.421,1,0.04,same
0,860,catch,"[(1132, 805)]",[],[1],[],horizontal,"(890.0, 762.0)",1.7,nan,1,17391.854,2,0.04,same
0,861,valid,"[(1165, 795)]",[],[1],[0.48333333333333334],horizontal,"(390.0, 762.0)",1.5333333333333332,0.448,1,17398.123,2,0.04,same
0,862,catch,"[(1164, 782)]",[],[1],[],horizontal,"(390.0, 262.0)",1.7,nan,1,17403.711,2,0.04,same
