block,trial,trial_type,taps_start_loc_during_fix,taps_end_loc_during_fix,taps_on_lever_during_fix,taps_on_lever_s_during_fix,bar_orientation,target_xy,cti,rt,acc,time,pulses,fa_rate_recent100,p_catch
0,1,target,"[(1042, 847)]",[],[1],[0.3833333333333333],vertical,"(390.0, 262.0)",0.7666666666666666,0.353,1,0.09,1,0.0,0.1
0,2,target,"[(1004, 828), (1025, 846)]",[],"[0, 1]",[0.85],vertical,"(890.0, 262.0)",0.6166666666666667,nan,0,5.556,0,0.0,0.1
0,3,catch,"[(1023, 817)]",[],[1],[],horizontal,"(890.0, 762.0)",1.6,nan,1,119.023,1,0.0,0.1
0,4,catch,"[(1016, 830)]",[],[1],[0.03333333333333333],horizontal,"(390.0, 762.0)",1.6,"0.018,nan",0,130.538,0,0.25,0.1
0,5,target,"[(988, 786), (1052, 857)]",[],"[0, 1]",[0.5333333333333333],vertical,"(890.0, 262.0)",0.85,0.505,1,135.191,1,0.2,0.1
0,6,target,"[(1038, 825)]",[],[1],[0.45],vertical,"(890.0, 262.0)",0.75,0.417,1,2049.933,1,0.16666666666666666,0.1
0,7,target,"[(1038, 786)]",[],[1],[0.5833333333333334],horizontal,"(390.0, 762.0)",0.65,0.549,1,2054.831,2,0.14285714285714285,0.1
0,8,target,"[(1052, 796)]",[],[1],[0.23333333333333334],horizontal,"(390.0, 262.0)",1.4166666666666667,0.2,1,2059.932,2,0.125,0.1
0,9,target,"[(1035, 819)]",[],[1],[0.2833333333333333],vertical,"(890.0, 762.0)",1.3166666666666667,0.25,1,2065.117,2,0.1111111111111111,0.1
0,10,target,"[(1046, 812)]",[],[1],[0.6],horizontal,"(890.0, 762.0)",0.6166666666666667,0.569,1,2070.646,2,0.1,0.1
0,11,target,"[(1017, 775)]",[],[1],[0.48333333333333334],horizontal,"(890.0, 262.0)",0.9166666666666666,0.45,1,2075.842,3,0.09090909090909091,0.1
0,12,target,"[(1038, 796)]",[],[1],[0.5333333333333333],horizontal,"(390.0, 262.0)",0.9333333333333333,0.501,1,2080.877,3,0.08333333333333333,0.1
0,13,target,"[(1031, 792)]",[],[1],[0.65],horizontal,"(390.0, 762.0)",0.8666666666666667,0.608,1,2086.15,3,0.07692307692307693,0.1
0,14,target,"[(1045, 825)]",[],[1],[0.55],horizontal,"(890.0, 762.0)",0.95,0.51,1,2093.197,3,0.07142857142857142,0.1
0,15,target,"[(1032, 810)]",[],[1],[0.6333333333333333],vertical,"(390.0, 262.0)",0.65,0.597,1,2098.527,3,0.06666666666666667,0.1
0,16,target,"[(1038, 801)]",[],[1],[0.48333333333333334],vertical,"(890.0, 262.0)",0.8166666666666667,0.448,1,2104.265,3,0.0625,0.1
0,17,target,"[(1045, 780)]",[],[1],[0.26666666666666666],vertical,"(890.0, 262.0)",1.4333333333333333,0.231,1,2109.608,3,0.058823529411764705,0.1
0,18,target,"[(1039, 802)]",[],[1],[0.6333333333333333],vertical,"(890.0, 262.0)",1.05,0.595,1,2115.366,3,0.05555555555555555,0.1
0,19,target,"[(1046, 820)]",[],[1],[0.23333333333333334],horizontal,"(890.0, 762.0)",1.4833333333333334,0.198,0,2120.917,0,0.05263157894736842,0.1
0,20,catch,"[(1037, 800)]",[],[1],[],vertical,"(390.0, 262.0)",,"('cti', 1.559),nan",0,2125.631,0,0.1,0.1
0,21,target,"[(1054, 813)]",[],[1],[0.5166666666666666],vertical,"(890.0, 762.0)",1.1833333333333333,0.477,1,2130.212,1,0.09523809523809523,0.1
0,22,target,"[(1021, 786)]",[],[1],[0.06666666666666667],vertical,"(890.0, 762.0)",1.55,0.035,0,2135.114,0,0.09090909090909091,0.1
0,23,target,"[(1049, 820)]",[],[1],[0.5],horizontal,"(890.0, 762.0)",1.1,0.463,1,2139.981,1,0.08695652173913043,0.1
0,24,target,"[(1045, 787)]",[],[1],[0.4],vertical,"(890.0, 762.0)",1.2833333333333332,0.369,1,2145.026,1,0.08333333333333333,0.1
0,25,target,"[(1029, 807)]",[],[1],[0.5333333333333333],vertical,"(390.0, 262.0)",0.7,0.499,1,2149.716,2,0.08,0.1
0,26,catch,"[(1029, 793)]",[],[1],[],vertical,"(890.0, 762.0)",1.6,nan,1,2154.475,2,0.07692307692307693,0.1
0,27,target,"[(1032, 811)]",[],[1],[0.75],vertical,"(890.0, 262.0)",0.8166666666666667,0.711,1,2159.749,2,0.07407407407407407,0.1
0,28,target,"[(1039, 806)]",[],[1],[0.5833333333333334],vertical,"(390.0, 262.0)",0.85,0.542,1,2165.379,2,0.07142857142857142,0.1
0,29,target,"[(1052, 791)]",[],[1],[0.5],horizontal,"(890.0, 762.0)",1.4,0.461,1,2170.681,3,0.06896551724137931,0.1
0,30,target,"[(1039, 809)]",[],[1],[0.4],vertical,"(390.0, 262.0)",1.35,0.366,1,2176.761,3,0.06666666666666667,0.1
0,31,target,"[(1027, 790)]",[],[1],[0.45],vertical,"(890.0, 762.0)",1.3666666666666667,0.418,1,2182.763,3,0.06451612903225806,0.1
0,32,target,"[(1021, 784)]",[],[1],[0.55],vertical,"(390.0, 262.0)",0.6,0.511,1,2188.778,3,0.0625,0.1
0,33,target,"[(1052, 773)]",[],[1],[0.3333333333333333],horizontal,"(890.0, 262.0)",1.2666666666666666,0.299,1,2193.551,3,0.06060606060606061,0.1
0,34,target,"[(1031, 796)]",[],[1],[0.36666666666666664],horizontal,"(390.0, 262.0)",1.4666666666666666,0.332,1,2199.146,3,0.058823529411764705,0.1
0,35,target,"[(1029, 781)]",[],[1],[0.48333333333333334],vertical,"(890.0, 262.0)",1.25,0.447,1,2204.999,3,0.05714285714285714,0.1
0,36,catch,"[(1055, 790)]",[],[1],[],horizontal,"(390.0, 762.0)",1.6,nan,1,2211.281,3,0.05555555555555555,0.1
0,37,target,"[(1028, 786)]",[],[1],[0.7],vertical,"(390.0, 262.0)",0.5,0.664,1,2217.108,3,0.05405405405405406,0.1
0,38,target,"[(1028, 784)]",[],[1],[0.45],vertical,"(890.0, 762.0)",0.9833333333333333,0.417,1,2222.704,3,0.05263157894736842,0.1
0,39,target,"[(1020, 783)]",[],[1],[0.65],vertical,"(390.0, 762.0)",0.5333333333333333,0.611,1,2228.294,3,0.05128205128205128,0.1
0,40,target,"[(1030, 794)]",[],[1],[0.4166666666666667],vertical,"(390.0, 262.0)",1.2333333333333334,0.38,1,2233.279,3,0.05,0.1
0,41,target,"[(1058, 798)]",[],[1],[0.5],vertical,"(890.0, 262.0)",0.7666666666666666,0.469,1,2238.911,3,0.04878048780487805,0.1
0,42,target,"[(1030, 800)]",[],[1],[0.5666666666666667],horizontal,"(390.0, 762.0)",0.9,0.529,1,2244.292,3,0.047619047619047616,0.1
0,43,target,"[(1033, 793)]",[],[1],[0.6],vertical,"(890.0, 262.0)",0.55,0.567,1,2249.997,3,0.046511627906976744,0.1
0,44,target,"[(1029, 785)]",[],[1],[0.31666666666666665],vertical,"(390.0, 262.0)",1.3166666666666667,0.282,1,2254.975,3,0.045454545454545456,0.1
0,45,target,"[(1029, 779)]",[],[1],[0.1],horizontal,"(890.0, 762.0)",1.4,0.066,0,2260.567,0,0.044444444444444446,0.1
0,46,target,"[(1025, 781)]",[],[1],[0.7166666666666667],horizontal,"(390.0, 262.0)",0.8333333333333334,0.675,1,2265.311,1,0.043478260869565216,0.1
0,47,target,"[(1026, 793)]",[],[1],[0.45],vertical,"(390.0, 262.0)",1.2833333333333332,0.415,1,2269.817,1,0.0425531914893617,0.1
0,48,target,"[(1026, 792)]",[],[1],[0.3833333333333333],vertical,"(390.0, 262.0)",1.3,0.346,1,2274.636,2,0.041666666666666664,0.1
0,49,target,"[(1029, 780)]",[],[1],[0.5333333333333333],vertical,"(890.0, 262.0)",0.5166666666666666,0.5,1,2280.098,2,0.04081632653061224,0.1
0,50,target,"[(1029, 791)]",[],[1],[0.31666666666666665],vertical,"(390.0, 262.0)",1.4,0.284,1,2285.179,2,0.04,0.1
0,51,target,"[(1029, 780)]",[],[1],[0.5166666666666666],vertical,"(890.0, 262.0)",0.5833333333333334,0.482,1,2290.677,2,0.04,0.1
0,52,target,"[(1021, 790)]",[],[1],[0.65],horizontal,"(390.0, 762.0)",1.2166666666666666,0.618,1,2295.595,3,0.04,0.1
0,53,target,"[(1029, 786)]",[],[1],[0.3333333333333333],vertical,"(390.0, 262.0)",1.4166666666666667,0.3,1,2301.317,3,0.04,0.1
0,54,target,"[(1029, 780)]",[],[1],[0.5666666666666667],horizontal,"(890.0, 762.0)",1.0833333333333333,0.523,1,2307.079,3,0.02,0.1
0,55,catch,"[(1047, 797)]",[],[1],[],horizontal,"(390.0, 762.0)",1.6,nan,1,2312.627,3,0.02,0.1
0,56,target,"[(1029, 786)]",[],[1],[],horizontal,"(890.0, 262.0)",,"('cti', 1.145)",0,2318.081,0,0.04,0.1
0,57,target,"[(1026, 798)]",[],[1],[0.55],vertical,"(390.0, 762.0)",0.8333333333333334,0.513,1,2322.601,1,0.04,0.1
0,58,target,"[(1025, 766)]",[],[1],[0.6833333333333333],vertical,"(890.0, 762.0)",1.0333333333333332,0.649,1,2327.111,1,0.04,0.1
0,59,target,"[(1008, 786)]",[],[1],[0.75],horizontal,"(390.0, 762.0)",0.95,0.715,1,2331.773,2,0.04,0.1
0,60,target,"[(1033, 789)]",[],[1],[0.6],vertical,"(390.0, 762.0)",0.5666666666666667,0.564,1,2337.513,2,0.04,0.1
0,61,catch,"[(1023, 807)]",[],[1],[],vertical,"(390.0, 262.0)",1.6,nan,1,2342.749,2,0.04,0.1
0,62,target,"[(1029, 805)]",[],[1],[],horizontal,"(390.0, 262.0)",,"('cti', 1.512)",0,2347.883,0,0.06,0.1
0,63,target,"[(1029, 791)]",[],[1],[0.5],horizontal,"(390.0, 762.0)",1.3166666666666667,0.461,1,2353.243,1,0.06,0.1
0,64,target,"[(1029, 780)]",[],[1],[0.5333333333333333],horizontal,"(890.0, 762.0)",0.8166666666666667,0.503,1,2358.487,1,0.06,0.1
0,65,target,"[(1029, 780)]",[],[1],[0.6],horizontal,"(890.0, 262.0)",1.0666666666666667,0.564,1,2362.903,2,0.06,0.1
0,66,catch,"[(1052, 799)]",[],[1],[],vertical,"(390.0, 262.0)",,"('cti', 1.562),nan",0,2368.222,0,0.08,0.1
0,67,target,"[(1013, 820)]",[],[1],[0.6666666666666666],horizontal,"(890.0, 262.0)",0.65,0.627,1,2372.999,1,0.08,0.1
0,68,target,"[(1021, 797)]",[],[1],[0.11666666666666667],vertical,"(890.0, 762.0)",1.5333333333333332,0.082,0,2397.71,0,0.08,0.1
0,69,target,"[(1021, 800)]",[],[1],[0.5333333333333333],horizontal,"(890.0, 762.0)",1.2333333333333334,0.493,1,2402.582,1,0.08,0.1
0,70,target,"[(1030, 766)]",[],[1],[0.5666666666666667],vertical,"(890.0, 262.0)",1.2333333333333334,0.53,1,2407.586,1,0.06,0.1
0,71,catch,"[(1041, 791)]",[],[1],[],vertical,"(390.0, 762.0)",1.6,nan,1,2412.364,2,0.06,0.1
0,72,target,"[(1030, 796)]",[],[1],[0.4],vertical,"(890.0, 762.0)",1.4,0.361,1,2417.617,2,0.06,0.1
0,73,target,"[(1028, 783)]",[],[1],[0.4666666666666667],horizontal,"(890.0, 762.0)",1.15,0.428,1,2422.843,2,0.06,0.1
0,74,target,"[(1032, 811)]",[],[1],[0.5166666666666666],vertical,"(890.0, 262.0)",1.0833333333333333,0.48,1,2428.529,2,0.06,0.1
0,75,target,"[(1029, 782)]",[],[1],[0.3333333333333333],vertical,"(890.0, 762.0)",1.4,0.298,1,2433.966,3,0.06,0.1
0,76,target,"[(1037, 799)]",[],[1],[0.65],horizontal,"(890.0, 762.0)",1.2833333333333332,0.614,1,2439.531,3,0.06,0.1
0,77,target,"[(1035, 800)]",[],[1],[0.5666666666666667],vertical,"(390.0, 262.0)",0.9333333333333333,0.53,1,2445.61,3,0.06,0.1
0,78,target,"[(1033, 780)]",[],[1],[0.21666666666666667],vertical,"(390.0, 762.0)",1.45,0.183,0,2450.85,0,0.06,0.1
0,79,target,"[(1029, 793)]",[],[1],[0.26666666666666666],horizontal,"(890.0, 762.0)",1.2666666666666666,0.23,1,2455.132,1,0.06,0.1
0,80,target,"[(1035, 777)]",[],[1],[0.5833333333333334],horizontal,"(890.0, 262.0)",0.9666666666666667,0.545,1,2460.085,1,0.06,0.1
0,81,catch,"[(1034, 772)]",[],[1],[],horizontal,"(390.0, 262.0)",1.6,nan,1,2464.987,2,0.06,0.1
0,82,target,"[(1053, 803)]",[],[1],[0.85],horizontal,"(390.0, 262.0)",0.8833333333333333,nan,0,2470.761,0,0.06,0.1
0,83,target,"[(1033, 790)]",[],[1],[0.45],vertical,"(890.0, 762.0)",1.5333333333333332,0.411,1,2475.235,1,0.06,0.1
0,84,target,"[(1014, 786)]",[],[1],[0.4],vertical,"(390.0, 262.0)",1.3666666666666667,0.362,1,2480.299,1,0.06,0.1
0,85,target,"[(1037, 791)]",[],[1],[0.7666666666666666],horizontal,"(890.0, 762.0)",0.7,0.729,1,2485.231,2,0.06,0.1
0,86,target,"[(1033, 787)]",[],[1],[0.5833333333333334],vertical,"(890.0, 762.0)",1.1666666666666667,0.548,1,2490.126,2,0.06,0.1
0,87,target,"[(1034, 798)]",[],[1],[0.5666666666666667],vertical,"(390.0, 762.0)",1.2,0.531,1,2495.673,2,0.06,0.1
0,88,target,"[(1028, 768)]",[],[1],[0.5166666666666666],vertical,"(890.0, 762.0)",0.85,0.474,1,2500.894,2,0.06,0.1
0,89,target,"[(1043, 798)]",[],[1],[],horizontal,"(390.0, 262.0)",,"('cti', 1.332)",0,2506.177,0,0.08,0.1
0,90,target,"[(1043, 795)]",[],[1],[0.31666666666666665],vertical,"(390.0, 762.0)",1.55,0.28,1,2510.927,1,0.08,0.1
0,91,target,"[(1035, 778)]",[],[1],[0.15],horizontal,"(890.0, 262.0)",1.4,0.118,0,2516.03,0,0.08,0.1
0,92,target,"[(1024, 789)]",[],[1],[0.6166666666666667],vertical,"(390.0, 762.0)",0.65,0.576,1,2520.833,1,0.08,0.1
0,93,target,"[(1033, 778)]",[],[1],[0.4166666666666667],horizontal,"(890.0, 262.0)",1.4666666666666666,0.375,1,2526.6,1,0.08,0.1
0,94,target,"[(1033, 781)]",[],[1],[0.55],vertical,"(890.0, 762.0)",0.8666666666666667,0.505,1,2532.016,2,0.08,0.1
0,95,target,"[(986, 797), (1022, 814)]",[],"[0, 1]",[0.7333333333333333],horizontal,"(890.0, 762.0)",0.95,0.696,1,2536.718,2,0.08,0.1
0,96,target,"[(1029, 796)]",[],[1],[0.5],vertical,"(890.0, 762.0)",1.4166666666666667,0.461,1,2544.7,2,0.08,0.1
0,97,target,"[(1018, 782)]",[],[1],[0.4666666666666667],vertical,"(890.0, 762.0)",1.1333333333333333,0.437,1,2550.595,2,0.08,0.1
0,98,target,"[(1017, 785)]",[],[1],[0.13333333333333333],horizontal,"(390.0, 762.0)",1.3666666666666667,0.099,0,2555.827,0,0.08,0.1
0,99,target,"[(1037, 790)]",[],[1],[0.7],vertical,"(390.0, 762.0)",0.8333333333333334,0.654,1,2560.749,1,0.08,0.1
0,100,catch,"[(1044, 786)]",[],[1],[],horizontal,"(890.0, 262.0)",1.6,nan,1,2565.796,1,0.08,0.1
0,101,target,"[(1033, 790)]",[],[1],[0.43333333333333335],vertical,"(890.0, 262.0)",1.1,0.401,1,2570.622,2,0.08,0.1
0,102,target,"[(1057, 795)]",[],[1],[0.5666666666666667],vertical,"(890.0, 262.0)",0.8333333333333334,0.53,1,2576.115,2,0.08,0.1
0,103,target,"[(1033, 777)]",[],[1],[0.43333333333333335],vertical,"(890.0, 762.0)",1.25,0.395,1,2581.217,2,0.08,0.1
0,104,target,"[(1053, 791)]",[],[1],[0.7],horizontal,"(390.0, 762.0)",1.05,0.658,1,2586.416,2,0.08,0.1
0,105,target,"[(1024, 796)]",[],[1],[0.5166666666666666],horizontal,"(390.0, 762.0)",0.5666666666666667,0.474,1,2591.559,3,0.08,0.1
0,106,target,"[(1035, 798)]",[],[1],[0.6333333333333333],horizontal,"(890.0, 262.0)",0.8666666666666667,0.593,1,2597.446,3,0.06,0.1
0,107,target,"[(1038, 789)]",[],[1],[0.2833333333333333],horizontal,"(890.0, 762.0)",1.35,0.247,1,2602.734,3,0.06,0.1
0,108,target,"[(1055, 778)]",[],[1],[0.5666666666666667],horizontal,"(390.0, 762.0)",1.3,0.526,1,2608.316,3,0.06,0.1
0,109,catch,"[(1033, 782)]",[],[1],[],horizontal,"(390.0, 262.0)",,"('cti', 1.572),nan",0,2614.095,0,0.08,0.1
0,110,target,"[(1033, 783)]",[],[1],[0.5],horizontal,"(890.0, 762.0)",1.0166666666666666,0.458,1,2619.368,1,0.08,0.1
0,111,target,"[(1033, 790)]",[],[1],[],horizontal,"(890.0, 262.0)",,"('cti', 1.481)",0,2624.128,0,0.1,0.1
0,112,catch,"[(1038, 781)]",[],[1],[],horizontal,"(890.0, 762.0)",1.6,nan,1,2628.332,1,0.08,0.1
0,113,target,"[(1037, 771)]",[],[1],[0.3333333333333333],horizontal,"(890.0, 262.0)",1.4,0.295,1,2633.284,1,0.08,0.1
0,114,catch,"[(1037, 790)]",[],[1],[],vertical,"(890.0, 762.0)",1.6,"('cti', 1.601),nan",0,2638.002,0,0.1,0.1
0,115,target,"[(1036, 783)]",[],[1],[0.4],horizontal,"(890.0, 262.0)",1.5,0.361,1,2642.619,1,0.1,0.1
0,116,target,"[(1056, 796)]",[],[1],[0.48333333333333334],horizontal,"(890.0, 262.0)",1.0833333333333333,0.442,1,2647.668,1,0.08,0.1
0,117,target,"[(1017, 760)]",[],[1],[0.6166666666666667],vertical,"(390.0, 762.0)",1.1666666666666667,0.577,1,2652.749,2,0.08,0.1
0,118,target,"[(1021, 771)]",[],[1],[0.6166666666666667],vertical,"(390.0, 262.0)",0.65,0.574,1,2657.864,2,0.08,0.1
0,119,catch,"[(1047, 774)]",[],[1],[],horizontal,"(390.0, 262.0)",,"('cti', 1.282),nan",0,2665.962,0,0.1,0.1
0,120,target,"[(1040, 792)]",[],[1],[0.31666666666666665],vertical,"(390.0, 262.0)",1.2166666666666666,0.282,1,2670.999,1,0.1,0.1
0,121,target,"[(1034, 787)]",[],[1],[0.1],horizontal,"(390.0, 262.0)",1.5333333333333332,0.067,0,2676.207,0,0.1,0.1
0,122,target,"[(1037, 785)]",[],[1],[0.5333333333333333],vertical,"(890.0, 762.0)",0.6,0.498,1,2681.049,1,0.1,0.1
0,123,target,"[(1057, 799)]",[],[1],[0.65],horizontal,"(890.0, 262.0)",0.5666666666666667,0.615,1,2685.597,1,0.1,0.1
0,124,target,"[(1041, 791)]",[],[1],[0.5833333333333334],vertical,"(890.0, 762.0)",0.5166666666666666,0.543,1,2689.815,2,0.1,0.1
0,125,catch,"[(1044, 782)]",[],[1],[],horizontal,"(890.0, 762.0)",,"('cti', 1.529),nan",0,2694.447,0,0.12,0.1
0,126,target,"[(1040, 792)]",[],[1],[0.85],horizontal,"(390.0, 262.0)",0.5666666666666667,nan,0,2699.149,0,0.12,0.1
0,127,target,"[(1021, 812)]",[],[1],[0.8166666666666667],vertical,"(890.0, 262.0)",0.7166666666666667,0.779,1,2703.718,1,0.12,0.1
0,128,target,"[(1037, 811)]",[],[1],[0.85],horizontal,"(390.0, 262.0)",0.6,nan,0,2708.891,0,0.12,0.1
0,129,target,"[(1015, 825)]",[],[1],[0.2833333333333333],vertical,"(390.0, 262.0)",1.1,0.248,1,2713.386,1,0.12,0.1
0,130,target,"[(1032, 786)]",[],[1],[],horizontal,"(890.0, 262.0)",,"('cti', 1.144)",0,2723.825,0,0.14,0.1
0,131,target,"[(713, 304), (943, 534), (1034, 845)]",[],"[0, 0, 1]",[0.3333333333333333],vertical,"(890.0, 262.0)",1.4166666666666667,0.299,1,2728.19,1,0.14,0.1
0,132,target,"[(1052, 833)]",[],[1],[0.5666666666666667],horizontal,"(890.0, 762.0)",1.35,0.53,1,4019.745,1,0.14,0.1
0,133,target,"[(1020, 800)]",[],[1],[0.85],horizontal,"(890.0, 762.0)",0.5333333333333333,nan,0,4024.898,0,0.14,0.1
0,134,target,"[(1021, 793)]",[],[1],[0.6333333333333333],vertical,"(890.0, 762.0)",1.2166666666666666,0.597,1,4029.67,1,0.14,0.1
0,135,target,"[(1029, 788)]",[],[1],[0.5833333333333334],horizontal,"(890.0, 762.0)",1.3333333333333333,0.545,1,4035.032,1,0.14,0.1
0,136,target,"[(1029, 806)]",[],[1],[0.16666666666666666],vertical,"(890.0, 262.0)",1.4166666666666667,0.135,0,4040.165,0,0.14,0.1
0,137,target,"[(1022, 808)]",[],[1],[0.6166666666666667],horizontal,"(890.0, 262.0)",0.5833333333333334,0.575,1,4045.294,1,0.14,0.1
0,138,target,"[(1050, 806)]",[],[1],[0.5833333333333334],horizontal,"(390.0, 262.0)",1.0833333333333333,0.555,1,4049.97,1,0.14,0.1
0,139,target,"[(1033, 783)]",[],[1],[0.6666666666666666],horizontal,"(890.0, 262.0)",1.0833333333333333,0.631,1,4055.226,2,0.12,0.1
0,140,target,"[(1041, 791)]",[],[1],[0.5833333333333334],vertical,"(390.0, 762.0)",0.9666666666666667,0.548,1,4060.867,2,0.12,0.1
0,141,target,"[(1029, 800)]",[],[1],[0.15],horizontal,"(390.0, 762.0)",1.5666666666666667,0.118,0,4066.451,0,0.12,0.1
0,142,target,"[(1005, 786)]",[],[1],[0.6333333333333333],horizontal,"(890.0, 262.0)",1.0166666666666666,0.594,1,4071.533,1,0.12,0.1
0,143,target,"[(1042, 788)]",[],[1],[0.45],horizontal,"(390.0, 262.0)",1.1666666666666667,0.413,1,4076.248,1,0.12,0.1
0,144,target,"[(1033, 778)]",[],[1],[0.85],vertical,"(890.0, 762.0)",0.8666666666666667,nan,0,4081.368,0,0.12,0.1
0,145,target,"[(1018, 783)]",[],[1],[0.85],vertical,"(390.0, 762.0)",0.7166666666666667,nan,0,4086.402,0,0.12,0.1
0,146,target,"[(1018, 829)]",[],[1],[0.6166666666666667],horizontal,"(890.0, 762.0)",1.2,0.582,1,4090.599,1,0.12,0.1
0,147,target,"[(1050, 790)]",[],[1],[0.85],horizontal,"(390.0, 262.0)",0.5666666666666667,nan,0,4095.754,0,0.12,0.1
0,148,target,"[(1037, 806)]",[],[1],[0.5166666666666666],horizontal,"(390.0, 762.0)",1.45,0.479,1,4100.155,1,0.12,0.1
0,149,target,"[(1029, 804)]",[],[1],[0.6],horizontal,"(890.0, 262.0)",0.5166666666666666,0.558,1,4106.888,1,0.12,0.1
0,150,catch,"[(1045, 795)]",[],[1],[],horizontal,"(890.0, 262.0)",,"('cti', 1.295),nan",0,4110.993,0,0.14,0.1
0,151,target,"[(1022, 808)]",[],[1],[0.7666666666666666],horizontal,"(390.0, 762.0)",1.0833333333333333,0.725,1,4115.587,1,0.14,0.1
0,152,target,"[(1000, 796), (1037, 812)]",[],"[0, 1]",[0.8166666666666667],vertical,"(890.0, 262.0)",0.9666666666666667,0.772,1,4123.154,1,0.14,0.1
0,153,target,"[(1043, 796)]",[],[1],[0.48333333333333334],horizontal,"(890.0, 262.0)",1.3666666666666667,0.447,1,4133.227,2,0.14,0.1
0,154,target,"[(1009, 796)]",[],[1],[0.55],vertical,"(890.0, 762.0)",1.4666666666666666,0.516,1,4139.23,2,0.14,0.1
0,155,target,"[(1093, 880)]",[],[1],[],horizontal,"(890.0, 762.0)",,"('fix', 0.432)",0,4148.879,0,0.14,0.1
0,156,target,"[(1095, 829)]",[],[1],[0.08333333333333333],horizontal,"(390.0, 262.0)",1.35,0.052,0,4151.259,0,0.14,0.1
0,157,target,"[(1041, 804)]",[],[1],[0.55],vertical,"(390.0, 262.0)",0.8833333333333333,0.51,1,4155.203,1,0.14,0.1
0,158,target,"[(1037, 787)]",[],[1],[0.35],horizontal,"(890.0, 762.0)",1.3,0.315,1,4160.208,1,0.14,0.1
0,159,target,"[(1029, 793)]",[],[1],[0.6666666666666666],vertical,"(390.0, 762.0)",0.75,0.625,1,4165.235,2,0.12,0.1
0,160,target,"[(1017, 781)]",[],[1],[0.06666666666666667],horizontal,"(390.0, 762.0)",1.1,0.036,0,4170.556,0,0.12,0.1
0,161,catch,"[(997, 829), (1037, 807)]",[],"[0, 1]",[],vertical,"(890.0, 262.0)",1.6,nan,1,4174.866,1,0.1,0.1
0,162,target,"[(1024, 795)]",[],[1],[0.5833333333333334],horizontal,"(890.0, 762.0)",0.8833333333333333,0.544,1,4181.58,1,0.1,0.1
0,163,target,"[(1021, 790)]",[],[1],[0.13333333333333333],horizontal,"(390.0, 262.0)",1.4166666666666667,0.099,0,4186.885,0,0.1,0.1
0,164,target,"[(1028, 802)]",[],[1],[0.85],vertical,"(390.0, 762.0)",0.55,nan,0,4191.849,0,0.08,0.1
0,165,target,"[(1014, 820)]",[],[1],[0.5166666666666666],vertical,"(390.0, 762.0)",1.2166666666666666,0.488,1,4196.123,1,0.08,0.1
0,166,target,"[(1017, 804)]",[],[1],[0.85],vertical,"(390.0, 762.0)",0.5166666666666666,nan,0,4210.454,0,0.08,0.1
0,167,target,"[(1033, 800)]",[],[1],[0.85],horizontal,"(390.0, 762.0)",0.65,nan,0,4214.757,0,0.08,0.1
0,168,target,"[(1033, 820)]",[],[1],[0.85],vertical,"(890.0, 762.0)",0.5,nan,0,4219.648,0,0.08,0.1
0,169,target,"[(1033, 812)]",[],[1],[0.6166666666666667],vertical,"(890.0, 262.0)",1.0,0.574,1,4224.338,1,0.06,0.1
0,170,target,"[(1021, 781)]",[],[1],[0.6833333333333333],horizontal,"(390.0, 262.0)",0.6666666666666666,0.649,1,4229.137,1,0.06,0.1
0,171,target,"[(1025, 789)]",[],[1],[0.5666666666666667],horizontal,"(890.0, 262.0)",1.05,0.521,1,4233.649,2,0.06,0.1
0,172,target,"[(1025, 788)]",[],[1],[0.85],vertical,"(390.0, 762.0)",0.6333333333333333,nan,0,4239.079,0,0.06,0.1
0,173,target,"[(1009, 792)]",[],[1],[0.6166666666666667],vertical,"(890.0, 262.0)",0.6666666666666666,0.574,1,4243.206,1,0.06,0.1
0,174,target,"[(1037, 786)]",[],[1],[0.3],horizontal,"(890.0, 762.0)",1.55,0.265,1,4247.853,1,0.06,0.1
0,175,target,"[(1017, 792)]",[],[1],[0.5666666666666667],horizontal,"(890.0, 262.0)",0.6333333333333333,0.529,1,4253.18,2,0.04,0.1
0,176,target,"[(1041, 794)]",[],[1],[0.3833333333333333],vertical,"(390.0, 762.0)",1.4666666666666666,0.352,1,4258.08,2,0.04,0.1
0,177,target,"[(1023, 786)]",[],[1],[0.8],vertical,"(890.0, 762.0)",0.9666666666666667,0.762,1,4263.616,2,0.04,0.1
0,178,target,"[(1042, 802)]",[],[1],[0.65],vertical,"(390.0, 262.0)",0.7,0.609,1,4269.092,2,0.04,0.1
0,179,target,"[(1039, 809)]",[],[1],[0.65],horizontal,"(390.0, 762.0)",1.0,0.603,1,4274.477,3,0.04,0.1
0,180,target,"[(1023, 782)]",[],[1],[0.5833333333333334],vertical,"(890.0, 262.0)",1.15,0.541,1,4280.154,3,0.02,0.1
0,181,target,"[(1040, 790)]",[],[1],[0.5666666666666667],vertical,"(890.0, 762.0)",1.3833333333333333,0.531,1,4286.219,3,0.02,0.1
0,182,target,"[(1041, 802)]",[],[1],[0.65],horizontal,"(390.0, 762.0)",0.5833333333333334,0.614,1,4292.404,3,0.02,0.1
0,183,target,"[(1041, 803)]",[],[1],[0.85],horizontal,"(890.0, 762.0)",1.0666666666666667,nan,0,4297.632,0,0.02,0.1
0,184,target,"[(1017, 806)]",[],[1],[0.5833333333333334],vertical,"(890.0, 262.0)",0.55,0.547,1,4302.253,1,0.02,0.1
0,185,target,"[(1002, 787), (1039, 813)]",[],"[0, 1]",[],vertical,"(390.0, 762.0)",,"('cti', 1.05)",0,4306.632,0,0.04,0.1
0,186,target,"[(1016, 820)]",[],[1],[],vertical,"(390.0, 262.0)",,"('cti', 1.393)",0,4312.511,0,0.06,0.1
0,187,target,"[(985, 811), (1037, 806)]",[],"[0, 1]",[0.11666666666666667],vertical,"(890.0, 262.0)",1.5,0.085,0,4320.026,0,0.06,0.1
0,188,target,"[(1038, 792)]",[],[1],[0.2],vertical,"(390.0, 762.0)",1.5333333333333332,0.169,0,4337.704,0,0.06,0.1
0,189,target,"[(1019, 796)]",[],[1],[0.7166666666666667],horizontal,"(390.0, 262.0)",1.2333333333333334,0.677,1,4342.687,1,0.06,0.1
0,190,target,"[(1033, 798)]",[],[1],[0.3333333333333333],horizontal,"(390.0, 262.0)",1.4833333333333334,0.297,1,4347.858,1,0.06,0.1
0,191,target,"[(1038, 788)]",[],[1],[0.48333333333333334],horizontal,"(890.0, 262.0)",1.3833333333333333,0.448,1,4353.202,2,0.06,0.1
0,192,target,"[(1041, 806)]",[],[1],[0.55],horizontal,"(390.0, 262.0)",1.0,0.516,1,4358.734,2,0.06,0.1
0,193,target,"[(1042, 789)]",[],[1],[0.7333333333333333],vertical,"(390.0, 262.0)",0.65,0.686,1,4363.653,2,0.06,0.1
0,194,target,"[(1038, 789)]",[],[1],"[0.85, 0.85]",horizontal,"(890.0, 262.0)",0.9,"0.804,nan",0,4368.591,0,0.06,0.1
0,195,target,"[(1037, 803)]",[],[1],[0.6166666666666667],vertical,"(890.0, 762.0)",1.0166666666666666,0.579,1,4373.521,1,0.06,0.1
0,196,target,"[(997, 831), (1036, 812)]",[],"[0, 1]",[0.21666666666666667],vertical,"(390.0, 262.0)",1.15,0.183,0,4378.069,0,0.06,0.1
0,197,catch,"[(1037, 798)]",[],[1],[],horizontal,"(890.0, 762.0)",1.6,nan,1,4383.829,1,0.06,0.1
0,198,catch,"[(1037, 813)]",[],[1],[],vertical,"(390.0, 262.0)",1.6,nan,1,4388.938,1,0.06,0.1
0,199,target,"[(1037, 788)]",[],[1],[0.36666666666666664],horizontal,"(390.0, 762.0)",1.2166666666666666,0.328,1,4394.036,2,0.06,0.1
0,200,target,"[(1040, 786)]",[],[1],[0.85],horizontal,"(890.0, 762.0)",0.55,nan,0,4399.672,0,0.04,0.1
0,201,target,"[(1017, 803)]",[],[1],[0.5833333333333334],vertical,"(890.0, 762.0)",1.1166666666666667,0.54,1,4404.304,1,0.04,0.1
0,202,target,"[(1041, 774)]",[],[1],[0.5666666666666667],vertical,"(890.0, 762.0)",1.4166666666666667,0.524,1,4409.072,1,0.04,0.1
0,203,target,"[(1042, 787)]",[],[1],[0.65],horizontal,"(890.0, 262.0)",1.3,0.607,1,4414.104,2,0.04,0.1
0,204,target,"[(1046, 781)]",[],[1],[0.55],vertical,"(890.0, 262.0)",0.85,0.512,1,4419.406,2,0.04,0.1
0,205,target,"[(1037, 789)]",[],[1],[0.6666666666666666],horizontal,"(890.0, 262.0)",0.8166666666666667,0.631,1,4424.369,2,0.04,0.1
0,206,target,"[(1037, 796)]",[],[1],[0.6333333333333333],vertical,"(390.0, 262.0)",1.2166666666666666,0.592,1,4429.688,2,0.04,0.1
0,207,target,"[(1017, 791)]",[],[1],[0.6166666666666667],vertical,"(390.0, 762.0)",1.05,0.581,1,4435.561,3,0.04,0.1
0,208,target,"[(1037, 798)]",[],[1],[0.55],vertical,"(390.0, 262.0)",0.8,0.514,1,4441.087,3,0.04,0.1
0,209,target,"[(1056, 797)]",[],[1],[0.35],vertical,"(390.0, 762.0)",1.4833333333333334,0.311,1,4446.454,3,0.04,0.1
0,210,target,"[(1037, 786)]",[],[1],[0.85],horizontal,"(390.0, 762.0)",1.0333333333333332,nan,0,4452.37,0,0.04,0.1
0,211,target,"[(1037, 790)]",[],[1],[0.7333333333333333],horizontal,"(890.0, 262.0)",0.95,0.689,1,4457.136,1,0.04,0.1
0,212,target,"[(1036, 782)]",[],[1],[0.2],horizontal,"(890.0, 262.0)",1.25,0.166,0,4462.899,0,0.04,0.1
0,213,target,"[(1017, 798)]",[],[1],[0.6],horizontal,"(390.0, 762.0)",0.5833333333333334,0.56,1,4467.815,1,0.04,0.1
0,214,target,"[(1037, 781)]",[],[1],[0.4166666666666667],horizontal,"(890.0, 262.0)",1.25,0.379,1,4472.27,1,0.04,0.1
0,215,target,"[(1041, 795)]",[],[1],[0.65],horizontal,"(390.0, 262.0)",0.9166666666666666,0.612,1,4477.655,2,0.04,0.1
0,216,target,"[(1033, 783)]",[],[1],[0.5333333333333333],vertical,"(390.0, 762.0)",1.0666666666666667,0.495,1,4482.699,2,0.04,0.1
0,217,target,"[(1021, 783)]",[],[1],[0.5333333333333333],horizontal,"(890.0, 262.0)",0.7333333333333333,0.498,1,4489.056,2,0.04,0.1
0,218,target,"[(1035, 773)]",[],[1],[0.4],horizontal,"(890.0, 762.0)",1.4166666666666667,0.361,1,4494.201,2,0.04,0.1
0,219,target,"[(1028, 778)]",[],[1],[0.65],vertical,"(890.0, 262.0)",0.7166666666666667,0.607,1,4499.802,3,0.04,0.1
0,220,target,"[(998, 786), (1033, 822)]",[],"[0, 1]",[0.5833333333333334],horizontal,"(390.0, 262.0)",1.0166666666666666,0.541,1,4505.655,3,0.04,0.1
0,221,target,"[(1017, 780)]",[],[1],[0.5666666666666667],vertical,"(390.0, 262.0)",0.55,0.529,1,4512.304,3,0.04,0.1
0,222,target,"[(1025, 796)]",[],[1],[0.85],vertical,"(390.0, 762.0)",0.6333333333333333,nan,0,4517.439,0,0.04,0.1
0,223,target,"[(1005, 783)]",[],[1],[0.5666666666666667],horizontal,"(890.0, 262.0)",1.5333333333333332,0.527,1,4522.155,1,0.04,0.1
0,224,target,"[(1033, 797)]",[],[1],[0.6333333333333333],vertical,"(390.0, 262.0)",0.5166666666666666,0.595,1,4528.052,1,0.04,0.1
0,225,target,"[(1034, 787)]",[],[1],[0.85],horizontal,"(390.0, 262.0)",0.7166666666666667,nan,0,4532.756,0,0.04,0.1
0,226,target,"[(1029, 801)]",[],[1],[0.36666666666666664],vertical,"(390.0, 762.0)",1.55,0.329,1,4537.253,1,0.04,0.1
0,227,target,"[(1033, 786)]",[],[1],[0.08333333333333333],horizontal,"(390.0, 762.0)",1.1666666666666667,0.053,0,4542.504,0,0.04,0.1
0,228,target,"[(1009, 815)]",[],[1],[0.05],horizontal,"(890.0, 262.0)",1.5333333333333332,0.019,0,4546.635,0,0.04,0.1
0,229,target,"[(1017, 778)]",[],[1],[0.5],vertical,"(390.0, 262.0)",1.55,0.462,1,4555.103,1,0.04,0.1
0,230,target,"[(1033, 799)]",[],[1],[0.85],vertical,"(890.0, 262.0)",0.65,nan,0,4560.254,0,0.04,0.1
0,231,target,"[(1017, 779)]",[],[1],[0.7],vertical,"(390.0, 762.0)",0.7666666666666666,0.662,1,4564.821,1,0.04,0.1
0,232,catch,"[(1020, 765)]",[],[1],[],horizontal,"(390.0, 262.0)",1.6,nan,1,4569.44,1,0.04,0.1
0,233,target,"[(1037, 801)]",[],[1],[0.6166666666666667],horizontal,"(890.0, 262.0)",0.6333333333333333,0.575,1,4574.166,2,0.04,0.1
0,234,target,"[(1022, 804)]",[],[1],[0.48333333333333334],horizontal,"(890.0, 762.0)",0.9166666666666666,0.448,1,4579.157,2,0.04,0.1
0,235,target,"[(1025, 779)]",[],[1],[0.85],horizontal,"(890.0, 762.0)",0.9,nan,0,4584.632,0,0.02,0.1
0,236,target,"[(998, 800), (1021, 808)]",[],"[0, 1]",[0.75],vertical,"(390.0, 762.0)",0.8833333333333333,0.715,1,4589.376,1,0.0,0.1
0,237,target,"[(1033, 786)]",[],[1],[0.26666666666666666],horizontal,"(390.0, 762.0)",1.5166666666666666,0.232,1,4596.175,1,0.0,0.1
0,238,target,"[(1038, 785)]",[],[1],[0.85],vertical,"(890.0, 762.0)",0.6,nan,0,4601.506,0,0.0,0.1
0,239,target,"[(1020, 803)]",[],[1],[0.7],horizontal,"(890.0, 262.0)",0.9166666666666666,0.661,1,4605.921,1,0.0,0.1
0,240,catch,"[(1055, 795)]",[],[1],[],horizontal,"(890.0, 762.0)",1.6,nan,1,4610.787,1,0.0,0.1
0,241,target,"[(1041, 793)]",[],[1],[0.43333333333333335],vertical,"(390.0, 262.0)",1.45,0.401,1,4615.538,2,0.0,0.1
0,242,target,"[(1039, 777)]",[],[1],[0.85],horizontal,"(390.0, 762.0)",0.8166666666666667,nan,0,4621.163,0,0.0,0.1
0,243,target,"[(1016, 790)]",[],[1],[0.6833333333333333],vertical,"(890.0, 762.0)",1.4333333333333333,0.645,1,4625.634,1,0.0,0.1
0,244,target,"[(1033, 779)]",[],[1],[0.7166666666666667],horizontal,"(890.0, 762.0)",0.9833333333333333,0.675,1,4631.314,1,0.0,0.1
0,245,target,"[(1036, 778)]",[],[1],[0.75],vertical,"(390.0, 262.0)",0.6,0.715,1,4636.704,2,0.0,0.1
0,246,target,"[(1050, 797)]",[],[1],[0.6333333333333333],horizontal,"(390.0, 762.0)",1.45,0.594,1,4641.682,2,0.0,0.1
0,247,catch,"[(1036, 786)]",[],[1],[],vertical,"(890.0, 262.0)",1.6,nan,1,4647.505,2,0.0,0.1
0,248,target,"[(1032, 792)]",[],[1],[0.5666666666666667],vertical,"(890.0, 262.0)",1.35,0.527,1,4652.87,2,0.0,0.1
0,249,target,"[(1034, 776)]",[],[1],[0.6],vertical,"(890.0, 262.0)",0.7833333333333333,0.563,1,4658.72,3,0.0,0.1
0,250,target,"[(1021, 764)]",[],[1],[0.5166666666666666],horizontal,"(890.0, 762.0)",1.2833333333333332,0.487,1,4664.621,3,0.0,0.1
0,251,target,"[(1045, 790)]",[],[1],[0.75],horizontal,"(390.0, 262.0)",1.05,0.717,1,4670.803,3,0.0,0.1
0,252,target,"[(1021, 814)]",[],[1],[0.85],vertical,"(390.0, 262.0)",0.5833333333333334,nan,0,4676.881,0,0.0,0.1
0,253,target,"[(994, 780), (1035, 806)]",[],"[0, 1]",[0.5],horizontal,"(390.0, 262.0)",1.1166666666666667,0.461,1,4681.392,1,0.0,0.1
0,254,target,"[(1018, 802)]",[],[1],[0.5333333333333333],vertical,"(890.0, 262.0)",1.1,0.5,1,4688.278,1,0.0,0.1
0,255,target,"[(1037, 786)]",[],[1],[0.85],horizontal,"(890.0, 262.0)",1.0,nan,0,4693.35,0,0.0,0.1
0,256,target,"[(1021, 787)]",[],[1],[0.7333333333333333],horizontal,"(890.0, 762.0)",0.8166666666666667,0.7,1,4697.9,1,0.0,0.1
0,257,target,"[(1034, 787)]",[],[1],[0.5333333333333333],vertical,"(890.0, 262.0)",1.4666666666666666,0.497,1,4702.669,1,0.0,0.1
0,258,target,"[(1008, 826)]","[(1021, 868)]",[1],[0.3333333333333333],horizontal,"(890.0, 762.0)",,"('bar', 0.349)",0,4707.873,0,0.0,0.1
0,259,target,"[(1029, 824)]",[],[1],[0.6833333333333333],vertical,"(390.0, 262.0)",0.6833333333333333,0.651,1,4710.568,1,0.0,0.1
0,260,target,"[(1027, 794)]",[],[1],[0.16666666666666666],vertical,"(390.0, 262.0)",1.5833333333333333,0.133,0,4715.281,0,0.0,0.1
0,261,target,"[(1034, 796)]",[],[1],[0.55],vertical,"(390.0, 262.0)",0.6666666666666666,0.507,1,4720.354,1,0.0,0.1
0,262,catch,"[(1025, 790)]",[],[1],[],vertical,"(890.0, 262.0)",1.6,nan,1,4725.287,1,0.0,0.1
0,263,target,"[(1037, 791)]",[],[1],[0.5666666666666667],horizontal,"(390.0, 762.0)",1.1833333333333333,0.53,1,4730.354,2,0.0,0.1
0,264,catch,"[(1037, 796)]",[],[1],[],horizontal,"(890.0, 262.0)",1.6,nan,1,4736.056,2,0.0,0.1
0,265,target,"[(1045, 827)]",[],[1],[0.7166666666666667],horizontal,"(890.0, 762.0)",1.2,0.681,1,4741.468,2,0.0,0.1
0,266,target,"[(1035, 792)]",[],[1],[0.55],horizontal,"(890.0, 262.0)",1.0166666666666666,0.517,1,4747.035,2,0.0,0.1
0,267,target,"[(1038, 789)]",[],[1],[0.5],vertical,"(890.0, 262.0)",1.2666666666666666,0.465,1,4752.434,3,0.0,0.1
0,268,target,"[(1033, 784)]",[],[1],[0.85],horizontal,"(390.0, 262.0)",0.9,nan,0,4758.48,0,0.0,0.1
0,269,target,"[(1004, 786), (1027, 798)]",[],"[0, 1]",[0.75],vertical,"(890.0, 762.0)",1.2166666666666666,0.712,1,4763.272,1,0.0,0.1
0,270,target,"[(1017, 789)]",[],[1],[0.6333333333333333],horizontal,"(390.0, 262.0)",0.9166666666666666,0.593,1,4769.4,1,0.0,0.1
0,271,catch,"[(1021, 817)]",[],[1],[],vertical,"(890.0, 762.0)",1.6,nan,1,4774.56,2,0.0,0.1
0,272,target,"[(1032, 786)]",[],[1],[0.4666666666666667],horizontal,"(890.0, 262.0)",1.4666666666666666,0.434,1,4780.557,2,0.0,0.1
0,273,target,"[(1041, 768)]",[],[1],[0.85],vertical,"(890.0, 762.0)",0.6666666666666666,nan,0,4786.069,0,0.0,0.1
0,274,target,"[(994, 806), (1033, 812)]",[],"[0, 1]",[0.5],horizontal,"(390.0, 762.0)",1.15,0.464,1,4790.834,1,0.0,0.1
0,275,target,"[(1052, 786)]",[],[1],[0.55],vertical,"(890.0, 262.0)",1.35,0.514,1,4798.304,1,0.0,0.1
0,276,catch,"[(1036, 798)]",[],[1],[],vertical,"(390.0, 762.0)",1.6,nan,1,4803.437,2,0.0,0.1
0,277,target,"[(1037, 793)]",[],[1],[0.31666666666666665],horizontal,"(390.0, 762.0)",0.9,0.283,1,4808.989,2,0.0,0.1
0,278,target,"[(1006, 787)]",[],[1],[0.85],vertical,"(390.0, 762.0)",1.1166666666666667,nan,0,4814.212,0,0.0,0.1
0,279,target,"[(1025, 805)]",[],[1],[0.6],vertical,"(890.0, 262.0)",0.55,0.562,1,4819.139,1,0.0,0.1
0,280,target,"[(1036, 780)]",[],[1],[0.6666666666666666],vertical,"(890.0, 762.0)",0.55,0.628,1,4823.604,1,0.0,0.1
0,281,target,"[(1021, 786)]",[],[1],[0.65],horizontal,"(390.0, 762.0)",1.15,0.611,1,4828.521,2,0.0,0.1
0,282,target,"[(1025, 800)]",[],[1],[0.65],vertical,"(390.0, 262.0)",0.6,0.614,1,4834.217,2,0.0,0.1
0,283,target,"[(1041, 782)]",[],[1],[0.6333333333333333],vertical,"(390.0, 262.0)",0.85,0.594,1,4839.122,2,0.0,0.1
0,284,target,"[(1028, 799)]",[],[1],[0.6666666666666666],vertical,"(890.0, 262.0)",0.95,0.628,1,4844.173,2,0.0,0.1
0,285,target,"[(1021, 791)]",[],[1],[0.6833333333333333],vertical,"(390.0, 762.0)",0.8833333333333333,0.651,1,4849.254,3,0.0,0.1
0,286,target,"[(1037, 789)]",[],[1],[0.3],vertical,"(390.0, 762.0)",1.4666666666666666,0.268,1,4855.085,3,0.0,0.1
0,287,target,"[(993, 827), (1023, 803)]",[],"[0, 1]",[0.6],horizontal,"(390.0, 262.0)",0.5333333333333333,0.56,1,4860.941,3,0.0,0.1
0,288,target,"[(1026, 811)]",[],[1],[0.7666666666666666],horizontal,"(390.0, 762.0)",0.7666666666666666,0.725,1,4875.305,3,0.0,0.1
0,289,target,"[(1024, 786)]",[],[1],[0.55],horizontal,"(390.0, 762.0)",1.0333333333333332,0.514,1,4881.377,3,0.0,0.1
0,290,target,"[(1041, 806)]",[],[1],[0.85],vertical,"(890.0, 262.0)",0.7833333333333333,nan,0,4887.459,0,0.0,0.1
0,291,target,"[(979, 87), (924, 717), (611, 188), (552, 198), (951, 108), (613, 120), (547, 88), (974, 227), (552, 93), (1022, 331), (536, 103), (1029, 100), (517, 157), (1041, 598), (440, 123), (608, 176), (440, 289), (1037, 374), (312, 583), (651, 301), (438, 613), (652, 123), (646, 316), (564, 123), (1037, 341), (1037, 364), (571, 346), (663, 455), (668, 354), (659, 875), (1009, 837)]",[],"[0, 0, 0, 0, 0, 0, 0, 0, 0, 0, 0, 0, 0, 0, 0, 0, 0, 0, 0, 0, 0, 0, 0, 0, 0, 0, 0, 0, 0, 0, 1]",[0.85],vertical,"(390.0, 762.0)",0.75,nan,0,4892.553,0,0.0,0.1
0,292,target,"[(1011, 831)]",[],[1],[0.6666666666666666],vertical,"(890.0, 762.0)",1.0833333333333333,0.633,1,5739.07,1,0.0,0.1
0,293,target,"[(1027, 806)]",[],[1],[0.5833333333333334],horizontal,"(890.0, 762.0)",0.8333333333333334,0.542,1,5748.336,1,0.0,0.1
0,294,target,"[(1030, 817)]",[],[1],[0.4666666666666667],vertical,"(390.0, 762.0)",1.2,0.43,1,5753.554,2,0.0,0.1
0,295,catch,"[(1042, 799)]",[],[1],[],horizontal,"(390.0, 762.0)",1.6,nan,1,5759.197,2,0.0,0.1
0,296,target,"[(1035, 801)]",[],[1],[0.5],horizontal,"(390.0, 262.0)",1.1833333333333333,0.459,1,5764.837,2,0.0,0.1
0,297,target,"[(1030, 806)]",[],[1],[0.65],horizontal,"(390.0, 762.0)",0.7833333333333333,0.615,1,5770.347,2,0.0,0.1
0,298,target,"[(1033, 790)]",[],[1],[0.6],horizontal,"(890.0, 262.0)",1.1166666666666667,0.558,1,5775.461,3,0.0,0.1
0,299,target,"[(1028, 810)]",[],[1],[0.2833333333333333],vertical,"(390.0, 262.0)",1.0666666666666667,0.246,1,5781.54,3,0.0,0.1
0,300,target,"[(1033, 795)]",[],[1],[0.85],vertical,"(890.0, 262.0)",0.65,nan,0,5787.519,0,0.0,0.1
0,301,target,"[(990, 815), (1038, 807)]",[],"[0, 1]",[0.6166666666666667],vertical,"(390.0, 262.0)",1.0666666666666667,0.578,1,5792.309,1,0.0,0.1
0,302,target,"[(1032, 799)]",[],[1],[0.6333333333333333],horizontal,"(390.0, 262.0)",0.65,0.588,1,5804.508,1,0.0,0.1
0,303,target,"[(1030, 768)]",[],[1],[0.43333333333333335],horizontal,"(390.0, 762.0)",1.3333333333333333,0.4,1,5808.921,2,0.0,0.1
0,304,target,"[(1029, 801)]",[],[1],[0.5666666666666667],horizontal,"(390.0, 762.0)",0.8166666666666667,0.533,1,5814.291,2,0.0,0.1
0,305,target,"[(1051, 798)]",[],[1],[0.5333333333333333],vertical,"(390.0, 262.0)",0.8333333333333334,0.498,1,5819.342,2,0.0,0.1
0,306,target,"[(1052, 786)]",[],[1],[0.5666666666666667],vertical,"(890.0, 262.0)",0.7833333333333333,0.529,1,5824.309,2,0.0,0.1
0,307,target,"[(1031, 789)]",[],[1],[0.6833333333333333],horizontal,"(890.0, 762.0)",0.8,0.644,1,5829.948,3,0.0,0.1
0,308,target,"[(1029, 787)]",[],[1],[0.85],horizontal,"(890.0, 762.0)",0.7333333333333333,nan,0,5835.542,0,0.0,0.1
0,309,target,"[(1026, 796)]",[],[1],[0.6166666666666667],vertical,"(890.0, 762.0)",0.9833333333333333,0.576,1,5839.948,1,0.0,0.1
0,310,target,"[(1038, 773)]",[],[1],[0.43333333333333335],vertical,"(890.0, 262.0)",1.4,0.396,1,5845.252,1,0.0,0.1
0,311,target,"[(1035, 786)]",[],[1],[0.5833333333333334],vertical,"(390.0, 262.0)",0.75,0.544,1,5850.414,2,0.0,0.1
0,312,target,"[(1028, 809)]",[],[1],[0.55],vertical,"(890.0, 762.0)",0.8833333333333333,0.518,1,5855.291,2,0.0,0.1
0,313,target,"[(1033, 800)]",[],[1],[0.4],horizontal,"(890.0, 762.0)",1.3833333333333333,0.364,1,5860.311,2,0.0,0.1
0,314,target,"[(1013, 796)]",[],[1],[0.6166666666666667],horizontal,"(390.0, 262.0)",0.6666666666666666,0.577,1,5865.909,2,0.0,0.1
0,315,target,"[(1041, 792)]",[],[1],[0.5333333333333333],vertical,"(890.0, 262.0)",1.05,0.498,1,5871.386,3,0.0,0.1
0,316,target,"[(1052, 787)]",[],[1],[0.6833333333333333],horizontal,"(890.0, 262.0)",0.9,0.646,1,5876.997,3,0.0,0.1
0,317,target,"[(1055, 794)]",[],[1],[0.4666666666666667],horizontal,"(890.0, 262.0)",1.5833333333333333,0.43,1,5882.846,3,0.0,0.1
0,318,target,"[(1041, 777)]",[],[1],[0.5166666666666666],vertical,"(890.0, 262.0)",1.2833333333333332,0.48,1,5888.902,3,0.0,0.1
0,319,target,"[(1051, 770)]",[],[1],[0.5666666666666667],vertical,"(890.0, 762.0)",0.9333333333333333,0.526,1,5895.137,3,0.0,0.1
0,320,target,"[(1055, 787)]",[],[1],[0.4666666666666667],vertical,"(390.0, 262.0)",1.4,0.428,1,5900.72,3,0.0,0.1
0,321,target,"[(1045, 778)]",[],[1],[0.5666666666666667],vertical,"(390.0, 762.0)",1.1333333333333333,0.529,1,5906.89,3,0.0,0.1
0,322,target,"[(1031, 795)]",[],[1],[0.85],horizontal,"(390.0, 262.0)",0.8666666666666667,nan,0,5912.759,0,0.0,0.1
0,323,target,"[(1036, 803)]",[],[1],[0.6833333333333333],horizontal,"(890.0, 262.0)",0.6,0.648,1,5917.192,1,0.0,0.1
0,324,target,"[(1045, 799)]",[],[1],[0.5666666666666667],vertical,"(390.0, 262.0)",0.7833333333333333,0.525,1,5922.126,1,0.0,0.1
0,325,target,"[(1043, 785)]",[],[1],[0.4],vertical,"(890.0, 762.0)",1.4333333333333333,0.364,1,5926.895,2,0.0,0.1
0,326,target,"[(1054, 795)]",[],[1],[0.3833333333333333],vertical,"(390.0, 762.0)",1.4166666666666667,0.342,1,5932.281,2,0.0,0.1
0,327,target,"[(1033, 795)]",[],[1],[0.6],horizontal,"(390.0, 262.0)",0.9166666666666666,0.56,1,5937.609,2,0.0,0.1
0,328,target,"[(1013, 765)]",[],[1],[0.3833333333333333],horizontal,"(390.0, 262.0)",1.5,0.343,1,5942.907,2,0.0,0.1
0,329,target,"[(1025, 781)]",[],[1],[0.65],horizontal,"(890.0, 762.0)",0.7166666666666667,0.608,1,5948.393,3,0.0,0.1
0,330,target,"[(1055, 781)]",[],[1],[0.85],vertical,"(390.0, 262.0)",0.6333333333333333,nan,0,5954.31,0,0.0,0.1
0,331,target,"[(1005, 791)]",[],[1],[0.6166666666666667],vertical,"(890.0, 762.0)",1.1333333333333333,0.576,1,5958.954,1,0.0,0.1
0,332,target,"[(1037, 795)]",[],[1],[0.5833333333333334],vertical,"(890.0, 762.0)",1.1833333333333333,0.545,1,5964.154,1,0.0,0.1
0,333,target,"[(1036, 794)]",[],[1],[0.2833333333333333],horizontal,"(890.0, 262.0)",1.55,0.25,1,5968.958,2,0.0,0.1
0,334,target,"[(225, 568), (472, 479), (1026, 826)]",[],"[0, 0, 1]",[0.8],horizontal,"(390.0, 262.0)",1.2666666666666666,0.758,1,5974.705,2,0.0,0.1
0,335,target,"[(1024, 805)]",[],[1],[0.85],vertical,"(390.0, 762.0)",0.6833333333333333,nan,0,6472.308,0,0.0,0.1
0,336,target,"[(1019, 800)]",[],[1],[0.85],horizontal,"(890.0, 262.0)",1.05,nan,0,6476.682,0,0.0,0.1
0,337,catch,"[(1014, 806)]",[],[1],[],vertical,"(890.0, 262.0)",1.6,nan,1,6481.916,1,0.0,0.1
0,338,target,"[(1028, 826)]",[],[1],[0.85],horizontal,"(890.0, 762.0)",0.75,nan,0,6487.16,0,0.0,0.1
0,339,target,"[(1025, 825)]",[],[1],[0.6166666666666667],horizontal,"(390.0, 762.0)",0.7,0.584,1,6491.876,1,0.0,0.1
0,340,target,"[(1033, 787)]",[],[1],[0.5666666666666667],horizontal,"(390.0, 762.0)",1.1833333333333333,0.531,1,6496.942,1,0.0,0.1
0,341,target,"[(1032, 782)]",[],[1],[0.85],horizontal,"(890.0, 262.0)",1.3,nan,0,6501.858,0,0.0,0.1
0,342,target,"[(1028, 820)]",[],[1],[0.5666666666666667],horizontal,"(890.0, 262.0)",0.9333333333333333,0.527,1,6507.02,1,0.0,0.1
0,343,target,"[(1035, 784)]",[],[1],[0.5],horizontal,"(890.0, 762.0)",1.5666666666666667,0.463,1,6512.091,1,0.0,0.1
0,344,catch,"[(1049, 815)]",[],[1],[],horizontal,"(390.0, 262.0)",1.6,nan,1,6517.727,2,0.0,0.1
0,345,target,"[(1041, 796)]",[],[1],[0.6833333333333333],vertical,"(890.0, 262.0)",0.6666666666666666,0.652,1,6523.577,2,0.0,0.1
0,346,target,"[(1044, 779)]",[],[1],[0.5],vertical,"(890.0, 262.0)",1.0333333333333332,0.467,1,6528.86,2,0.0,0.1
0,347,target,"[(1054, 795)]",[],[1],[0.55],vertical,"(890.0, 762.0)",0.85,0.516,1,6534.257,2,0.0,0.1
0,348,catch,"[(1021, 766)]",[],[1],[0.03333333333333333],vertical,"(890.0, 262.0)",1.6,"0.019,nan",0,6539.407,0,0.02,0.1
0,349,target,"[(1031, 783)]",[],[1],[0.5333333333333333],vertical,"(890.0, 262.0)",1.0,0.499,1,6544.243,1,0.02,0.1
0,350,catch,"[(1033, 795)]",[],[1],[],vertical,"(890.0, 262.0)",1.6,nan,1,6549.154,1,0.02,0.1
0,351,target,"[(1057, 791)]",[],[1],[0.5166666666666666],horizontal,"(890.0, 262.0)",1.5,0.485,1,6554.208,2,0.02,0.1
0,352,target,"[(1033, 791)]",[],[1],[0.85],horizontal,"(890.0, 762.0)",0.7666666666666666,nan,0,6559.61,0,0.02,0.1
0,353,target,"[(1000, 815), (1033, 790)]",[],"[0, 1]",[0.65],horizontal,"(890.0, 762.0)",0.9,0.613,1,6564.079,1,0.02,0.1
0,354,target,"[(1039, 778)]",[],[1],[0.85],horizontal,"(890.0, 762.0)",0.7333333333333333,nan,0,6570.111,0,0.02,0.1
0,355,target,"[(1014, 777)]",[],[1],[0.6333333333333333],vertical,"(390.0, 762.0)",1.05,0.595,1,6574.641,1,0.02,0.1
0,356,target,"[(1017, 798)]",[],[1],[0.3833333333333333],vertical,"(890.0, 762.0)",1.35,0.345,1,6579.481,1,0.02,0.1
0,357,target,"[(1027, 806)]",[],[1],[0.85],vertical,"(890.0, 762.0)",0.5333333333333333,nan,0,6584.778,0,0.02,0.1
0,358,catch,"[(1017, 780)]",[],[1],[],horizontal,"(390.0, 262.0)",1.6,nan,1,6589.372,1,0.02,0.1
0,359,target,"[(1033, 760)]",[],[1],[0.7],vertical,"(890.0, 262.0)",0.85,0.665,1,6594.51,1,0.02,0.1
0,360,target,"[(1028, 746), (1033, 781)]",[],"[0, 1]",[0.8333333333333334],horizontal,"(390.0, 762.0)",0.9666666666666667,0.801,0,6599.438,0,0.02,0.1
0,361,target,"[(1033, 772)]",[],[1],[0.5666666666666667],horizontal,"(890.0, 262.0)",0.8833333333333333,0.526,1,6606.034,1,0.02,0.1
0,362,target,"[(1055, 772)]",[],[1],[0.6],vertical,"(890.0, 762.0)",1.15,0.566,1,6610.834,1,0.02,0.1
0,363,target,"[(1009, 800)]",[],[1],[0.6666666666666666],horizontal,"(890.0, 262.0)",0.9833333333333333,0.634,1,6616.143,2,0.02,0.1
0,364,target,"[(1030, 787)]",[],[1],[0.85],vertical,"(390.0, 762.0)",0.5,nan,0,6622.131,0,0.02,0.1
0,365,target,"[(997, 776), (1031, 791)]",[],"[0, 1]",[0.06666666666666667],vertical,"(390.0, 762.0)",1.4666666666666666,0.036,0,6626.615,0,0.02,0.1
0,366,catch,"[(1032, 790)]",[],[1],[],horizontal,"(390.0, 262.0)",1.6,nan,1,6632.645,1,0.02,0.1
0,367,target,"[(1022, 764)]",[],[1],[0.5666666666666667],horizontal,"(390.0, 262.0)",1.1333333333333333,0.53,1,6637.193,1,0.02,0.1
0,368,target,"[(1036, 784)]",[],[1],[0.85],horizontal,"(390.0, 762.0)",0.65,nan,0,6642.024,0,0.02,0.1
0,369,target,"[(1022, 765)]",[],[1],[0.7166666666666667],vertical,"(390.0, 262.0)",1.0666666666666667,0.678,1,6646.509,1,0.02,0.1
0,370,target,"[(1032, 796)]",[],[1],[0.5833333333333334],vertical,"(390.0, 262.0)",0.55,0.549,1,6651.46,1,0.02,0.1
0,371,catch,"[(1042, 782)]",[],[1],[],horizontal,"(890.0, 262.0)",1.6,nan,1,6655.761,2,0.02,0.1
0,372,target,"[(1045, 772)]",[],[1],[0.7333333333333333],horizontal,"(890.0, 762.0)",1.1666666666666667,0.695,1,6661.158,2,0.02,0.1
0,373,target,"[(1031, 784)]",[],[1],[0.85],horizontal,"(390.0, 262.0)",0.8,nan,0,6666.861,0,0.02,0.1
0,374,target,"[(1029, 779)]",[],[1],[0.26666666666666666],vertical,"(890.0, 762.0)",1.5666666666666667,0.235,1,6671.86,1,0.02,0.1
0,375,target,"[(1034, 774)]",[],[1],[0.85],horizontal,"(390.0, 262.0)",0.5,nan,0,6676.972,0,0.02,0.1
0,376,target,"[(1013, 792)]",[],[1],[0.6],horizontal,"(390.0, 762.0)",0.9,0.564,1,6681.092,1,0.02,0.1
0,377,target,"[(1033, 786)]",[],[1],[0.5666666666666667],horizontal,"(390.0, 262.0)",1.15,0.535,1,6690.944,1,0.02,0.1
0,378,target,"[(1047, 768)]",[],[1],[0.6666666666666666],horizontal,"(390.0, 762.0)",0.7833333333333333,0.632,1,6696.243,2,0.02,0.1
0,379,target,"[(1051, 787)]",[],[1],[0.6166666666666667],horizontal,"(390.0, 762.0)",1.0,0.573,1,6701.391,2,0.02,0.1
0,380,target,"[(1029, 772)]",[],[1],[0.7],horizontal,"(390.0, 762.0)",0.7833333333333333,0.663,1,6706.76,2,0.02,0.1
0,381,target,"[(1054, 766)]",[],[1],[0.4],horizontal,"(890.0, 262.0)",1.6,0.364,1,6712.044,2,0.02,0.1
0,382,target,"[(1051, 786)]",[],[1],[0.5333333333333333],vertical,"(890.0, 762.0)",1.3333333333333333,0.495,1,6717.508,3,0.02,0.1
0,383,target,"[(1052, 795)]",[],[1],[0.26666666666666666],horizontal,"(390.0, 762.0)",1.3,0.231,1,6723.876,3,0.02,0.1
0,384,target,"[(1033, 776)]",[],[1],[0.7666666666666666],vertical,"(890.0, 762.0)",1.4333333333333333,0.727,1,6729.83,3,0.02,0.1
0,385,target,"[(1036, 766)]",[],[1],[0.65],horizontal,"(890.0, 262.0)",1.0166666666666666,0.612,1,6735.972,3,0.02,0.1
0,386,target,"[(1052, 776)]",[],[1],[0.6333333333333333],horizontal,"(390.0, 762.0)",0.5,0.591,1,6741.729,3,0.02,0.1
0,387,target,"[(1037, 783)]",[],[1],[0.5666666666666667],horizontal,"(890.0, 262.0)",0.6833333333333333,0.53,1,6746.684,3,0.02,0.1
0,388,target,"[(1033, 779)]",[],[1],[0.48333333333333334],horizontal,"(890.0, 262.0)",1.2666666666666666,0.445,1,6752.075,3,0.02,0.1
0,389,target,"[(1049, 790)]",[],[1],[0.6],vertical,"(890.0, 262.0)",1.3,0.562,1,6757.842,3,0.02,0.1
0,390,target,"[(1034, 779)]",[],[1],[0.85],horizontal,"(390.0, 262.0)",0.65,nan,0,6763.6,0,0.02,0.1
0,391,catch,"[(1050, 778)]",[],[1],[],horizontal,"(390.0, 262.0)",1.6,nan,1,6768.015,1,0.02,0.1
0,392,target,"[(1030, 766)]",[],[1],[0.5833333333333334],horizontal,"(890.0, 262.0)",1.15,0.544,1,6773.006,1,0.02,0.1
0,393,catch,"[(1033, 765)]",[],[1],[],horizontal,"(390.0, 262.0)",1.6,nan,1,6778.207,2,0.02,0.1
0,394,target,"[(1047, 766)]",[],[1],[0.55],horizontal,"(890.0, 262.0)",0.9333333333333333,0.51,1,6783.143,2,0.02,0.1
0,395,target,"[(1049, 805)]",[],[1],[0.6],vertical,"(890.0, 762.0)",1.0166666666666666,0.56,1,6788.024,2,0.02,0.1
0,396,target,"[(1050, 785)]",[],[1],[0.85],vertical,"(890.0, 262.0)",0.5833333333333334,nan,0,6792.904,0,0.02,0.1
0,397,target,"[(1035, 789)]",[],[1],[0.85],vertical,"(390.0, 762.0)",0.5,nan,0,6797.021,0,0.02,0.1
0,398,target,"[(1029, 795)]",[],[1],[0.6333333333333333],vertical,"(390.0, 762.0)",0.7833333333333333,0.602,1,6801.557,1,0.0,0.1
0,399,target,"[(1038, 796)]",[],[1],[0.8],vertical,"(890.0, 262.0)",1.15,0.759,1,6806.501,1,0.0,0.1
0,400,target,"[(1055, 781)]",[],[1],[0.5166666666666666],vertical,"(390.0, 262.0)",1.4,0.482,1,6811.94,2,0.0,0.1
0,401,target,"[(1048, 791)]",[],[1],[0.65],vertical,"(390.0, 762.0)",1.0,0.607,1,6817.241,2,0.0,0.1
0,402,target,"[(1041, 790)]",[],[1],[0.5],vertical,"(390.0, 762.0)",1.55,0.46,1,6822.483,2,0.0,0.1
0,403,target,"[(1039, 795)]",[],[1],[0.5666666666666667],vertical,"(890.0, 762.0)",1.0333333333333332,0.524,1,6828.171,2,0.0,0.1
0,404,catch,"[(1039, 787)]",[],[1],[],vertical,"(890.0, 762.0)",1.6,nan,1,6833.605,3,0.0,0.1
0,405,target,"[(1038, 773)]",[],[1],[0.5833333333333334],horizontal,"(890.0, 762.0)",0.7666666666666666,0.543,1,6839.492,3,0.0,0.1
0,406,target,"[(1055, 788)]",[],[1],[0.4],horizontal,"(390.0, 762.0)",1.3,0.36,1,6845.144,3,0.0,0.1
0,407,target,"[(1033, 776)]",[],[1],[0.85],horizontal,"(390.0, 762.0)",0.55,nan,0,6850.65,0,0.0,0.1
0,408,catch,"[(1037, 787)]",[],[1],[],horizontal,"(890.0, 262.0)",1.6,nan,1,6854.638,1,0.0,0.1
0,409,target,"[(1054, 786)]",[],[1],[0.35],horizontal,"(390.0, 262.0)",1.5166666666666666,0.314,1,6860.074,1,0.0,0.1
0,410,target,"[(1047, 790)]",[],[1],[0.5666666666666667],horizontal,"(890.0, 762.0)",1.05,0.527,1,6865.293,2,0.0,0.1
0,411,target,"[(1052, 795)]",[],[1],[0.5333333333333333],horizontal,"(890.0, 262.0)",0.75,0.506,1,6870.445,2,0.0,0.1
0,412,target,"[(1033, 817)]",[],[1],[0.5333333333333333],vertical,"(890.0, 262.0)",1.35,0.496,1,6875.764,2,0.0,0.1
0,413,target,"[(1048, 780)]",[],[1],[0.85],horizontal,"(890.0, 762.0)",0.5333333333333333,nan,0,6881.431,0,0.0,0.1
0,414,target,"[(1015, 772)]",[],[1],[0.6333333333333333],vertical,"(890.0, 762.0)",0.6333333333333333,0.592,1,6885.66,1,0.0,0.1
0,415,target,"[(1061, 786)]",[],[1],[0.65],horizontal,"(890.0, 262.0)",0.5333333333333333,0.617,1,6890.46,1,0.0,0.1
0,416,target,"[(1042, 767)]",[],[1],[0.36666666666666664],horizontal,"(390.0, 262.0)",1.3,0.331,1,6894.844,2,0.0,0.1
0,417,target,"[(1037, 770)]",[],[1],[0.6333333333333333],vertical,"(390.0, 262.0)",0.75,0.593,1,6900.112,2,0.0,0.1
0,418,target,"[(1053, 794)]",[],[1],[0.6],vertical,"(890.0, 262.0)",0.5333333333333333,0.552,1,6905.198,2,0.0,0.1
0,419,target,"[(1037, 775)]",[],[1],[0.5166666666666666],vertical,"(890.0, 262.0)",0.6666666666666666,0.478,1,6910.254,2,0.0,0.1
0,420,target,"[(1054, 794)]",[],[1],[0.85],horizontal,"(390.0, 262.0)",0.7833333333333333,nan,0,6915.396,0,0.0,0.1
0,421,target,"[(1021, 769)]",[],[1],[0.6833333333333333],horizontal,"(890.0, 262.0)",1.3333333333333333,0.641,1,6920.216,1,0.0,0.1
0,422,target,"[(1026, 764)]",[],[1],[0.3833333333333333],horizontal,"(390.0, 762.0)",1.4833333333333334,0.353,1,6925.42,1,0.0,0.1
0,423,target,"[(1033, 769)]",[],[1],[0.7166666666666667],vertical,"(390.0, 262.0)",0.5,0.684,1,6930.327,2,0.0,0.1
0,424,target,"[(1033, 788)]",[],[1],[0.85],horizontal,"(390.0, 262.0)",0.9333333333333333,nan,0,6935.526,0,0.0,0.1
0,425,target,"[(1010, 786)]",[],[1],[0.6333333333333333],horizontal,"(890.0, 762.0)",1.5166666666666666,0.592,1,6940.01,1,0.0,0.1
0,426,target,"[(1029, 766)]",[],[1],[0.85],horizontal,"(390.0, 262.0)",0.5833333333333334,nan,0,6945.723,0,0.0,0.1
0,427,target,"[(1030, 781)]",[],[1],[0.7],horizontal,"(890.0, 262.0)",1.1833333333333333,0.657,1,6950.876,1,0.0,0.1
0,428,catch,"[(1032, 780)]",[],[1],[],vertical,"(890.0, 262.0)",1.6,nan,1,6955.82,1,0.0,0.1
0,429,target,"[(1033, 755)]",[],[1],[],horizontal,"(390.0, 762.0)",,"('cti', 1.131)",0,6960.86,0,0.02,0.1
0,430,target,"[(1034, 790)]",[],[1],[0.7166666666666667],vertical,"(890.0, 262.0)",0.6833333333333333,0.679,1,6965.275,1,0.02,0.1
0,431,target,"[(1022, 756)]",[],[1],[0.3333333333333333],horizontal,"(890.0, 762.0)",1.4,0.297,1,6969.729,1,0.02,0.1
0,432,catch,"[(1035, 793)]",[],[1],[],horizontal,"(890.0, 762.0)",1.6,nan,1,6974.628,2,0.02,0.1
0,433,target,"[(1033, 786)]",[],[1],[0.3],horizontal,"(390.0, 762.0)",1.3833333333333333,0.262,1,6980.256,2,0.02,0.1
0,434,target,"[(1022, 807)]",[],[1],[0.48333333333333334],vertical,"(390.0, 762.0)",1.0833333333333333,0.444,1,6986.068,2,0.02,0.1
0,435,target,"[(1046, 808)]",[],[1],[0.85],vertical,"(890.0, 262.0)",0.95,nan,0,6991.603,0,0.02,0.1
0,436,target,"[(997, 773), (1037, 803)]",[],"[0, 1]",[0.5333333333333333],vertical,"(390.0, 262.0)",1.4333333333333333,0.496,1,6996.459,1,0.02,0.1
0,437,target,"[(1032, 765)]",[],[1],[0.48333333333333334],vertical,"(890.0, 262.0)",1.5166666666666666,0.443,1,7002.598,1,0.02,0.1
0,438,target,"[(1049, 790)]",[],[1],[0.5666666666666667],horizontal,"(390.0, 762.0)",1.1,0.528,1,7007.952,2,0.02,0.1
0,439,target,"[(1031, 774)]",[],[1],[0.55],horizontal,"(890.0, 262.0)",0.6,0.514,1,7013.642,2,0.02,0.1
0,440,target,"[(1045, 777)]",[],[1],[0.65],horizontal,"(890.0, 262.0)",0.8,0.612,1,7018.209,2,0.02,0.1
0,441,target,"[(1029, 800)]",[],[1],[0.5666666666666667],vertical,"(890.0, 262.0)",0.6166666666666667,0.532,1,7023.16,2,0.02,0.1
0,442,target,"[(1054, 789)]",[],[1],[0.5333333333333333],vertical,"(890.0, 262.0)",0.6833333333333333,0.495,1,7028.011,3,0.02,0.1
0,443,catch,"[(1018, 791)]",[],[1],[],vertical,"(890.0, 762.0)",1.6,nan,1,7033.296,3,0.02,0.1
0,444,target,"[(1055, 781)]",[],[1],[0.6166666666666667],vertical,"(890.0, 762.0)",0.6833333333333333,0.578,1,7039.394,3,0.02,0.1
0,445,target,"[(1054, 788)]",[],[1],[0.5],vertical,"(890.0, 262.0)",0.9,0.463,1,7044.828,3,0.02,0.1
0,446,target,"[(1033, 778)]",[],[1],[0.85],vertical,"(890.0, 262.0)",0.5333333333333333,nan,0,7050.593,0,0.02,0.1
0,447,catch,"[(1033, 805)]",[],[1],[0.03333333333333333],horizontal,"(890.0, 262.0)",1.6,"0.017,nan",0,7054.948,0,0.04,0.1
0,448,catch,"[(1045, 797)]",[],[1],[],vertical,"(390.0, 262.0)",,"('cti', 1.548),nan",0,7059.43,0,0.06,0.1
0,449,target,"[(1033, 785)]",[],[1],[0.6333333333333333],horizontal,"(390.0, 262.0)",0.6666666666666666,0.593,1,7064.177,1,0.06,0.1
0,450,target,"[(1054, 776)]",[],[1],[0.5166666666666666],horizontal,"(390.0, 762.0)",0.75,0.478,1,7068.982,1,0.06,0.1
0,451,target,"[(1032, 804)]",[],[1],[0.4666666666666667],vertical,"(390.0, 262.0)",1.15,0.431,1,7073.674,2,0.06,0.1
0,452,target,"[(1059, 786)]",[],[1],[0.5333333333333333],vertical,"(890.0, 262.0)",1.1166666666666667,0.499,1,7078.977,2,0.06,0.1
0,453,target,"[(1035, 767)]",[],[1],[0.85],horizontal,"(390.0, 262.0)",0.5666666666666667,nan,0,7084.991,0,0.06,0.1
0,454,target,"[(1001, 796), (1028, 798)]",[],"[0, 1]",[0.5666666666666667],vertical,"(390.0, 262.0)",0.6,0.532,1,7089.621,1,0.06,0.1
0,455,target,"[(1057, 777)]",[],[1],[0.8],horizontal,"(890.0, 262.0)",0.9833333333333333,0.752,1,7095.672,1,0.06,0.1
0,456,target,"[(1041, 782)]",[],[1],[0.7166666666666667],horizontal,"(390.0, 262.0)",0.8833333333333333,0.671,1,7100.534,2,0.06,0.1
0,457,target,"[(1052, 761)]",[],[1],[0.5166666666666666],horizontal,"(890.0, 262.0)",1.0,0.477,1,7105.979,2,0.06,0.1
0,458,target,"[(1035, 785)]",[],[1],[0.55],vertical,"(890.0, 262.0)",1.35,0.51,1,7111.295,2,0.06,0.1
0,459,target,"[(1039, 793)]",[],[1],[0.23333333333333334],horizontal,"(390.0, 262.0)",1.4333333333333333,0.199,0,7117.209,0,0.06,0.1
0,460,target,"[(1058, 802)]",[],[1],[0.5666666666666667],horizontal,"(390.0, 262.0)",1.5666666666666667,0.529,1,7121.776,1,0.06,0.1
0,461,target,"[(1034, 808)]",[],[1],[0.55],vertical,"(890.0, 762.0)",0.9,0.51,1,7141.793,1,0.06,0.1
0,462,target,"[(1055, 782)]",[],[1],[0.65],horizontal,"(390.0, 762.0)",0.7833333333333333,0.616,1,7146.946,2,0.06,0.1
0,463,catch,"[(1050, 796)]",[],[1],[],horizontal,"(390.0, 262.0)",,"('cti', 1.484),nan",0,7152.131,0,0.08,0.1
0,464,target,"[(1041, 796)]",[],[1],[0.55],vertical,"(890.0, 762.0)",1.1,0.508,1,7157.11,1,0.08,0.1
0,465,target,"[(1037, 789)]",[],[1],[0.5833333333333334],vertical,"(890.0, 762.0)",0.85,0.547,1,7162.424,1,0.08,0.1
0,466,target,"[(1055, 786)]",[],[1],[0.2833333333333333],horizontal,"(390.0, 262.0)",1.2,0.247,1,7167.073,2,0.08,0.1
0,467,target,"[(1057, 786)]",[],[1],[0.65],vertical,"(390.0, 762.0)",0.8,0.617,1,7172.726,2,0.08,0.1
0,468,target,"[(1020, 798)]",[],[1],[0.08333333333333333],horizontal,"(890.0, 262.0)",1.3833333333333333,0.054,0,7177.763,0,0.08,0.1
0,469,target,"[(1035, 788)]",[],[1],[0.6166666666666667],horizontal,"(390.0, 762.0)",1.0166666666666666,0.58,1,7182.815,1,0.08,0.1
0,470,target,"[(1030, 798)]",[],[1],[0.5666666666666667],horizontal,"(890.0, 262.0)",0.55,0.529,1,7187.353,1,0.08,0.1
0,471,target,"[(1050, 792)]",[],[1],[0.3333333333333333],horizontal,"(390.0, 762.0)",1.45,0.303,1,7191.696,2,0.08,0.1
0,472,target,"[(1053, 781)]",[],[1],[0.48333333333333334],vertical,"(890.0, 762.0)",1.45,0.448,1,7197.079,2,0.08,0.1
0,473,target,"[(1035, 795)]",[],[1],[0.85],vertical,"(390.0, 262.0)",0.95,nan,0,7202.878,0,0.08,0.1
0,474,target,"[(1032, 801)]",[],[1],[0.6166666666666667],vertical,"(890.0, 262.0)",1.2,0.575,1,7208.078,1,0.08,0.1
0,475,catch,"[(1034, 791)]",[],[1],[],vertical,"(390.0, 762.0)",1.6,nan,1,7213.512,1,0.08,0.1
0,476,target,"[(997, 799), (1037, 786)]",[],"[0, 1]",[0.6],vertical,"(390.0, 762.0)",1.0666666666666667,0.561,1,7218.045,2,0.08,0.1
0,477,target,"[(1024, 793)]",[],[1],[0.3],horizontal,"(890.0, 262.0)",1.5166666666666666,0.269,1,7230.628,2,0.08,0.1
0,478,target,"[(1025, 804)]",[],[1],[0.6666666666666666],vertical,"(890.0, 262.0)",1.1166666666666667,0.629,1,7236.327,2,0.08,0.1
0,479,target,"[(1033, 792)]",[],[1],[0.6833333333333333],horizontal,"(890.0, 762.0)",0.5666666666666667,0.642,1,7249.152,2,0.06,0.1
0,480,target,"[(1041, 784)]",[],[1],[0.6833333333333333],vertical,"(390.0, 262.0)",1.1333333333333333,0.653,1,7254.676,3,0.06,0.1
0,481,catch,"[(1037, 791)]",[],[1],[],horizontal,"(890.0, 262.0)",1.6,nan,1,7260.825,3,0.06,0.1
0,482,target,"[(1030, 803)]",[],[1],[0.5166666666666666],horizontal,"(390.0, 762.0)",1.5166666666666666,0.487,1,7267.284,3,0.06,0.1
0,483,target,"[(1001, 789), (1037, 801)]",[],"[0, 1]",[0.5166666666666666],vertical,"(890.0, 262.0)",0.9666666666666667,0.487,1,7273.513,3,0.06,0.1
0,484,target,"[(1041, 799)]",[],[1],[0.55],horizontal,"(890.0, 762.0)",1.2166666666666666,0.514,1,7296.144,3,0.06,0.1
0,485,target,"[(1052, 798)]",[],[1],[0.6166666666666667],vertical,"(390.0, 262.0)",1.3666666666666667,0.582,1,7302.357,3,0.06,0.1
0,486,target,"[(1030, 783)]",[],[1],[0.6166666666666667],vertical,"(890.0, 262.0)",1.5833333333333333,0.578,1,7308.294,3,0.06,0.1
0,487,target,"[(1048, 881)]",[],[1],[0.5666666666666667],horizontal,"(890.0, 262.0)",0.9833333333333333,0.533,1,7314.376,3,0.06,0.1
0,488,target,"[(1032, 783)]",[],[1],[0.7333333333333333],vertical,"(390.0, 262.0)",1.4333333333333333,0.699,1,7325.056,3,0.06,0.1
0,489,target,"[(1047, 776)]",[],[1],[0.85],horizontal,"(390.0, 762.0)",0.8666666666666667,nan,0,7331.478,0,0.06,0.1
0,490,target,"[(1026, 832)]",[],[1],[0.7],vertical,"(390.0, 762.0)",1.1333333333333333,0.673,1,7336.46,1,0.06,0.1
0,491,target,"[(1033, 823)]",[],[1],[0.5666666666666667],vertical,"(390.0, 262.0)",1.0333333333333332,0.533,1,7354.927,1,0.06,0.1
0,492,target,"[(1007, 825)]","[(1002, 842)]",[1],[0.4666666666666667],horizontal,"(890.0, 262.0)",,"('bar', 0.482)",0,7359.781,0,0.06,0.1
0,493,target,"[(1009, 809)]",[],[1],[0.85],horizontal,"(390.0, 762.0)",0.5,nan,0,7364.843,0,0.06,0.1
0,494,target,"[(1032, 791)]",[],[1],[0.6166666666666667],vertical,"(390.0, 262.0)",1.2333333333333334,0.576,1,7370.493,1,0.06,0.1
0,495,target,"[(1021, 793)]",[],[1],[0.36666666666666664],horizontal,"(890.0, 762.0)",1.3833333333333333,0.329,1,7375.762,1,0.06,0.1
0,496,catch,"[(1034, 776)]",[],[1],[],vertical,"(890.0, 262.0)",1.6,nan,1,7381.046,2,0.06,0.1
0,497,target,"[(1020, 766)]",[],[1],[0.5],vertical,"(390.0, 262.0)",1.05,0.463,1,7386.728,2,0.04,0.1
0,498,target,"[(1046, 799)]",[],[1],[0.6],vertical,"(890.0, 262.0)",1.15,0.558,1,7393.608,2,0.02,0.1
0,499,target,"[(1047, 793)]",[],[1],[0.65],horizontal,"(890.0, 762.0)",0.5666666666666667,0.613,1,7399.411,2,0.02,0.1
0,500,target,"[(1038, 780)]",[],[1],[0.35],horizontal,"(890.0, 262.0)",1.5833333333333333,0.314,1,7404.794,3,0.02,0.1
0,501,target,"[(1057, 794)]",[],[1],[0.85],horizontal,"(390.0, 262.0)",1.0333333333333332,nan,0,7410.644,0,0.02,0.1
0,502,catch,"[(1035, 778)]",[],[1],[],horizontal,"(890.0, 262.0)",1.6,nan,1,7415.346,1,0.02,0.1
0,503,target,"[(1039, 809)]",[],[1],[0.43333333333333335],horizontal,"(390.0, 762.0)",1.4833333333333334,0.4,1,7420.22,1,0.02,0.1
0,504,target,"[(1051, 797)]",[],[1],[0.85],vertical,"(890.0, 762.0)",1.0166666666666666,nan,0,7425.102,0,0.02,0.1
0,505,target,"[(1037, 790)]",[],[1],[0.5666666666666667],vertical,"(390.0, 762.0)",1.4666666666666666,0.532,1,7429.84,1,0.02,0.1
0,506,target,"[(1037, 786)]",[],[1],[0.5666666666666667],vertical,"(390.0, 762.0)",1.1,0.528,1,7435.391,1,0.02,0.1
0,507,target,"[(1055, 778)]",[],[1],[0.6],vertical,"(890.0, 262.0)",1.0166666666666666,0.563,1,7440.665,2,0.02,0.1
0,508,target,"[(1058, 796)]",[],[1],[0.2],vertical,"(890.0, 762.0)",1.5833333333333333,0.167,0,7446.011,0,0.02,0.1
0,509,target,"[(1046, 800)]",[],[1],[0.6833333333333333],horizontal,"(890.0, 762.0)",0.8333333333333334,0.65,1,7450.687,1,0.02,0.1
0,510,target,"[(1055, 798)]",[],[1],[0.65],horizontal,"(890.0, 762.0)",0.5833333333333334,0.609,1,7455.293,1,0.02,0.1
0,511,catch,"[(1038, 782)]",[],[1],[],horizontal,"(390.0, 762.0)",1.6,nan,1,7460.229,2,0.02,0.1
0,512,target,"[(1047, 822)]",[],[1],[0.5333333333333333],vertical,"(390.0, 262.0)",1.1,0.495,1,7465.358,2,0.02,0.1
0,513,target,"[(1049, 790)]",[],[1],[0.7],vertical,"(890.0, 762.0)",0.5333333333333333,0.664,1,7471.023,2,0.0,0.1
0,514,target,"[(1049, 790)]",[],[1],[0.5833333333333334],vertical,"(890.0, 262.0)",0.6333333333333333,0.548,1,7476.007,2,0.0,0.1
0,515,target,"[(1037, 778)]",[],[1],[0.5666666666666667],horizontal,"(390.0, 262.0)",1.3833333333333333,0.529,1,7481.182,3,0.0,0.1
0,516,catch,"[(1052, 791)]",[],[1],[],vertical,"(890.0, 762.0)",1.6,nan,1,7487.194,3,0.0,0.1
0,517,catch,"[(1037, 794)]",[],[1],[],horizontal,"(890.0, 762.0)",1.6,nan,1,7492.679,3,0.0,0.1
0,518,target,"[(1067, 799)]",[],[1],[0.16666666666666666],horizontal,"(390.0, 262.0)",1.5833333333333333,0.133,0,7498.421,0,0.0,0.1
0,519,target,"[(1025, 799)]",[],[1],[0.4166666666666667],horizontal,"(890.0, 762.0)",1.5166666666666666,0.38,1,7503.41,1,0.0,0.1
0,520,target,"[(1054, 806)]",[],[1],[0.35],vertical,"(390.0, 762.0)",1.4,0.313,1,7508.797,1,0.0,0.1
0,521,target,"[(1063, 781)]",[],[1],[0.4666666666666667],horizontal,"(390.0, 262.0)",1.3666666666666667,0.428,1,7513.891,2,0.0,0.1
0,522,target,"[(1064, 816)]",[],[1],[],horizontal,"(390.0, 262.0)",,"('cti', 1.339)",0,7524.715,0,0.02,0.1
0,523,target,"[(1034, 807)]",[],[1],[0.6333333333333333],vertical,"(390.0, 262.0)",0.8333333333333334,0.592,1,7529.746,1,0.02,0.1
0,524,target,"[(1053, 794)]",[],[1],[0.5166666666666666],horizontal,"(890.0, 262.0)",1.1666666666666667,0.482,1,7534.949,1,0.02,0.1
0,525,target,"[(1055, 796)]",[],[1],[0.5666666666666667],vertical,"(890.0, 762.0)",1.2666666666666666,0.532,1,7540.114,2,0.02,0.1
0,526,target,"[(1053, 820)]",[],[1],[0.85],horizontal,"(390.0, 762.0)",0.6166666666666667,nan,0,7545.742,0,0.02,0.1
0,527,target,"[(1025, 799)]",[],[1],[0.85],horizontal,"(890.0, 262.0)",0.7666666666666666,nan,0,7571.546,0,0.02,0.1
0,528,target,"[(1049, 791)]",[],[1],[0.7166666666666667],vertical,"(390.0, 262.0)",1.0833333333333333,0.677,1,7576.203,1,0.02,0.1
0,529,target,"[(1055, 786)]",[],[1],[0.7333333333333333],vertical,"(390.0, 262.0)",0.65,0.696,1,7581.566,1,0.02,0.1
0,530,target,"[(1044, 798)]",[],[1],[0.75],horizontal,"(890.0, 762.0)",1.2333333333333334,0.706,1,7586.46,2,0.02,0.1
0,531,target,"[(1053, 778)]",[],[1],[0.85],vertical,"(390.0, 762.0)",0.7,nan,0,7592.058,0,0.02,0.1
0,532,catch,"[(1038, 802)]",[],[1],[],vertical,"(890.0, 262.0)",1.6,nan,1,7596.612,1,0.02,0.1
0,533,target,"[(1059, 792)]",[],[1],[0.6],vertical,"(390.0, 262.0)",1.0,0.558,1,7601.546,1,0.02,0.1
0,534,target,"[(1048, 790)]",[],[1],[0.85],horizontal,"(890.0, 762.0)",0.6166666666666667,nan,0,7606.316,0,0.02,0.1
0,535,target,"[(1021, 812)]",[],[1],[0.5333333333333333],vertical,"(890.0, 262.0)",0.55,0.495,1,7610.932,1,0.02,0.1
0,536,target,"[(1063, 801)]",[],[1],[0.3833333333333333],horizontal,"(390.0, 762.0)",1.5,0.346,1,7620.012,1,0.02,0.1
0,537,target,"[(1061, 809)]",[],[1],[0.18333333333333332],horizontal,"(390.0, 762.0)",1.4666666666666666,0.151,0,7624.983,0,0.02,0.1
0,538,target,"[(1004, 824), (1056, 809)]",[],"[0, 1]",[0.5166666666666666],horizontal,"(390.0, 762.0)",0.6,0.483,1,7629.842,1,0.02,0.1
0,539,target,"[(1049, 794)]",[],[1],[0.65],vertical,"(390.0, 762.0)",1.0333333333333332,0.608,1,7641.142,1,0.02,0.1
0,540,target,"[(1045, 786)]",[],[1],[0.6833333333333333],vertical,"(890.0, 262.0)",0.8166666666666667,0.639,1,7646.262,2,0.02,0.1
0,541,target,"[(1043, 789)]",[],[1],[0.6166666666666667],vertical,"(890.0, 262.0)",1.0,0.577,1,7651.441,2,0.02,0.1
0,542,target,"[(1041, 792)]",[],[1],[0.5666666666666667],horizontal,"(890.0, 262.0)",1.4166666666666667,0.524,1,7656.877,2,0.02,0.1
0,543,target,"[(1047, 786)]",[],[1],[0.6833333333333333],horizontal,"(890.0, 762.0)",1.2,0.639,1,7662.293,2,0.02,0.1
0,544,target,"[(1055, 800)]",[],[1],[0.6333333333333333],vertical,"(390.0, 262.0)",1.2333333333333334,0.584,1,7667.829,3,0.02,0.1
0,545,target,"[(1052, 795)]",[],[1],[0.55],horizontal,"(890.0, 262.0)",1.15,0.511,1,7673.74,3,0.02,0.1
0,546,target,"[(1060, 786)]",[],[1],[0.25],vertical,"(890.0, 762.0)",1.5166666666666666,0.215,1,7679.131,3,0.02,0.1
0,547,target,"[(1030, 781)]",[],[1],[0.75],horizontal,"(890.0, 262.0)",1.5,0.71,1,7685.213,3,0.02,0.1
0,548,target,"[(1035, 798)]",[],[1],[0.55],vertical,"(390.0, 262.0)",0.9666666666666667,0.516,1,7691.466,3,0.02,0.1
0,549,target,"[(1055, 778)]",[],[1],[0.5666666666666667],horizontal,"(390.0, 762.0)",0.9833333333333333,0.531,1,7697.237,3,0.02,0.1
0,550,target,"[(1033, 789)]",[],[1],[0.6833333333333333],horizontal,"(890.0, 262.0)",1.0833333333333333,0.649,1,7702.749,3,0.02,0.1
0,551,catch,"[(1023, 791)]",[],[1],[],vertical,"(390.0, 262.0)",1.6,nan,1,7708.563,3,0.02,0.1
0,552,target,"[(1038, 788)]",[],[1],[0.85],horizontal,"(890.0, 762.0)",0.85,nan,0,7714.142,0,0.02,0.1
0,553,target,"[(1032, 795)]",[],[1],[0.65],horizontal,"(390.0, 262.0)",1.4833333333333334,0.603,1,7718.544,1,0.02,0.1
0,554,target,"[(1053, 791)]",[],[1],[0.6333333333333333],vertical,"(890.0, 262.0)",0.9833333333333333,0.6,1,7723.859,1,0.02,0.1
0,555,target,"[(1056, 770)]",[],[1],[0.3333333333333333],vertical,"(890.0, 762.0)",1.3833333333333333,0.299,1,7728.596,2,0.02,0.1
0,556,target,"[(1074, 791)]",[],[1],[0.4166666666666667],horizontal,"(390.0, 762.0)",1.3,0.385,1,7734.165,2,0.02,0.1
0,557,target,"[(1056, 797)]",[],[1],[0.6166666666666667],vertical,"(390.0, 762.0)",0.55,0.574,1,7739.48,2,0.02,0.1
0,558,target,"[(1035, 803)]",[],[1],[0.7],horizontal,"(390.0, 262.0)",1.0666666666666667,0.66,1,7744.365,2,0.02,0.1
0,559,target,"[(1057, 798)]",[],[1],[0.26666666666666666],vertical,"(390.0, 262.0)",1.55,0.229,1,7750.146,3,0.02,0.1
0,560,target,"[(1042, 773)]",[],[1],[0.7166666666666667],vertical,"(390.0, 262.0)",1.35,0.677,1,7756.045,3,0.02,0.1
0,561,target,"[(1031, 765)]",[],[1],[0.55],vertical,"(390.0, 762.0)",1.2666666666666666,0.51,1,7762.092,3,0.02,0.1
0,562,catch,"[(1057, 776)]",[],[1],[],vertical,"(890.0, 762.0)",1.6,nan,1,7768.079,3,0.02,0.1
0,563,target,"[(1034, 788)]",[],[1],[0.6333333333333333],horizontal,"(890.0, 262.0)",1.0333333333333332,0.592,1,7773.942,3,0.02,0.1
0,564,target,"[(1049, 773)]",[],[1],[0.6166666666666667],horizontal,"(890.0, 262.0)",0.9333333333333333,0.573,1,7779.878,3,0.02,0.1
0,565,target,"[(1054, 772)]",[],[1],[0.6166666666666667],vertical,"(890.0, 262.0)",0.5,0.58,1,7785.685,3,0.02,0.1
0,566,catch,"[(1054, 793)]",[],[1],[],vertical,"(890.0, 762.0)",1.6,nan,1,7791.179,3,0.02,0.1
0,567,target,"[(1052, 778)]",[],[1],[0.7],horizontal,"(390.0, 762.0)",0.5,0.662,1,7796.965,3,0.02,0.1
0,568,target,"[(1051, 769)]",[],[1],[0.65],vertical,"(390.0, 262.0)",1.45,0.612,1,7802.731,3,0.02,0.1
0,569,target,"[(1057, 778)]",[],[1],[0.85],vertical,"(890.0, 762.0)",1.5833333333333333,"('cti', 1.584),nan",0,7808.598,0,0.04,0.1
0,570,target,"[(1047, 783)]",[],[1],[0.85],vertical,"(890.0, 262.0)",0.5,nan,0,7814.001,0,0.04,0.1
0,571,target,"[(1041, 798)]",[],[1],[0.5666666666666667],horizontal,"(890.0, 262.0)",0.7,0.529,1,7818.495,1,0.04,0.1
0,572,target,"[(1035, 794)]",[],[1],[0.36666666666666664],vertical,"(890.0, 762.0)",1.5833333333333333,0.327,1,7822.928,1,0.02,0.1
0,573,target,"[(1033, 790)]",[],[1],[0.7],vertical,"(890.0, 762.0)",1.2,0.66,1,7828.381,2,0.02,0.1
0,574,target,"[(1048, 787)]",[],[1],[0.55],vertical,"(390.0, 262.0)",0.9333333333333333,0.517,1,7833.597,2,0.02,0.1
0,575,target,"[(1056, 794)]",[],[1],[0.85],vertical,"(390.0, 762.0)",0.5666666666666667,nan,0,7838.964,0,0.02,0.1
0,576,catch,"[(1017, 790)]",[],[1],[],horizontal,"(890.0, 262.0)",1.6,nan,1,7843.311,1,0.02,0.1
0,577,target,"[(1055, 773)]",[],[1],[0.85],horizontal,"(390.0, 262.0)",0.65,nan,0,7848.359,0,0.02,0.1
0,578,target,"[(1049, 790)]",[],[1],[0.7],horizontal,"(390.0, 262.0)",1.1333333333333333,0.66,1,7852.836,1,0.02,0.1
0,579,target,"[(1060, 777)]",[],[1],[0.13333333333333333],horizontal,"(890.0, 762.0)",1.45,0.101,0,7857.728,0,0.02,0.1
0,580,catch,"[(1056, 778)]",[],[1],[],horizontal,"(890.0, 262.0)",1.6,nan,1,7862.429,1,0.02,0.1
0,581,target,"[(1053, 804)]",[],[1],[0.55],vertical,"(390.0, 262.0)",0.7,0.516,1,7867.606,1,0.02,0.1
0,582,target,"[(1046, 775)]",[],[1],[0.2833333333333333],vertical,"(390.0, 262.0)",1.4833333333333334,0.247,1,7872.281,2,0.02,0.1
0,583,target,"[(1054, 790)]",[],[1],[0.6166666666666667],horizontal,"(390.0, 762.0)",0.9,0.578,1,7877.709,2,0.02,0.1
0,584,target,"[(1058, 783)]",[],[1],[0.5333333333333333],vertical,"(890.0, 762.0)",1.0666666666666667,0.49,1,7883.414,2,0.02,0.1
0,585,target,"[(1055, 801)]",[],[1],[0.5833333333333334],vertical,"(390.0, 262.0)",0.5833333333333334,0.548,1,7888.686,2,0.02,0.1
0,586,target,"[(1033, 787)]",[],[1],[0.2833333333333333],horizontal,"(890.0, 762.0)",1.4333333333333333,0.245,1,7893.811,3,0.02,0.1
0,587,target,"[(1052, 777)]",[],[1],[0.85],horizontal,"(890.0, 762.0)",0.7,nan,0,7899.663,0,0.02,0.1
0,588,catch,"[(1033, 781)]",[],[1],[],vertical,"(390.0, 262.0)",1.6,nan,1,7904.139,1,0.02,0.1
0,589,catch,"[(1033, 796)]",[],[1],[],vertical,"(390.0, 262.0)",1.6,nan,1,7909.19,1,0.02,0.1
0,590,catch,"[(1052, 790)]",[],[1],[],vertical,"(890.0, 262.0)",,"('cti', 1.585),nan",0,7914.064,0,0.04,0.1
0,591,catch,"[(1033, 772)]",[],[1],[],vertical,"(890.0, 762.0)",1.6,nan,1,7918.929,1,0.04,0.1
0,592,target,"[(1062, 777)]",[],[1],[0.85],vertical,"(890.0, 762.0)",1.15,nan,0,7923.859,0,0.04,0.1
0,593,target,"[(1035, 781)]",[],[1],[0.6166666666666667],horizontal,"(390.0, 762.0)",1.0,0.576,1,7928.498,1,0.04,0.1
0,594,target,"[(1056, 777)]",[],[1],[0.85],horizontal,"(890.0, 262.0)",0.8166666666666667,nan,0,7933.195,0,0.04,0.1
0,595,catch,"[(1050, 772)]",[],[1],[],horizontal,"(890.0, 762.0)",1.6,nan,1,7938.018,1,0.04,0.1
0,596,target,"[(1055, 781)]",[],[1],[0.7333333333333333],vertical,"(890.0, 762.0)",0.8166666666666667,0.695,1,7943.278,1,0.04,0.1
0,597,target,"[(1032, 789)]",[],[1],[0.6],vertical,"(390.0, 762.0)",1.05,0.56,1,7948.229,2,0.04,0.1
0,598,target,"[(1037, 777)]",[],[1],[0.36666666666666664],horizontal,"(890.0, 762.0)",1.4166666666666667,0.331,1,7953.93,2,0.04,0.1
0,599,catch,"[(1055, 783)]",[],[1],[],horizontal,"(390.0, 762.0)",1.6,nan,1,7959.424,2,0.04,0.1
0,600,target,"[(1038, 820)]",[],[1],[0.5666666666666667],horizontal,"(890.0, 262.0)",0.95,0.528,1,7965.159,2,0.04,0.1
0,601,target,"[(1038, 813)]",[],[1],[],vertical,"(390.0, 762.0)",,"('cti', 0.748)",0,7970.587,0,0.06,0.1
0,602,target,"[(1030, 797)]",[],[1],[0.36666666666666664],horizontal,"(390.0, 262.0)",0.9666666666666667,0.333,1,7974.528,1,0.06,0.1
0,603,catch,"[(1024, 817)]",[],[1],[],vertical,"(390.0, 262.0)",,"('fix', 0.716),nan",0,7979.59,0,0.08,0.1
0,604,target,"[(1037, 820)]",[],[1],[0.4666666666666667],vertical,"(390.0, 762.0)",0.9333333333333333,0.433,1,7982.032,1,0.08,0.1
0,605,target,"[(1038, 879)]",[],[1],[],horizontal,"(390.0, 262.0)",,"('fix', 0.167)",0,7987.048,0,0.08,0.1
0,606,catch,"[(997, 839), (1036, 829)]",[],"[0, 1]",[],horizontal,"(390.0, 262.0)",1.6,nan,1,7989.198,1,0.08,0.1
0,607,target,"[(1052, 821)]",[],[1],[0.16666666666666666],vertical,"(390.0, 262.0)",1.55,0.132,0,7995.698,0,0.08,0.1
0,608,target,"[(1097, 662), (1033, 816)]",[],"[0, 1]",[0.5833333333333334],vertical,"(890.0, 762.0)",1.3166666666666667,0.542,1,8000.32,1,0.08,0.1
0,609,target,"[(1026, 796)]",[],[1],[0.36666666666666664],vertical,"(390.0, 262.0)",1.4166666666666667,0.329,1,8482.365,1,0.08,0.1
0,610,target,"[(1041, 788)]",[],[1],[0.6],vertical,"(390.0, 262.0)",0.65,0.561,1,8487.682,2,0.08,0.1
0,611,target,"[(1058, 799)]",[],[1],[0.43333333333333335],vertical,"(390.0, 262.0)",1.35,0.394,1,8493.01,2,0.08,0.1
0,612,target,"[(1052, 806)]",[],[1],[0.6333333333333333],horizontal,"(890.0, 262.0)",0.5333333333333333,0.595,1,8498.72,2,0.08,0.1
0,613,target,"[(1061, 809)]",[],[1],[0.55],vertical,"(890.0, 762.0)",1.0833333333333333,0.515,1,8503.764,2,0.08,0.1
0,614,target,"[(1034, 831)]",[],[1],[0.5333333333333333],horizontal,"(890.0, 262.0)",0.9666666666666667,0.498,1,8508.868,3,0.08,0.1
0,615,target,"[(1055, 781)]",[],[1],[0.85],horizontal,"(390.0, 262.0)",0.8,nan,0,8515.239,0,0.08,0.1
0,616,target,"[(1037, 795)]",[],[1],[0.5166666666666666],horizontal,"(390.0, 262.0)",1.2166666666666666,0.482,1,8519.86,1,0.08,0.1
0,617,target,"[(1065, 791)]",[],[1],[0.3],horizontal,"(390.0, 262.0)",1.4,0.268,1,8524.693,1,0.08,0.1
0,618,target,"[(1040, 803)]",[],[1],[0.55],vertical,"(890.0, 762.0)",0.6666666666666666,0.51,1,8529.649,2,0.08,0.1
0,619,target,"[(1045, 843)]",[],[1],[],horizontal,"(890.0, 262.0)",,"('cti', 1.301)",0,8534.397,0,0.08,0.1
0,620,target,"[(1037, 784)]",[],[1],[0.48333333333333334],vertical,"(890.0, 262.0)",0.5166666666666666,0.448,1,8541.944,1,0.08,0.1
0,621,target,"[(1040, 766)]",[],[1],[0.3],horizontal,"(890.0, 262.0)",1.3166666666666667,0.269,1,8546.094,1,0.08,0.1
0,622,target,"[(1061, 768)]",[],[1],[0.5833333333333334],horizontal,"(390.0, 762.0)",0.6666666666666666,0.557,1,8551.048,2,0.08,0.1
0,623,target,"[(1061, 799)]",[],[1],[0.5],vertical,"(890.0, 262.0)",1.2666666666666666,0.466,1,8555.992,2,0.08,0.1
0,624,target,"[(1033, 778)]",[],[1],[0.5166666666666666],vertical,"(390.0, 262.0)",0.6,0.475,1,8561.411,2,0.08,0.1
0,625,target,"[(1029, 787)]",[],[1],[0.48333333333333334],vertical,"(890.0, 762.0)",0.5666666666666667,0.445,1,8566.4,2,0.08,0.1
0,626,target,"[(1057, 793)]",[],[1],[0.5],horizontal,"(390.0, 262.0)",0.75,0.458,1,8571.115,3,0.08,0.1
0,627,catch,"[(1041, 794)]",[],[1],[],horizontal,"(390.0, 762.0)",1.6,nan,1,8576.384,3,0.08,0.1
0,628,target,"[(1028, 803)]",[],[1],[0.48333333333333334],horizontal,"(890.0, 262.0)",0.8166666666666667,0.449,1,8581.833,3,0.08,0.1
0,629,target,"[(1036, 793)]",[],[1],[0.5166666666666666],horizontal,"(390.0, 262.0)",0.6333333333333333,0.476,1,8586.906,3,0.08,0.1
0,630,target,"[(1053, 770)]",[],[1],[0.85],horizontal,"(390.0, 762.0)",0.95,nan,0,8592.598,0,0.08,0.1
0,631,target,"[(1040, 808)]",[],[1],[0.85],vertical,"(890.0, 262.0)",0.85,nan,0,8597.316,0,0.08,0.1
0,632,target,"[(1025, 791)]",[],[1],[0.43333333333333335],vertical,"(890.0, 762.0)",1.3666666666666667,0.393,1,8602.08,1,0.08,0.1
0,633,target,"[(1055, 780)]",[],[1],[0.5333333333333333],horizontal,"(890.0, 762.0)",1.05,0.498,1,8607.499,1,0.08,0.1
0,634,target,"[(1053, 791)]",[],[1],[0.5666666666666667],vertical,"(390.0, 762.0)",1.45,0.527,1,8612.216,2,0.08,0.1
0,635,target,"[(1052, 791)]",[],[1],[0.4],vertical,"(390.0, 762.0)",1.4666666666666666,0.362,1,8617.786,2,0.08,0.1
0,636,target,"[(1045, 786)]",[],[1],[0.31666666666666665],horizontal,"(390.0, 762.0)",1.2833333333333332,0.279,1,8623.765,2,0.08,0.1
0,637,target,"[(1049, 811)]",[],[1],[0.5],horizontal,"(890.0, 262.0)",0.7333333333333333,0.464,1,8629.385,2,0.08,0.1
0,638,catch,"[(1072, 800)]",[],[1],[],horizontal,"(390.0, 262.0)",1.6,nan,1,8634.045,3,0.08,0.1
0,639,catch,"[(1063, 807)]",[],[1],[],vertical,"(390.0, 262.0)",1.6,nan,1,8640.173,3,0.08,0.1
0,640,catch,"[(1040, 778)]",[],[1],[],horizontal,"(390.0, 762.0)",1.6,nan,1,8645.933,3,0.06,0.1
0,641,target,"[(1052, 804)]",[],[1],[0.5166666666666666],horizontal,"(890.0, 262.0)",0.85,0.481,1,8651.77,3,0.06,0.1
0,642,target,"[(1053, 798)]",[],[1],[0.6166666666666667],vertical,"(890.0, 262.0)",0.75,0.579,1,8657.732,3,0.06,0.1
0,643,target,"[(1058, 795)]",[],[1],[0.4666666666666667],vertical,"(390.0, 762.0)",1.2666666666666666,0.427,1,8663.113,3,0.06,0.1
0,644,target,"[(1051, 804)]",[],[1],[0.5333333333333333],vertical,"(390.0, 762.0)",1.0833333333333333,0.503,1,8669.476,3,0.06,0.1
0,645,target,"[(1052, 778)]",[],[1],[0.55],vertical,"(890.0, 762.0)",1.3166666666666667,0.512,1,8675.713,3,0.06,0.1
0,646,catch,"[(1053, 784)]",[],[1],[],horizontal,"(390.0, 262.0)",1.6,nan,1,8681.324,3,0.06,0.1
0,647,target,"[(1065, 806)]",[],[1],[0.6333333333333333],vertical,"(390.0, 762.0)",0.7166666666666667,0.597,1,8687.099,3,0.06,0.1
0,648,target,"[(1052, 804)]",[],[1],[0.45],vertical,"(390.0, 262.0)",1.35,0.408,1,8692.943,3,0.06,0.1
0,649,target,"[(1057, 794)]",[],[1],[0.85],horizontal,"(890.0, 762.0)",0.5,nan,0,8699.36,0,0.06,0.1
0,650,target,"[(1033, 791)]",[],[1],[0.85],vertical,"(390.0, 762.0)",0.8166666666666667,nan,0,8703.946,0,0.06,0.1
0,651,target,"[(1052, 798)]",[],[1],[0.85],vertical,"(390.0, 262.0)",0.7833333333333333,nan,0,8708.665,0,0.04,0.1
0,652,target,"[(1029, 801)]",[],[1],[0.5333333333333333],vertical,"(390.0, 762.0)",1.35,0.491,1,8713.48,1,0.04,0.1
0,653,target,"[(1037, 800)]",[],[1],[0.55],horizontal,"(390.0, 262.0)",0.65,0.516,1,8722.448,1,0.02,0.1
0,654,target,"[(1037, 761)]",[],[1],[0.55],horizontal,"(390.0, 262.0)",0.8666666666666667,0.51,1,8727.106,2,0.02,0.1
0,655,target,"[(1060, 807)]",[],[1],[0.5666666666666667],vertical,"(890.0, 762.0)",0.5666666666666667,0.523,1,8732.679,2,0.02,0.1
0,656,catch,"[(1042, 806)]",[],[1],[],horizontal,"(390.0, 762.0)",1.6,nan,1,8737.627,2,0.02,0.1
0,657,target,"[(1033, 792)]",[],[1],[0.5666666666666667],horizontal,"(390.0, 262.0)",0.9833333333333333,0.528,1,8743.033,2,0.02,0.1
0,658,target,"[(1047, 808)]",[],[1],[0.7333333333333333],vertical,"(390.0, 762.0)",0.8833333333333333,0.699,1,8748.028,3,0.02,0.1
0,659,target,"[(1052, 804)]",[],[1],[0.5666666666666667],vertical,"(390.0, 262.0)",0.9,0.526,1,8753.701,3,0.02,0.1
0,660,target,"[(1052, 788)]",[],[1],[0.3833333333333333],vertical,"(390.0, 762.0)",1.5166666666666666,0.345,1,8759.677,3,0.02,0.1
0,661,target,"[(1039, 786)]",[],[1],[0.6833333333333333],horizontal,"(390.0, 262.0)",0.5166666666666666,0.652,1,8765.414,3,0.02,0.1
0,662,target,"[(1044, 791)]",[],[1],[0.4],vertical,"(390.0, 262.0)",1.45,0.363,1,8770.89,3,0.02,0.1
0,663,target,"[(1052, 790)]",[],[1],[0.5833333333333334],vertical,"(390.0, 262.0)",1.1333333333333333,0.551,1,8776.613,3,0.02,0.1
0,664,target,"[(1049, 805)]",[],[1],[0.5166666666666666],vertical,"(390.0, 762.0)",0.8833333333333333,0.476,1,8782.332,3,0.02,0.1
0,665,target,"[(1037, 769)]",[],[1],[0.5],vertical,"(890.0, 262.0)",0.7333333333333333,0.463,1,8788.164,3,0.02,0.1
0,666,target,"[(1037, 795)]",[],[1],[0.55],horizontal,"(890.0, 262.0)",0.75,0.513,1,8793.513,3,0.02,0.1
0,667,target,"[(1051, 782)]",[],[1],[0.4166666666666667],horizontal,"(390.0, 762.0)",0.9166666666666666,0.385,1,8798.721,3,0.02,0.1
0,668,target,"[(1052, 792)]",[],[1],[0.26666666666666666],horizontal,"(890.0, 762.0)",1.4333333333333333,0.233,1,8804.181,3,0.02,0.1
0,669,target,"[(1046, 777)]",[],[1],[0.4166666666666667],vertical,"(390.0, 762.0)",1.3,0.38,1,8809.95,3,0.0,0.1
0,670,target,"[(1037, 770)]",[],[1],[0.23333333333333334],vertical,"(890.0, 262.0)",1.4,0.197,0,8815.432,0,0.0,0.1
0,671,catch,"[(1036, 803)]",[],[1],[],vertical,"(390.0, 262.0)",1.6,nan,1,8820.056,1,0.0,0.1
0,672,target,"[(1041, 804)]",[],[1],[0.5833333333333334],horizontal,"(890.0, 762.0)",1.55,0.545,1,8824.747,1,0.0,0.1
0,673,catch,"[(1050, 773)]",[],[1],[],horizontal,"(890.0, 262.0)",1.6,nan,1,8829.831,2,0.0,0.1
0,674,target,"[(1075, 798)]",[],[1],[0.3333333333333333],vertical,"(890.0, 762.0)",1.3333333333333333,0.293,1,8835.048,2,0.0,0.1
0,675,catch,"[(1055, 796)]",[],[1],[],vertical,"(890.0, 262.0)",1.6,nan,1,8840.449,2,0.0,0.1
0,676,target,"[(1053, 799)]",[],[1],[0.5333333333333333],vertical,"(890.0, 262.0)",0.55,0.496,1,8845.381,2,0.0,0.1
0,677,target,"[(1042, 800)]",[],[1],[0.3833333333333333],horizontal,"(390.0, 762.0)",1.3333333333333333,0.352,1,8850.679,3,0.0,0.1
0,678,target,"[(1045, 782)]",[],[1],[0.3833333333333333],vertical,"(390.0, 762.0)",1.2333333333333334,0.347,1,8856.603,3,0.0,0.1
0,679,target,"[(1033, 781)]",[],[1],[0.5333333333333333],vertical,"(890.0, 762.0)",1.3166666666666667,0.499,1,8862.384,3,0.0,0.1
0,680,catch,"[(1017, 776)]",[],[1],[0.03333333333333333],vertical,"(390.0, 262.0)",1.6,"0.019,nan",0,8868.034,0,0.02,0.1
0,681,target,"[(1013, 804)]",[],[1],[0.3333333333333333],vertical,"(390.0, 762.0)",1.4,0.294,1,8873.082,1,0.02,0.1
0,682,target,"[(1052, 788)]",[],[1],[0.5166666666666666],vertical,"(890.0, 762.0)",1.2,0.475,1,8879.481,1,0.02,0.1
0,683,catch,"[(1041, 787)]",[],[1],[],horizontal,"(890.0, 762.0)",1.6,nan,1,8884.234,2,0.02,0.1
0,684,target,"[(1066, 795)]",[],[1],[0.55],horizontal,"(890.0, 762.0)",1.0,0.514,1,8889.716,2,0.02,0.1
0,685,target,"[(1055, 786)]",[],[1],[0.5],horizontal,"(390.0, 262.0)",0.8,0.468,1,8895.053,2,0.02,0.1
0,686,target,"[(1033, 800)]",[],[1],[0.85],horizontal,"(890.0, 762.0)",0.8666666666666667,nan,0,8900.168,0,0.02,0.1
0,687,target,"[(1033, 792)]",[],[1],[0.4166666666666667],horizontal,"(390.0, 262.0)",1.2,0.377,1,8904.776,1,0.02,0.1
0,688,target,"[(1057, 795)]",[],[1],[0.85],horizontal,"(390.0, 762.0)",0.6333333333333333,nan,0,8909.651,0,0.02,0.1
0,689,target,"[(1058, 803)]",[],[1],[0.85],horizontal,"(390.0, 262.0)",0.6333333333333333,nan,0,8914.397,0,0.02,0.1
0,690,target,"[(1029, 788)]",[],[1],[0.5666666666666667],horizontal,"(390.0, 762.0)",1.1333333333333333,0.53,1,8918.747,1,0.02,0.1
0,691,target,"[(1068, 806)]",[],[1],[0.1],vertical,"(390.0, 762.0)",1.45,0.067,0,8923.762,0,0.02,0.1
0,692,target,"[(1042, 812)]",[],[1],[0.55],vertical,"(890.0, 262.0)",1.1833333333333333,0.518,1,8928.297,1,0.02,0.1
0,693,target,"[(1022, 756)]",[],[1],[0.3833333333333333],horizontal,"(890.0, 762.0)",1.5,0.345,1,8935.233,1,0.02,0.1
0,694,target,"[(1044, 780)]",[],[1],[0.36666666666666664],vertical,"(390.0, 762.0)",1.2166666666666666,0.334,1,8940.484,2,0.02,0.1
0,695,target,"[(1058, 801)]",[],[1],[0.7],vertical,"(390.0, 762.0)",0.6833333333333333,0.665,1,8945.598,2,0.02,0.1
0,696,target,"[(1032, 786)]",[],[1],[0.16666666666666666],vertical,"(890.0, 762.0)",1.4833333333333334,0.131,0,8950.917,0,0.02,0.1
0,697,target,"[(1041, 794)]",[],[1],[0.7166666666666667],horizontal,"(390.0, 762.0)",1.0666666666666667,0.676,1,8955.626,1,0.02,0.1
0,698,target,"[(1057, 796)]",[],[1],[0.5833333333333334],horizontal,"(890.0, 762.0)",0.7,0.546,1,8960.494,1,0.02,0.1
0,699,target,"[(1033, 770)]",[],[1],[0.48333333333333334],vertical,"(890.0, 262.0)",0.95,0.448,1,8965.215,2,0.02,0.1
0,700,target,"[(1034, 802)]",[],[1],[0.3833333333333333],horizontal,"(390.0, 762.0)",1.4,0.351,1,8970.365,2,0.02,0.1
0,701,target,"[(1043, 786)]",[],[1],[0.5166666666666666],vertical,"(390.0, 262.0)",0.9333333333333333,0.478,1,8975.767,2,0.02,0.1
0,702,target,"[(1065, 806)]",[],[1],[0.48333333333333334],vertical,"(890.0, 262.0)",0.9666666666666667,0.444,1,8980.703,2,0.02,0.1
0,703,target,"[(1038, 790)]",[],[1],[0.3833333333333333],horizontal,"(890.0, 762.0)",1.2166666666666666,0.344,1,8985.583,3,0.02,0.1
0,704,target,"[(1055, 786)]",[],[1],[0.5666666666666667],horizontal,"(890.0, 762.0)",1.0833333333333333,0.531,1,8991.575,3,0.02,0.1
0,705,catch,"[(1053, 778)]",[],[1],[],horizontal,"(890.0, 262.0)",,"('cti', 1.561),nan",0,8997.045,0,0.04,0.1
0,706,target,"[(1048, 800)]",[],[1],[0.5666666666666667],horizontal,"(890.0, 762.0)",0.7166666666666667,0.533,1,9001.576,1,0.04,0.1
0,707,target,"[(1033, 795)]",[],[1],[0.43333333333333335],horizontal,"(390.0, 762.0)",1.25,0.4,1,9006.549,1,0.04,0.1
0,708,target,"[(1033, 812)]",[],[1],[0.65],horizontal,"(890.0, 762.0)",0.85,0.614,1,9011.732,2,0.04,0.1
0,709,catch,"[(1049, 789)]",[],[1],[],vertical,"(390.0, 262.0)",1.6,nan,1,9017.714,2,0.04,0.1
0,710,target,"[(1057, 786)]",[],[1],[0.8166666666666667],vertical,"(890.0, 762.0)",0.9333333333333333,0.78,1,9023.1,2,0.04,0.1
0,711,target,"[(1053, 783)]",[],[1],[0.4],horizontal,"(890.0, 262.0)",1.0666666666666667,0.366,1,9028.298,2,0.04,0.1
0,712,target,"[(1037, 785)]",[],[1],[0.25],vertical,"(390.0, 262.0)",1.4,0.219,1,9033.829,3,0.04,0.1
0,713,catch,"[(1031, 773)]",[],[1],[],horizontal,"(390.0, 262.0)",,"('cti', 1.599),nan",0,9039.802,0,0.06,0.1
0,714,target,"[(1035, 778)]",[],[1],[0.55],vertical,"(390.0, 262.0)",1.5166666666666666,0.511,1,9044.815,1,0.06,0.1
0,715,target,"[(1047, 786)]",[],[1],[0.08333333333333333],horizontal,"(390.0, 262.0)",1.5833333333333333,0.053,0,9050.132,0,0.06,0.1
0,716,target,"[(1052, 802)]",[],[1],[0.7833333333333333],vertical,"(390.0, 762.0)",1.05,0.743,1,9055.081,1,0.06,0.1
0,717,target,"[(1033, 815)]",[],[1],[],horizontal,"(390.0, 762.0)",,"('cti', 1.157)",0,9060.198,0,0.08,0.1
0,718,target,"[(1050, 796)]",[],[1],[0.5333333333333333],vertical,"(390.0, 762.0)",1.25,0.496,1,9064.914,1,0.08,0.1
0,719,target,"[(1051, 791)]",[],[1],[0.35],horizontal,"(390.0, 262.0)",1.35,0.317,1,9070.299,1,0.08,0.1
0,720,target,"[(1038, 793)]",[],[1],[0.15],horizontal,"(390.0, 762.0)",1.25,0.118,0,9075.447,0,0.08,0.1
0,721,target,"[(1035, 798)]",[],[1],[0.23333333333333334],vertical,"(390.0, 262.0)",1.4666666666666666,0.197,0,9080.348,0,0.08,0.1
0,722,catch,"[(1041, 795)]",[],[1],[],horizontal,"(390.0, 262.0)",1.6,nan,1,9085.011,1,0.08,0.1
0,723,catch,"[(1053, 766)]",[],[1],[],vertical,"(390.0, 762.0)",1.6,nan,1,9090.152,1,0.08,0.1
0,724,target,"[(1034, 770)]",[],[1],[0.65],vertical,"(390.0, 762.0)",1.0333333333333332,0.604,1,9095.312,2,0.08,0.1
0,725,target,"[(1037, 775)]",[],[1],[0.5833333333333334],horizontal,"(390.0, 762.0)",1.0833333333333333,0.547,1,9100.783,2,0.08,0.1
0,726,target,"[(1055, 799)]",[],[1],[0.85],horizontal,"(390.0, 762.0)",0.5833333333333334,nan,0,9105.895,0,0.08,0.1
0,727,catch,"[(1021, 801)]",[],[1],[],vertical,"(390.0, 762.0)",1.6,nan,1,9110.351,1,0.08,0.1
0,728,target,"[(1060, 799)]",[],[1],[0.6666666666666666],horizontal,"(890.0, 762.0)",0.8833333333333333,0.629,1,9115.769,1,0.08,0.1
0,729,target,"[(1059, 796)]",[],[1],[0.65],horizontal,"(390.0, 762.0)",1.0666666666666667,0.612,1,9120.402,2,0.08,0.1
0,730,target,"[(1058, 770)]",[],[1],[0.6166666666666667],horizontal,"(390.0, 762.0)",0.9666666666666667,0.583,1,9125.563,2,0.06,0.1
0,731,target,"[(1045, 798)]",[],[1],[0.16666666666666666],horizontal,"(390.0, 762.0)",1.35,0.132,0,9131.15,0,0.06,0.1
0,732,target,"[(1022, 825)]",[],[1],[0.85],horizontal,"(890.0, 262.0)",0.85,nan,0,9135.601,0,0.06,0.1
0,733,target,"[(1037, 796)]",[],[1],[0.55],horizontal,"(390.0, 262.0)",1.0833333333333333,0.513,1,9144.102,1,0.06,0.1
0,734,target,"[(1057, 782)]",[],[1],[0.85],horizontal,"(890.0, 762.0)",0.6166666666666667,nan,0,9148.952,0,0.06,0.1
0,735,target,"[(1029, 800)]",[],[1],[0.65],horizontal,"(390.0, 762.0)",1.3833333333333333,0.618,1,9153.654,1,0.06,0.1
0,736,target,"[(1057, 766)]",[],[1],[0.65],horizontal,"(390.0, 262.0)",0.9666666666666667,0.618,1,9159.048,1,0.06,0.1
0,737,target,"[(1036, 785)]",[],[1],[],horizontal,"(890.0, 762.0)",,"('cti', 1.58)",0,9163.973,0,0.08,0.1
0,738,target,"[(1057, 800)]",[],[1],[0.6166666666666667],vertical,"(890.0, 262.0)",1.2166666666666666,0.583,1,9168.885,1,0.08,0.1
0,739,target,"[(1038, 797)]",[],[1],[0.5666666666666667],horizontal,"(890.0, 262.0)",1.0,0.533,1,9173.614,1,0.08,0.1
0,740,target,"[(1040, 775)]",[],[1],[0.5833333333333334],vertical,"(390.0, 262.0)",0.7833333333333333,0.546,1,9178.462,2,0.08,0.1
0,741,target,"[(1048, 782)]",[],[1],[0.36666666666666664],horizontal,"(890.0, 762.0)",1.5833333333333333,0.327,1,9183.797,2,0.08,0.1
0,742,target,"[(1034, 785)]",[],[1],[0.7166666666666667],horizontal,"(390.0, 762.0)",0.9833333333333333,0.676,1,9188.993,2,0.08,0.1
0,743,target,"[(1057, 783)]",[],[1],[0.6833333333333333],horizontal,"(390.0, 262.0)",1.3666666666666667,0.649,1,9194.443,2,0.08,0.1
0,744,target,"[(1051, 780)]",[],[1],[0.5166666666666666],vertical,"(390.0, 762.0)",1.3,0.476,1,9200.208,3,0.08,0.1
0,745,target,"[(1024, 773)]",[],[1],[0.45],vertical,"(390.0, 762.0)",1.2,0.416,1,9206.394,3,0.08,0.1
0,746,catch,"[(1038, 778)]",[],[1],[],vertical,"(390.0, 762.0)",,"('cti', 1.559),nan",0,9212.539,0,0.1,0.1
0,747,catch,"[(1039, 812)]",[],[1],[],horizontal,"(390.0, 262.0)",,"('cti', 1.511),nan",0,9217.582,0,0.12,0.1
0,748,target,"[(1054, 796)]",[],[1],[0.7166666666666667],vertical,"(390.0, 762.0)",0.5,0.68,1,9223.86,1,0.12,0.1
0,749,target,"[(1055, 789)]",[],[1],[0.55],horizontal,"(890.0, 762.0)",0.7,0.514,1,9228.695,1,0.12,0.1
0,750,target,"[(1057, 791)]",[],[1],[0.4166666666666667],horizontal,"(890.0, 262.0)",0.95,0.379,1,9233.403,2,0.12,0.1
0,751,target,"[(1034, 794)]",[],[1],[0.5833333333333334],vertical,"(890.0, 762.0)",1.1,0.542,1,9238.661,2,0.12,0.1
0,752,target,"[(1058, 787)]",[],[1],[0.6],vertical,"(390.0, 262.0)",0.7666666666666666,0.557,1,9244.238,2,0.12,0.1
0,753,target,"[(1046, 794)]",[],[1],[0.6166666666666667],vertical,"(390.0, 762.0)",0.9,0.58,1,9249.181,2,0.12,0.1
0,754,catch,"[(1038, 794)]",[],[1],[],horizontal,"(890.0, 762.0)",1.6,nan,1,9254.091,3,0.12,0.1
0,755,target,"[(1052, 794)]",[],[1],[0.5],horizontal,"(390.0, 762.0)",1.3666666666666667,0.465,1,9259.799,3,0.1,0.1
0,756,target,"[(1041, 828)]",[],[1],[0.43333333333333335],horizontal,"(390.0, 262.0)",1.4,0.397,1,9265.449,3,0.1,0.1
0,757,target,"[(1039, 786)]",[],[1],[0.5166666666666666],horizontal,"(390.0, 262.0)",1.2666666666666666,0.479,1,9271.7,3,0.1,0.1
0,758,target,"[(1056, 807)]",[],[1],[0.65],horizontal,"(390.0, 262.0)",0.6166666666666667,0.612,1,9277.557,3,0.1,0.1
0,759,target,"[(1037, 769)]",[],[1],[0.6],horizontal,"(390.0, 262.0)",1.3166666666666667,0.56,1,9282.934,3,0.1,0.1
0,760,target,"[(1034, 789)]",[],[1],[0.5833333333333334],horizontal,"(890.0, 762.0)",0.55,0.543,1,9289.36,3,0.1,0.1
0,761,catch,"[(1034, 776)]",[],[1],[],vertical,"(890.0, 762.0)",1.6,nan,1,9294.177,3,0.1,0.1
0,762,target,"[(1054, 796)]",[],[1],[0.45],horizontal,"(890.0, 762.0)",1.25,0.412,1,9299.665,3,0.1,0.1
0,763,catch,"[(1044, 785)]",[],[1],[],horizontal,"(390.0, 762.0)",,"('cti', 1.519),nan",0,9305.698,0,0.1,0.1
0,764,target,"[(1056, 809)]",[],[1],[0.55],horizontal,"(390.0, 762.0)",1.1,0.516,1,9310.555,1,0.1,0.1
0,765,target,"[(1052, 782)]",[],[1],[],vertical,"(890.0, 262.0)",,"('fix', 0.541)",0,9315.677,0,0.1,0.1
0,766,target,"[(1042, 820)]",[],[1],[0.6666666666666666],vertical,"(890.0, 262.0)",0.65,0.628,1,9321.163,1,0.1,0.1
0,767,catch,"[(1058, 794)]",[],[1],[],horizontal,"(390.0, 262.0)",,"('cti', 1.399),nan",0,9325.551,0,0.1,0.1
0,768,target,"[(1038, 818)]",[],[1],[0.6166666666666667],vertical,"(390.0, 762.0)",0.7,0.577,1,9330.435,1,0.1,0.1
0,769,target,"[(1048, 788)]",[],[1],[0.65],horizontal,"(890.0, 262.0)",0.95,0.607,1,9335.258,1,0.1,0.1
0,770,target,"[(1038, 792)]",[],[1],[0.5166666666666666],horizontal,"(890.0, 262.0)",0.95,0.479,1,9340.53,2,0.1,0.1
0,771,target,"[(1041, 795)]",[],[1],[0.5666666666666667],horizontal,"(390.0, 762.0)",1.1,0.524,1,9346.315,2,0.1,0.1
0,772,target,"[(1042, 820)]",[],[1],[0.48333333333333334],horizontal,"(890.0, 262.0)",1.0,0.446,1,9351.917,2,0.1,0.1
0,773,target,"[(1042, 798)]",[],[1],[0.5],horizontal,"(390.0, 762.0)",1.05,0.461,1,9357.416,2,0.1,0.1
0,774,target,"[(1054, 774)]",[],[1],[0.5166666666666666],horizontal,"(390.0, 262.0)",0.8666666666666667,0.483,1,9362.84,3,0.1,0.1
0,775,target,"[(1053, 790)]",[],[1],[0.48333333333333334],horizontal,"(890.0, 762.0)",1.3,0.444,1,9368.96,3,0.1,0.1
0,776,target,"[(1048, 777)]",[],[1],[0.21666666666666667],vertical,"(890.0, 262.0)",1.45,0.182,0,9374.428,0,0.1,0.1
0,777,target,"[(1056, 828)]",[],[1],[0.5833333333333334],horizontal,"(390.0, 262.0)",1.0833333333333333,0.548,1,9379.23,1,0.1,0.1
0,778,target,"[(1047, 802)]",[],[1],[0.6],vertical,"(890.0, 262.0)",1.2,0.558,1,9400.424,1,0.1,0.1
0,779,target,"[(1054, 801)]",[],[1],[0.5666666666666667],horizontal,"(390.0, 262.0)",1.15,0.529,1,9405.454,2,0.1,0.1
0,780,target,"[(1056, 780)]",[],[1],[0.48333333333333334],vertical,"(890.0, 262.0)",0.8166666666666667,0.449,1,9410.644,2,0.1,0.1
0,781,target,"[(1051, 791)]",[],[1],[0.45],horizontal,"(890.0, 762.0)",1.2,0.413,1,9415.418,2,0.1,0.1
0,782,target,"[(1062, 780)]",[],[1],[],horizontal,"(390.0, 762.0)",,"('cti', 1.015)",0,9420.985,0,0.12,0.1
0,783,target,"[(1041, 798)]",[],[1],[0.36666666666666664],horizontal,"(390.0, 262.0)",1.2333333333333334,0.332,1,9425.418,1,0.12,0.1
0,784,target,"[(1052, 794)]",[],[1],[0.2833333333333333],horizontal,"(890.0, 262.0)",1.2666666666666666,0.25,1,9430.717,1,0.12,0.1
0,785,target,"[(1063, 781)]",[],[1],[0.3333333333333333],vertical,"(390.0, 262.0)",1.15,0.294,1,9435.701,2,0.12,0.1
0,786,target,"[(1063, 805)]",[],[1],[0.6166666666666667],horizontal,"(890.0, 262.0)",0.5833333333333334,0.578,1,9441.068,2,0.12,0.1
0,787,target,"[(1060, 795)]",[],[1],[0.13333333333333333],horizontal,"(390.0, 762.0)",1.4666666666666666,0.102,0,9446.018,0,0.1,0.1
0,788,target,"[(1031, 785)]",[],[1],[0.85],vertical,"(390.0, 762.0)",0.6,nan,0,9450.662,0,0.1,0.1
0,789,target,"[(1033, 798)]",[],[1],[0.43333333333333335],vertical,"(890.0, 262.0)",1.15,0.399,1,9455.167,1,0.1,0.1
0,790,target,"[(1054, 795)]",[],[1],[0.5333333333333333],vertical,"(390.0, 262.0)",0.5,0.496,1,9460.002,1,0.1,0.1
0,791,target,"[(1058, 794)]",[],[1],[0.5],horizontal,"(390.0, 262.0)",1.0166666666666666,0.461,1,9464.118,2,0.1,0.1
0,792,catch,"[(1052, 796)]",[],[1],[],vertical,"(890.0, 762.0)",,"('cti', 1.499),nan",0,9469.35,0,0.12,0.1
0,793,catch,"[(1040, 800)]",[],[1],[],horizontal,"(890.0, 762.0)",1.6,nan,1,9473.822,1,0.12,0.1
0,794,target,"[(1054, 781)]",[],[1],[0.5666666666666667],vertical,"(390.0, 262.0)",0.5833333333333334,0.526,1,9478.717,1,0.12,0.1
0,795,catch,"[(1054, 761)]",[],[1],[],horizontal,"(890.0, 762.0)",,"('cti', 1.555),nan",0,9483.306,0,0.14,0.1
0,796,catch,"[(1045, 795)]",[],[1],[],vertical,"(890.0, 762.0)",1.6,nan,1,9488.15,1,0.12,0.1
0,797,target,"[(1038, 786)]",[],[1],[0.55],horizontal,"(390.0, 762.0)",0.5666666666666667,0.516,1,9492.886,1,0.1,0.1
0,798,target,"[(1023, 771)]",[],[1],[0.85],vertical,"(890.0, 762.0)",0.5,nan,0,9496.952,0,0.1,0.1
0,799,target,"[(1038, 798)]",[],[1],[0.5166666666666666],vertical,"(890.0, 762.0)",0.95,0.475,1,9501.433,1,0.1,0.1
0,800,target,"[(1068, 786)]",[],[1],[0.85],horizontal,"(890.0, 762.0)",0.6166666666666667,nan,0,9507.087,0,0.1,0.1
0,801,target,"[(1017, 790)]",[],[1],[0.75],vertical,"(890.0, 762.0)",0.5166666666666666,0.711,1,9511.663,1,0.1,0.1
0,802,target,"[(1052, 799)]",[],[1],[0.6833333333333333],horizontal,"(890.0, 762.0)",1.0333333333333332,0.636,1,9516.782,1,0.1,0.1
0,803,target,"[(1036, 791)]",[],[1],[0.13333333333333333],vertical,"(390.0, 762.0)",1.4166666666666667,0.099,0,9522.114,0,0.1,0.1
0,804,catch,"[(1045, 829)]",[],[1],[],horizontal,"(390.0, 762.0)",1.6,nan,1,9526.715,1,0.1,0.1
0,805,target,"[(1038, 795)]",[],[1],[0.5833333333333334],vertical,"(890.0, 262.0)",0.75,0.546,1,9531.547,1,0.1,0.1
0,806,target,"[(1054, 777)]",[],[1],[0.2833333333333333],horizontal,"(390.0, 262.0)",1.5333333333333332,0.245,1,9536.35,2,0.1,0.1
0,807,target,"[(1069, 795)]",[],[1],[0.5333333333333333],vertical,"(390.0, 262.0)",1.15,0.498,1,9541.749,2,0.1,0.1
0,808,target,"[(1034, 778)]",[],[1],[0.55],horizontal,"(390.0, 262.0)",1.1,0.517,1,9547.215,2,0.1,0.1
0,809,target,"[(1047, 800)]",[],[1],[0.5],horizontal,"(890.0, 262.0)",1.5666666666666667,0.461,1,9552.885,2,0.1,0.1
0,810,target,"[(1032, 795)]",[],[1],[0.45],vertical,"(890.0, 262.0)",1.1333333333333333,0.413,1,9558.618,3,0.1,0.1
0,811,target,"[(1036, 784)]",[],[1],[0.11666666666666667],horizontal,"(390.0, 762.0)",1.4666666666666666,0.085,0,9564.479,0,0.1,0.1
0,812,target,"[(1035, 800)]",[],[1],[0.85],horizontal,"(890.0, 262.0)",1.1,nan,0,9569.134,0,0.1,0.1
0,813,target,"[(1032, 785)]",[],[1],[0.55],vertical,"(890.0, 762.0)",1.4333333333333333,0.51,1,9573.92,1,0.08,0.1
0,814,target,"[(1055, 749), (1022, 796)]",[],"[0, 1]",[0.6],horizontal,"(890.0, 762.0)",1.0166666666666666,0.563,1,9579.512,1,0.08,0.1
0,815,target,"[(1024, 759)]",[],[1],[0.5333333333333333],vertical,"(390.0, 262.0)",0.7333333333333333,0.495,1,9585.979,2,0.08,0.1
0,816,target,"[(1032, 773)]",[],[1],[0.3333333333333333],horizontal,"(390.0, 262.0)",1.2666666666666666,0.3,1,9590.503,2,0.08,0.1
0,817,target,"[(1054, 802)]",[],[1],[0.25],vertical,"(890.0, 762.0)",1.2833333333333332,0.216,1,9596.05,2,0.06,0.1
0,818,target,"[(1056, 791)]",[],[1],[0.5833333333333334],horizontal,"(390.0, 262.0)",0.5833333333333334,0.54,1,9601.653,2,0.06,0.1
0,819,target,"[(1056, 786)]",[],[1],[0.85],vertical,"(390.0, 762.0)",0.5666666666666667,nan,0,9606.651,0,0.06,0.1
0,820,target,"[(1034, 791)]",[],[1],[0.6333333333333333],vertical,"(390.0, 762.0)",1.4166666666666667,0.598,1,9611.164,1,0.06,0.1
0,821,target,"[(1031, 778)]",[],[1],[0.6833333333333333],horizontal,"(390.0, 762.0)",1.15,0.643,1,9616.709,1,0.06,0.1
0,822,target,"[(1035, 786)]",[],[1],[0.5333333333333333],vertical,"(890.0, 262.0)",1.05,0.491,1,9622.085,2,0.06,0.1
0,823,target,"[(1059, 792)]",[],[1],[0.5],horizontal,"(890.0, 262.0)",1.0833333333333333,0.467,1,9627.456,2,0.06,0.1
0,824,target,"[(1041, 796)]",[],[1],[0.5833333333333334],vertical,"(890.0, 262.0)",1.15,0.544,1,9632.917,2,0.06,0.1
0,825,target,"[(1051, 773)]",[],[1],[0.85],horizontal,"(890.0, 762.0)",0.8,nan,0,9638.2,0,0.06,0.1
0,826,target,"[(1039, 859)]",[],[1],[0.6833333333333333],vertical,"(390.0, 262.0)",0.8833333333333333,0.641,1,9642.985,1,0.06,0.1
0,827,target,"[(1026, 799)]",[],[1],[0.85],horizontal,"(890.0, 762.0)",1.2166666666666666,nan,0,10224.886,0,0.06,0.1
0,828,target,"[(1005, 811)]",[],[1],[0.55],vertical,"(890.0, 262.0)",1.4,0.514,1,10230.014,1,0.06,0.1
0,829,target,"[(1001, 830), (1032, 813)]",[],"[0, 1]",[0.26666666666666666],vertical,"(890.0, 762.0)",1.35,0.236,1,10235.468,1,0.06,0.1
0,830,target,"[(1037, 795)]",[],[1],[0.48333333333333334],vertical,"(890.0, 262.0)",0.9666666666666667,0.444,1,10242.716,2,0.06,0.1
0,831,target,"[(1036, 799)]",[],[1],[0.6],vertical,"(390.0, 262.0)",0.8333333333333334,0.561,1,10247.82,2,0.06,0.1
0,832,catch,"[(1037, 791)]",[],[1],[],horizontal,"(890.0, 762.0)",1.6,nan,1,10252.978,2,0.04,0.1
0,833,catch,"[(1051, 781)]",[],[1],[],vertical,"(390.0, 262.0)",1.6,nan,1,10258.501,2,0.04,0.1
0,834,target,"[(1052, 799)]",[],[1],[0.85],horizontal,"(390.0, 762.0)",0.7833333333333333,nan,0,10263.68,0,0.04,0.1
0,835,target,"[(1013, 820)]",[],[1],[0.5],vertical,"(390.0, 262.0)",1.3833333333333333,0.464,1,10268.131,1,0.04,0.1
0,836,target,"[(1052, 756)]",[],[1],[0.2833333333333333],horizontal,"(390.0, 262.0)",1.5,0.247,1,10273.282,1,0.04,0.1
0,837,target,"[(1045, 790)]",[],[1],[0.5666666666666667],vertical,"(890.0, 762.0)",0.8,0.53,1,10278.348,2,0.04,0.1
0,838,target,"[(1037, 790)]",[],[1],[0.6333333333333333],horizontal,"(390.0, 762.0)",1.05,0.594,1,10283.012,2,0.04,0.1
0,839,target,"[(1053, 785)]",[],[1],[0.5166666666666666],horizontal,"(890.0, 262.0)",0.9833333333333333,0.478,1,10288.194,2,0.04,0.1
0,840,target,"[(1040, 795)]",[],[1],[0.15],horizontal,"(890.0, 262.0)",1.4833333333333334,0.12,0,10293.568,0,0.04,0.1
0,841,target,"[(1053, 790)]",[],[1],[0.4],horizontal,"(890.0, 262.0)",1.55,0.361,1,10298.32,1,0.04,0.1
0,842,target,"[(1040, 783)]",[],[1],[0.5166666666666666],vertical,"(890.0, 262.0)",1.0833333333333333,0.483,1,10303.836,1,0.02,0.1
0,843,target,"[(1048, 784)]",[],[1],[0.85],vertical,"(890.0, 762.0)",0.9333333333333333,nan,0,10308.77,0,0.02,0.1
0,844,target,"[(1013, 807)]",[],[1],[0.2833333333333333],vertical,"(390.0, 262.0)",1.4166666666666667,0.244,1,10313.769,1,0.02,0.1
0,845,target,"[(1053, 791)]",[],[1],[0.43333333333333335],vertical,"(390.0, 262.0)",0.9833333333333333,0.4,1,10325.569,1,0.0,0.1
0,846,target,"[(1057, 799)]",[],[1],[0.36666666666666664],vertical,"(890.0, 262.0)",1.35,0.331,1,10330.536,2,0.0,0.1
