block,trial,trial_type,taps_start_loc_during_fix,taps_end_loc_during_fix,taps_on_lever_during_fix,taps_on_lever_s_during_fix,bar_orientation,target_xy,cti,rt,acc,time,pulses,fa_rate_recent100,p_catch
0,1,target,"[(1128, 917)]",[],[1],[0.4666666666666667],vertical,"(890.0, 262.0)",1.5333333333333332,0.425,1,0.463,1,0.0,0.1
0,2,catch,"[(988, 830), (1033, 830)]",[],"[0, 1]",[],vertical,"(390.0, 762.0)",1.6,nan,1,15.643,1,0.0,0.1
0,3,target,"[(1061, 816)]",[],[1],[0.75],horizontal,"(390.0, 262.0)",1.4,nan,0,79.934,0,0.0,0.1
0,4,target,"[(1012, 825)]",[],[1],[0.75],vertical,"(390.0, 762.0)",0.7,nan,0,109.771,0,0.0,0.1
0,5,target,"[(1017, 840)]",[],[1],[0.5833333333333334],horizontal,"(890.0, 262.0)",0.7666666666666666,0.561,1,114.421,1,0.0,0.1
0,6,target,"[(1034, 825)]",[],[1],[0.6],horizontal,"(390.0, 262.0)",0.5166666666666666,0.578,1,123.432,1,0.0,0.1
0,7,target,"[(1024, 832)]",[],[1],[0.65],vertical,"(390.0, 262.0)",0.7166666666666667,0.628,1,128.243,1,0.0,0.1
0,8,target,"[(1039, 812)]",[],[1],[0.75],horizontal,"(890.0, 262.0)",0.5333333333333333,nan,0,133.05,0,0.0,0.1
0,9,catch,"[(1043, 809)]",[],[1],[],horizontal,"(390.0, 762.0)",,"('cti', 1.545),nan",0,137.723,0,0.1111111111111111,0.1
0,10,target,"[(1037, 803)]",[],[1],[0.5666666666666667],vertical,"(890.0, 762.0)",0.55,0.523,1,142.516,1,0.1,0.1
0,11,target,"[(1021, 776)]",[],[1],[0.75],vertical,"(890.0, 762.0)",0.95,nan,0,147.02,0,0.09090909090909091,0.1
0,12,target,"[(1017, 807)]",[],[1],[0.5333333333333333],horizontal,"(390.0, 262.0)",1.4666666666666666,0.486,1,151.537,1,0.08333333333333333,0.1
0,13,target,"[(1029, 786)]",[],[1],[0.75],vertical,"(390.0, 262.0)",0.85,nan,0,156.787,0,0.07692307692307693,0.1
0,14,target,"[(1021, 809)]",[],[1],[0.43333333333333335],vertical,"(890.0, 762.0)",1.2,0.389,1,161.519,1,0.07142857142857142,0.1
0,15,target,"[(1029, 770)]",[],[1],[0.55],horizontal,"(890.0, 762.0)",1.3,0.51,1,166.854,1,0.06666666666666667,0.1
0,16,target,"[(1035, 769)]",[],[1],[0.6833333333333333],horizontal,"(890.0, 762.0)",0.8666666666666667,0.636,1,171.696,1,0.0625,0.1
0,17,target,"[(1038, 774)]",[],[1],[],horizontal,"(390.0, 762.0)",,"('cti', 1.273)",0,176.733,0,0.11764705882352941,0.1
0,18,target,"[(1019, 812)]",[],[1],[0.55],vertical,"(390.0, 262.0)",1.2166666666666666,0.51,1,181.296,1,0.1111111111111111,0.1
0,19,target,"[(1020, 761)]",[],[1],[0.13333333333333333],vertical,"(390.0, 762.0)",1.5833333333333333,0.1,0,186.987,0,0.10526315789473684,0.1
0,20,catch,"[(1020, 800)]",[],[1],[],horizontal,"(390.0, 262.0)",1.6,nan,1,191.919,1,0.1,0.1
0,21,target,"[(1032, 778)]",[],[1],[0.55],vertical,"(890.0, 262.0)",0.5166666666666666,0.508,1,196.923,1,0.09523809523809523,0.1
0,22,target,"[(1037, 777)]",[],[1],[0.2],horizontal,"(390.0, 262.0)",1.5333333333333332,0.168,0,201.471,0,0.09090909090909091,0.1
0,23,target,"[(1035, 790)]",[],[1],[0.5666666666666667],vertical,"(390.0, 262.0)",0.5166666666666666,0.529,1,206.237,1,0.08695652173913043,0.1
0,24,target,"[(1033, 766)]",[],[1],[0.48333333333333334],vertical,"(890.0, 262.0)",1.35,0.441,1,210.819,1,0.08333333333333333,0.1
0,25,target,"[(1035, 770)]",[],[1],[0.6166666666666667],vertical,"(390.0, 262.0)",0.7333333333333333,0.574,1,215.937,1,0.08,0.1
0,26,target,"[(1025, 763)]",[],[1],[],horizontal,"(390.0, 262.0)",,"('cti', 1.195)",0,220.537,0,0.11538461538461539,0.1
0,27,target,"[(1037, 775)]",[],[1],[0.65],horizontal,"(390.0, 762.0)",1.1,0.607,1,225.119,1,0.1111111111111111,0.1
0,28,target,"[(1036, 767)]",[],[1],[0.18333333333333332],vertical,"(390.0, 262.0)",0.95,0.151,0,230.204,0,0.10714285714285714,0.1
0,29,target,"[(1022, 776)]",[],[1],[0.6],vertical,"(890.0, 262.0)",0.85,0.576,1,234.751,1,0.10344827586206896,0.1
0,30,catch,"[(1051, 764)]",[],[1],[],horizontal,"(890.0, 762.0)",,"('cti', 1.551),nan",0,239.41,0,0.13333333333333333,0.1
0,31,target,"[(1037, 808)]",[],[1],[0.5166666666666666],horizontal,"(890.0, 762.0)",1.0333333333333332,0.487,1,243.836,1,0.12903225806451613,0.1
0,32,target,"[(1021, 760)]",[],[1],[0.6333333333333333],vertical,"(390.0, 762.0)",0.6833333333333333,0.602,1,248.769,1,0.125,0.1
0,33,target,"[(1033, 775)]",[],[1],[0.55],horizontal,"(390.0, 762.0)",1.2333333333333334,0.524,1,253.429,1,0.12121212121212122,0.1
0,34,target,"[(1019, 770)]",[],[1],[0.36666666666666664],vertical,"(390.0, 762.0)",1.5166666666666666,0.329,1,258.546,2,0.11764705882352941,0.1
0,35,catch,"[(1034, 770)]",[],[1],[],horizontal,"(890.0, 762.0)",1.6,nan,1,264.112,2,0.11428571428571428,0.1
0,36,catch,"[(1032, 765)]",[],[1],[],vertical,"(390.0, 762.0)",,"('cti', 1.608),nan",0,269.26,0,0.1388888888888889,0.1
0,37,target,"[(1019, 773)]",[],[1],[0.7166666666666667],vertical,"(890.0, 762.0)",0.8166666666666667,0.695,1,274.328,1,0.13513513513513514,0.1
0,38,catch,"[(1049, 789)]",[],[1],[],horizontal,"(390.0, 762.0)",,"('cti', 1.619),nan",0,279.4,0,0.15789473684210525,0.1
0,39,target,"[(1040, 785)]",[],[1],[0.13333333333333333],vertical,"(890.0, 262.0)",1.5833333333333333,0.102,0,283.786,0,0.15384615384615385,0.1
0,40,target,"[(1033, 782)]",[],[1],[0.15],vertical,"(890.0, 762.0)",1.5166666666666666,0.119,0,288.598,0,0.15,0.1
0,41,target,"[(1028, 770)]",[],[1],[0.55],vertical,"(390.0, 762.0)",0.8333333333333334,0.526,1,293.57,1,0.14634146341463414,0.1
0,42,target,"[(1037, 747), (1043, 815)]",[],"[0, 1]",[0.45],horizontal,"(390.0, 262.0)",0.85,0.422,1,298.22,1,0.14285714285714285,0.1
0,43,target,"[(1025, 751), (1017, 780)]",[],"[0, 1]",[0.48333333333333334],vertical,"(890.0, 262.0)",0.75,0.459,1,304.075,1,0.13953488372093023,0.1
0,44,target,"[(1020, 747), (1033, 779)]",[],"[0, 1]",[0.6],horizontal,"(890.0, 762.0)",1.2166666666666666,0.569,1,310.238,2,0.13636363636363635,0.1
0,45,target,"[(1033, 784)]",[],[1],[0.5166666666666666],vertical,"(890.0, 262.0)",0.55,0.488,1,316.808,2,0.13333333333333333,0.1
0,46,target,"[(1038, 756)]",[],[1],[0.65],vertical,"(390.0, 262.0)",1.0333333333333332,0.618,1,321.395,2,0.13043478260869565,0.1
0,47,target,"[(1035, 775)]",[],[1],[],vertical,"(390.0, 262.0)",,"('cti', 1.296)",0,326.584,0,0.14893617021276595,0.1
0,48,target,"[(1016, 804)]",[],[1],[0.48333333333333334],horizontal,"(390.0, 262.0)",1.0166666666666666,0.455,1,331.037,1,0.14583333333333334,0.1
0,49,target,"[(1033, 767)]",[],[1],[0.43333333333333335],vertical,"(390.0, 262.0)",1.35,0.408,1,336.234,1,0.14285714285714285,0.1
0,50,target,"[(1034, 771)]",[],[1],[0.6],horizontal,"(390.0, 762.0)",0.8833333333333333,0.575,1,341.117,1,0.14,0.2
0,51,target,"[(1017, 773)]",[],[1],[0.6],vertical,"(390.0, 262.0)",0.85,0.575,1,345.948,2,0.14,0.2
0,52,target,"[(1033, 785)]",[],[1],[0.13333333333333333],vertical,"(890.0, 762.0)",1.5833333333333333,0.101,0,350.99,0,0.14,0.2
0,53,catch,"[(1039, 783)]",[],[1],[],horizontal,"(890.0, 762.0)",1.6,nan,1,355.538,1,0.14,0.2
0,54,catch,"[(1035, 763)]",[],[1],[],vertical,"(390.0, 262.0)",,"('cti', 1.618),nan",0,360.715,0,0.16,0.2
0,55,target,"[(1037, 774)]",[],[1],[0.4666666666666667],horizontal,"(390.0, 262.0)",0.6166666666666667,0.439,1,365.425,1,0.16,0.2
0,56,target,"[(1029, 798)]",[],[1],[0.55],horizontal,"(390.0, 262.0)",1.55,0.523,1,369.887,1,0.16,0.2
0,57,target,"[(1025, 777)]",[],[1],[0.4166666666666667],vertical,"(390.0, 762.0)",1.5,0.375,1,375.003,1,0.16,0.2
0,58,target,"[(1032, 756)]",[],[1],[0.5],vertical,"(390.0, 262.0)",0.9833333333333333,0.466,1,379.953,2,0.16,0.2
0,59,catch,"[(1024, 815)]",[],[1],[],vertical,"(390.0, 762.0)",1.6,nan,1,384.833,2,0.14,0.2
0,60,target,"[(1055, 807)]",[],[1],[0.48333333333333334],vertical,"(390.0, 262.0)",1.0,0.454,1,391.534,2,0.14,0.2
0,61,target,"[(1033, 758)]",[],[1],[],horizontal,"(890.0, 262.0)",,"('cti', 1.436)",0,397.01,0,0.16,0.2
0,62,target,"[(1029, 813)]",[],[1],[0.55],horizontal,"(890.0, 762.0)",0.7,0.516,1,401.872,1,0.16,0.2
0,63,target,"[(1022, 765)]",[],[1],[0.5833333333333334],horizontal,"(390.0, 762.0)",0.8833333333333333,0.544,1,406.585,1,0.16,0.2
0,64,catch,"[(1036, 762)]",[],[1],[],vertical,"(390.0, 762.0)",1.6,nan,1,410.909,1,0.16,0.2
0,65,target,"[(1055, 804)]",[],[1],[0.5833333333333334],horizontal,"(890.0, 262.0)",1.5166666666666666,0.541,1,415.571,2,0.16,0.2
0,66,target,"[(1033, 756)]",[],[1],[0.6333333333333333],vertical,"(390.0, 762.0)",0.5666666666666667,0.592,1,421.154,2,0.16,0.2
0,67,target,"[(1033, 770)]",[],[1],[0.48333333333333334],vertical,"(390.0, 262.0)",1.0,0.443,1,425.971,2,0.14,0.2
0,68,target,"[(1036, 750), (1036, 794)]",[],"[0, 1]",[0.5833333333333334],horizontal,"(890.0, 762.0)",1.0833333333333333,0.542,1,431.239,2,0.14,0.2
0,69,target,"[(1030, 808)]",[],[1],[0.5],horizontal,"(890.0, 762.0)",0.6666666666666666,0.457,1,437.645,3,0.14,0.2
0,70,target,"[(1033, 813)]",[],[1],[],vertical,"(390.0, 762.0)",,"('cti', 0.473)",0,443.806,0,0.16,0.2
0,71,target,"[(1035, 804)]",[],[1],[0.5],vertical,"(390.0, 262.0)",1.1333333333333333,0.464,1,447.75,1,0.16,0.2
0,72,target,"[(1035, 805)]",[],[1],[0.6166666666666667],horizontal,"(890.0, 262.0)",0.8,0.573,1,452.286,1,0.16,0.2
0,73,target,"[(1033, 790)]",[],[1],[0.7333333333333333],horizontal,"(390.0, 762.0)",1.2,0.691,1,457.353,1,0.16,0.2
0,74,target,"[(1050, 792)]",[],[1],[0.5833333333333334],vertical,"(890.0, 262.0)",1.4833333333333334,0.539,1,462.318,2,0.16,0.2
0,75,catch,"[(1034, 759)]",[],[1],[],horizontal,"(390.0, 262.0)",,"('cti', 1.545),nan",0,467.881,0,0.18,0.2
0,76,target,"[(1023, 791)]",[],[1],[0.5666666666666667],vertical,"(890.0, 262.0)",0.9,0.523,1,472.616,1,0.16,0.2
0,77,catch,"[(1033, 763)]",[],[1],[],vertical,"(390.0, 762.0)",1.6,nan,1,477.315,1,0.16,0.2
0,78,target,"[(1034, 788)]",[],[1],[0.5166666666666666],horizontal,"(390.0, 262.0)",0.7666666666666666,0.475,1,482.304,1,0.16,0.2
0,79,target,"[(1033, 765)]",[],[1],[0.5166666666666666],vertical,"(390.0, 262.0)",0.8333333333333334,0.474,1,487.287,2,0.16,0.2
0,80,target,"[(1040, 755)]",[],[1],[0.5],horizontal,"(890.0, 262.0)",1.1833333333333333,0.458,1,492.01,2,0.14,0.2
0,81,catch,"[(1037, 753), (1033, 809)]",[],"[0, 1]",[],vertical,"(890.0, 762.0)",1.6,nan,1,496.938,2,0.14,0.2
0,82,target,"[(1033, 762)]",[],[1],[0.5166666666666666],vertical,"(890.0, 762.0)",1.2166666666666666,0.475,1,503.604,2,0.14,0.2
0,83,target,"[(1037, 784)]",[],[1],[0.4666666666666667],vertical,"(390.0, 762.0)",0.6666666666666666,0.427,1,508.704,3,0.14,0.2
0,84,target,"[(1046, 765)]",[],[1],[0.48333333333333334],vertical,"(390.0, 262.0)",1.1,0.439,1,514.32,3,0.14,0.2
0,85,target,"[(1034, 763)]",[],[1],[0.5],horizontal,"(890.0, 262.0)",1.2833333333333332,0.462,1,519.854,3,0.14,0.2
0,86,target,"[(1046, 799)]",[],[1],[0.2833333333333333],vertical,"(390.0, 762.0)",1.5,0.243,1,525.871,3,0.12,0.2
0,87,target,"[(1049, 796)]",[],[1],[0.48333333333333334],vertical,"(390.0, 762.0)",1.2666666666666666,0.442,1,531.795,3,0.12,0.2
0,88,target,"[(1029, 754)]",[],[1],[0.5333333333333333],horizontal,"(890.0, 762.0)",1.2666666666666666,0.489,1,537.508,3,0.1,0.2
0,89,target,"[(1054, 795)]",[],[1],[0.4],vertical,"(390.0, 262.0)",1.25,0.367,1,543.37,3,0.1,0.2
0,90,catch,"[(1039, 772)]",[],[1],[],vertical,"(390.0, 762.0)",1.6,nan,1,549.352,3,0.1,0.2
0,91,target,"[(1036, 801)]",[],[1],[0.5666666666666667],vertical,"(390.0, 762.0)",1.1166666666666667,0.537,1,554.938,3,0.1,0.2
0,92,target,"[(1024, 745), (1029, 806)]",[],"[0, 1]",[],vertical,"(390.0, 262.0)",,"('cti', 1.278)",0,560.805,0,0.12,0.2
0,93,target,"[(1029, 798)]",[],[1],[0.48333333333333334],vertical,"(390.0, 762.0)",1.1833333333333333,0.439,1,566.381,1,0.12,0.2
0,94,target,"[(1032, 790)]",[],[1],[0.06666666666666667],horizontal,"(890.0, 762.0)",1.5833333333333333,0.037,0,571.221,0,0.12,0.2
0,95,target,"[(1020, 786)]",[],[1],[0.5166666666666666],vertical,"(390.0, 762.0)",0.8333333333333334,0.471,1,576.021,1,0.12,0.2
0,96,target,"[(1035, 777)]",[],[1],[0.55],vertical,"(890.0, 762.0)",0.6333333333333333,0.508,1,580.688,1,0.12,0.2
0,97,target,"[(1038, 759)]",[],[1],[0.5166666666666666],vertical,"(390.0, 262.0)",1.0833333333333333,0.476,1,584.738,1,0.1,0.2
0,98,target,"[(1030, 769)]",[],[1],[0.5],horizontal,"(390.0, 262.0)",0.5166666666666666,0.462,1,589.458,2,0.1,0.2
0,99,catch,"[(1037, 766)]",[],[1],[],horizontal,"(390.0, 262.0)",,"('cti', 1.571),nan",0,594.42,0,0.12,0.2
0,100,catch,"[(1019, 829)]",[],[1],[],horizontal,"(890.0, 762.0)",,"('cti', 1.55),nan",0,599.103,0,0.14,0.2
0,101,target,"[(999, 772), (1043, 786)]",[],"[0, 1]",[0.5833333333333334],horizontal,"(390.0, 762.0)",1.0,0.541,1,603.729,1,0.14,0.2
0,102,target,"[(1037, 769)]",[],[1],[0.5],vertical,"(890.0, 762.0)",1.2666666666666666,0.459,1,609.185,1,0.14,0.2
0,103,target,"[(1021, 764)]",[],[1],[0.55],vertical,"(390.0, 262.0)",0.5666666666666667,0.503,1,614.437,1,0.14,0.2
0,104,target,"[(1037, 778)]",[],[1],[0.3],vertical,"(390.0, 262.0)",1.3833333333333333,0.262,1,618.636,2,0.12,0.2
0,105,catch,"[(1057, 808)]",[],[1],[],horizontal,"(390.0, 262.0)",1.6,nan,1,624.038,2,0.12,0.2
0,106,target,"[(1033, 772)]",[],[1],[0.45],horizontal,"(390.0, 762.0)",1.3166666666666667,0.408,1,629.903,2,0.12,0.2
0,107,target,"[(1034, 771)]",[],[1],[0.5666666666666667],vertical,"(390.0, 262.0)",0.9,0.524,1,635.538,2,0.12,0.2
0,108,target,"[(1040, 766)]",[],[1],[0.5166666666666666],horizontal,"(390.0, 262.0)",1.05,0.479,1,640.971,3,0.12,0.2
0,109,target,"[(1034, 782)]",[],[1],[0.45],vertical,"(890.0, 762.0)",1.3833333333333333,0.41,1,646.384,3,0.12,0.2
0,110,target,"[(1035, 773)]",[],[1],[0.5],horizontal,"(890.0, 762.0)",0.8166666666666667,0.459,1,652.272,3,0.12,0.2
0,111,target,"[(1017, 799)]",[],[1],[0.4666666666666667],horizontal,"(890.0, 262.0)",1.05,0.426,1,657.638,3,0.1,0.2
0,112,target,"[(1035, 764)]",[],[1],[0.4666666666666667],vertical,"(890.0, 762.0)",1.3833333333333333,0.431,1,663.755,3,0.1,0.2
0,113,catch,"[(1033, 774)]",[],[1],[],horizontal,"(890.0, 262.0)",1.6,nan,1,669.321,3,0.1,0.2
0,114,target,"[(1037, 776)]",[],[1],[0.5666666666666667],vertical,"(390.0, 262.0)",0.6166666666666667,0.525,1,674.806,3,0.1,0.2
0,115,target,"[(1033, 783)]",[],[1],[0.75],horizontal,"(890.0, 262.0)",0.5333333333333333,nan,0,679.956,0,0.1,0.2
0,116,target,"[(1025, 794)]",[],[1],[0.5333333333333333],vertical,"(890.0, 762.0)",0.8833333333333333,0.496,1,684.356,1,0.1,0.2
0,117,target,"[(1049, 766)]",[],[1],[0.6833333333333333],vertical,"(890.0, 762.0)",0.5666666666666667,0.641,1,689.023,1,0.1,0.2
0,118,target,"[(1033, 770)]",[],[1],[0.5666666666666667],horizontal,"(390.0, 762.0)",0.65,0.527,1,693.409,1,0.1,0.2
0,119,target,"[(1023, 751), (1033, 806)]",[],"[0, 1]",[],horizontal,"(890.0, 262.0)",,"('cti', 1.294)",0,697.662,0,0.12,0.2
0,120,target,"[(1033, 785)]",[],[1],[0.6166666666666667],vertical,"(390.0, 762.0)",0.7333333333333333,0.574,1,703.588,1,0.1,0.2
0,121,target,"[(1030, 766)]",[],[1],[0.3833333333333333],vertical,"(890.0, 262.0)",1.2166666666666666,0.343,1,708.096,1,0.1,0.2
0,122,target,"[(1038, 744), (1028, 786)]",[],"[0, 1]",[0.18333333333333332],vertical,"(890.0, 762.0)",1.4666666666666666,0.15,0,713.105,0,0.1,0.2
0,123,target,"[(1033, 779)]",[],[1],[0.5666666666666667],horizontal,"(890.0, 762.0)",0.8,0.536,1,718.855,1,0.1,0.2
0,124,catch,"[(1025, 765)]",[],[1],[],horizontal,"(890.0, 762.0)",1.6,nan,1,723.722,1,0.1,0.2
0,125,target,"[(1033, 779)]",[],[1],[0.5666666666666667],horizontal,"(390.0, 262.0)",0.7166666666666667,0.525,1,728.255,1,0.08,0.1
0,126,target,"[(1025, 759)]",[],[1],[0.6666666666666666],vertical,"(890.0, 262.0)",1.0,0.624,1,732.561,2,0.08,0.1
0,127,target,"[(1035, 771)]",[],[1],[0.75],vertical,"(390.0, 262.0)",0.6833333333333333,nan,0,737.613,0,0.08,0.1
0,128,target,"[(1033, 805)]",[],[1],[0.21666666666666667],vertical,"(890.0, 262.0)",1.3833333333333333,0.183,0,741.922,0,0.08,0.1
0,129,target,"[(1035, 764)]",[],[1],[0.35],vertical,"(890.0, 762.0)",1.1166666666666667,0.308,1,746.721,1,0.08,0.1
0,130,target,"[(1025, 759)]",[],[1],[0.5],horizontal,"(890.0, 762.0)",0.8,0.456,1,751.722,1,0.08,0.1
0,131,target,"[(1037, 773)]",[],[1],[0.6666666666666666],vertical,"(390.0, 262.0)",0.95,0.63,1,755.906,1,0.08,0.1
0,132,target,"[(1030, 767)]",[],[1],[0.6666666666666666],vertical,"(390.0, 262.0)",1.0,0.623,1,761.164,2,0.08,0.1
0,133,target,"[(1040, 763)]",[],[1],[0.3833333333333333],horizontal,"(890.0, 762.0)",1.4333333333333333,0.345,1,766.622,2,0.08,0.1
0,134,target,"[(1032, 772)]",[],[1],[0.5166666666666666],horizontal,"(890.0, 762.0)",0.9,0.471,1,771.905,2,0.08,0.1
0,135,target,"[(1021, 766)]",[],[1],[0.5],vertical,"(890.0, 262.0)",1.2333333333333334,0.455,1,776.806,2,0.08,0.1
0,136,target,"[(1033, 774)]",[],[1],[0.6166666666666667],horizontal,"(890.0, 762.0)",0.6333333333333333,0.572,1,782.174,3,0.08,0.1
0,137,target,"[(1029, 775)]",[],[1],[0.55],vertical,"(890.0, 762.0)",0.8666666666666667,0.507,1,787.574,3,0.08,0.1
0,138,target,"[(1037, 757)]",[],[1],[0.5333333333333333],vertical,"(890.0, 762.0)",0.5166666666666666,0.488,1,792.967,3,0.08,0.1
0,139,target,"[(1039, 770)]",[],[1],[0.55],horizontal,"(890.0, 762.0)",1.1666666666666667,0.507,1,798.324,3,0.08,0.1
0,140,target,"[(1029, 766)]",[],[1],[0.5833333333333334],vertical,"(890.0, 762.0)",0.7333333333333333,0.542,1,804.214,3,0.08,0.1
0,141,target,"[(1026, 760)]",[],[1],[0.48333333333333334],vertical,"(890.0, 262.0)",1.0166666666666666,0.435,1,809.417,3,0.08,0.1
0,142,target,"[(1037, 782)]",[],[1],[0.3],vertical,"(890.0, 762.0)",1.3666666666666667,0.268,1,815.188,3,0.06,0.1
0,143,target,"[(1029, 762)]",[],[1],[0.5166666666666666],horizontal,"(390.0, 762.0)",0.7666666666666666,0.473,1,821.125,3,0.06,0.1
0,144,target,"[(1025, 768)]",[],[1],[0.6],horizontal,"(390.0, 762.0)",0.6333333333333333,0.561,1,826.605,3,0.06,0.1
0,145,target,"[(1017, 764)]",[],[1],[0.55],horizontal,"(390.0, 262.0)",0.9333333333333333,0.506,1,831.438,3,0.06,0.1
0,146,target,"[(1038, 770)]",[],[1],[0.3833333333333333],vertical,"(390.0, 262.0)",1.4,0.347,1,837.229,3,0.06,0.1
0,147,catch,"[(1030, 762)]",[],[1],[],vertical,"(890.0, 262.0)",1.6,nan,1,843.354,3,0.06,0.1
0,148,target,"[(1048, 785)]",[],[1],[0.5166666666666666],vertical,"(890.0, 762.0)",0.8166666666666667,0.475,1,848.938,3,0.06,0.1
0,149,catch,"[(1033, 761)]",[],[1],[],horizontal,"(890.0, 262.0)",1.6,nan,1,854.151,3,0.04,0.1
0,150,target,"[(1037, 765)]",[],[1],[0.31666666666666665],vertical,"(390.0, 762.0)",1.45,0.277,1,860.101,3,0.02,0.1
0,151,target,"[(1029, 778)]",[],[1],[0.31666666666666665],vertical,"(890.0, 262.0)",1.3833333333333333,0.275,1,865.884,3,0.02,0.1
0,152,catch,"[(1052, 769)]",[],[1],[],vertical,"(890.0, 762.0)",1.6,nan,1,871.807,3,0.02,0.1
0,153,target,"[(1029, 795)]",[],[1],[0.5333333333333333],vertical,"(890.0, 762.0)",0.75,0.495,1,877.78,3,0.02,0.1
0,154,target,"[(1032, 765)]",[],[1],[0.06666666666666667],horizontal,"(890.0, 762.0)",1.5666666666666667,0.035,0,882.688,0,0.02,0.1
0,155,target,"[(1036, 795)]",[],[1],[0.23333333333333334],horizontal,"(890.0, 762.0)",1.5666666666666667,0.2,1,887.456,1,0.02,0.1
0,156,target,"[(1021, 770)]",[],[1],[0.55],horizontal,"(390.0, 762.0)",0.9833333333333333,0.508,1,892.695,1,0.02,0.1
0,157,target,"[(1036, 782)]",[],[1],[0.55],horizontal,"(390.0, 762.0)",1.0,0.512,1,897.67,1,0.02,0.1
0,158,target,"[(1033, 794)]",[],[1],[0.5833333333333334],horizontal,"(390.0, 262.0)",0.8166666666666667,0.535,1,902.388,2,0.02,0.1
0,159,target,"[(1035, 769)]",[],[1],[0.5833333333333334],vertical,"(890.0, 262.0)",0.8333333333333334,0.542,1,907.503,2,0.02,0.1
0,160,target,"[(1028, 745), (1023, 779)]",[],"[0, 1]",[0.43333333333333335],vertical,"(390.0, 262.0)",1.1833333333333333,0.395,1,912.388,2,0.02,0.1
0,161,target,"[(1017, 750), (1032, 782)]",[],"[0, 1]",[0.65],horizontal,"(390.0, 262.0)",0.7333333333333333,0.603,1,919.2,2,0.02,0.1
0,162,target,"[(1037, 785)]",[],[1],[0.55],horizontal,"(390.0, 262.0)",1.1,0.509,1,925.312,3,0.02,0.1
0,163,target,"[(1038, 769)]",[],[1],[0.3333333333333333],horizontal,"(390.0, 262.0)",1.2833333333333332,0.291,1,930.852,3,0.02,0.1
0,164,target,"[(1035, 756)]",[],[1],[0.65],vertical,"(390.0, 262.0)",0.9666666666666667,0.605,1,936.503,3,0.02,0.1
0,165,target,"[(1033, 753), (1030, 802)]",[],"[0, 1]",[0.55],horizontal,"(390.0, 762.0)",0.5666666666666667,0.515,1,942.164,3,0.02,0.1
0,166,target,"[(1037, 785)]",[],[1],[0.23333333333333334],vertical,"(390.0, 762.0)",1.3833333333333333,0.203,1,948.767,3,0.02,0.1
0,167,catch,"[(1040, 769)]",[],[1],[],horizontal,"(890.0, 262.0)",,"('cti', 1.567),nan",0,954.256,0,0.04,0.1
0,168,target,"[(1024, 826)]",[],[1],[0.6666666666666666],vertical,"(890.0, 262.0)",1.0833333333333333,0.622,1,959.127,1,0.04,0.1
0,169,target,"[(1038, 762)]",[],[1],[0.5166666666666666],vertical,"(890.0, 262.0)",1.4833333333333334,0.475,1,966.524,1,0.02,0.1
0,170,target,"[(1038, 765)]",[],[1],[0.11666666666666667],vertical,"(390.0, 262.0)",1.6,0.081,0,971.34,0,0.02,0.1
0,171,target,"[(1028, 798)]",[],[1],[0.75],horizontal,"(390.0, 762.0)",1.05,nan,0,976.165,0,0.02,0.1
0,172,target,"[(1021, 790)]",[],[1],[0.5833333333333334],horizontal,"(390.0, 762.0)",0.95,0.539,1,980.855,1,0.02,0.1
0,173,target,"[(1055, 767)]",[],[1],[0.3333333333333333],horizontal,"(890.0, 262.0)",1.5166666666666666,0.297,1,985.77,1,0.02,0.1
0,174,target,"[(1042, 753), (1021, 805)]",[],"[0, 1]",[0.55],horizontal,"(890.0, 262.0)",0.6333333333333333,0.511,1,990.971,1,0.02,0.1
0,175,target,"[(1037, 777)]",[],[1],[0.48333333333333334],horizontal,"(390.0, 262.0)",0.7,0.444,1,996.218,2,0.02,0.1
0,176,target,"[(1033, 765)]",[],[1],[0.5833333333333334],horizontal,"(390.0, 762.0)",0.7333333333333333,0.542,1,1001.277,2,0.02,0.1
0,177,target,"[(1036, 783)]",[],[1],[0.65],vertical,"(390.0, 762.0)",1.0833333333333333,0.611,1,1006.38,2,0.02,0.1
0,178,target,"[(1038, 776)]",[],[1],[0.16666666666666666],vertical,"(890.0, 762.0)",1.5,0.132,0,1011.574,0,0.02,0.1
0,179,target,"[(1032, 783)]",[],[1],[0.5166666666666666],vertical,"(390.0, 762.0)",1.2,0.473,1,1016.394,1,0.02,0.1
0,180,target,"[(1024, 764)]",[],[1],[0.2],vertical,"(390.0, 262.0)",1.55,0.166,0,1021.048,0,0.02,0.1
0,181,target,"[(1044, 770)]",[],[1],[0.35],vertical,"(890.0, 762.0)",1.2166666666666666,0.311,1,1025.729,1,0.02,0.1
0,182,target,"[(1037, 773)]",[],[1],[0.45],horizontal,"(890.0, 262.0)",1.2,0.411,1,1030.827,1,0.02,0.1
0,183,target,"[(1021, 769)]",[],[1],[0.48333333333333334],vertical,"(390.0, 762.0)",0.8666666666666667,0.448,1,1035.96,1,0.02,0.1
0,184,target,"[(1037, 779)]",[],[1],[0.5333333333333333],vertical,"(390.0, 262.0)",1.1166666666666667,0.5,1,1040.477,2,0.02,0.1
0,185,target,"[(1016, 765)]",[],[1],[0.5333333333333333],horizontal,"(390.0, 762.0)",0.95,0.492,1,1045.62,2,0.02,0.1
0,186,target,"[(1017, 829)]",[],[1],[0.4],horizontal,"(890.0, 262.0)",1.55,0.361,1,1050.501,2,0.02,0.1
0,187,target,"[(1021, 770)]",[],[1],[0.5],horizontal,"(390.0, 762.0)",0.8666666666666667,0.459,1,1057.51,2,0.02,0.1
0,188,target,"[(1017, 765)]",[],[1],[0.5333333333333333],vertical,"(890.0, 262.0)",0.9833333333333333,0.492,1,1062.688,3,0.02,0.1
0,189,target,"[(992, 785), (1019, 805)]",[],"[0, 1]",[],vertical,"(390.0, 762.0)",,"('cti', 1.472)",0,1068.405,0,0.04,0.1
0,190,target,"[(1016, 789)]",[],[1],[0.75],horizontal,"(390.0, 262.0)",0.7333333333333333,nan,0,1080.27,0,0.04,0.1
0,191,target,"[(1018, 784)]",[],[1],[0.6],vertical,"(390.0, 262.0)",0.7833333333333333,0.565,1,1084.623,1,0.04,0.1
0,192,catch,"[(1032, 767)]",[],[1],[],horizontal,"(890.0, 262.0)",1.6,nan,1,1089.463,1,0.04,0.1
0,193,target,"[(1032, 761)]",[],[1],[0.3],vertical,"(390.0, 262.0)",1.3666666666666667,0.268,1,1094.207,1,0.04,0.1
0,194,target,"[(1035, 773)]",[],[1],[0.35],horizontal,"(890.0, 262.0)",1.5333333333333332,0.314,1,1099.221,2,0.04,0.1
0,195,target,"[(1035, 761)]",[],[1],[0.7166666666666667],horizontal,"(890.0, 762.0)",0.5,0.675,1,1104.623,2,0.04,0.1
0,196,catch,"[(1025, 767)]",[],[1],[],horizontal,"(390.0, 262.0)",1.6,nan,1,1109.587,2,0.04,0.1
0,197,target,"[(1033, 790)]",[],[1],[0.5],vertical,"(390.0, 762.0)",1.1333333333333333,0.46,1,1114.478,2,0.04,0.1
0,198,target,"[(1033, 781)]",[],[1],[0.45],horizontal,"(390.0, 762.0)",1.0666666666666667,0.407,1,1119.826,3,0.04,0.1
0,199,target,"[(1041, 770)]",[],[1],[0.5],vertical,"(890.0, 762.0)",0.7333333333333333,0.461,1,1125.789,3,0.04,0.1
0,200,target,"[(1033, 769)]",[],[1],[0.5333333333333333],vertical,"(890.0, 262.0)",0.7833333333333333,0.488,1,1131.162,3,0.04,0.1
0,201,target,"[(1056, 790)]",[],[1],[0.5333333333333333],horizontal,"(390.0, 762.0)",1.0666666666666667,0.489,1,1136.237,3,0.04,0.1
0,202,target,"[(1033, 774)]",[],[1],[0.1],horizontal,"(390.0, 262.0)",1.5166666666666666,0.069,0,1142.29,0,0.04,0.1
0,203,target,"[(1021, 766)]",[],[1],[0.36666666666666664],vertical,"(890.0, 762.0)",1.3333333333333333,0.329,1,1146.715,1,0.04,0.1
0,204,target,"[(1019, 761)]",[],[1],[0.5666666666666667],horizontal,"(390.0, 762.0)",1.2166666666666666,0.528,1,1151.533,1,0.04,0.1
0,205,target,"[(1036, 755)]",[],[1],[0.6666666666666666],horizontal,"(390.0, 262.0)",0.95,0.62,1,1156.706,1,0.04,0.1
0,206,target,"[(1035, 775)]",[],[1],[0.6333333333333333],vertical,"(390.0, 762.0)",0.7666666666666666,0.59,1,1161.739,2,0.04,0.1
0,207,target,"[(1041, 772)]",[],[1],[0.6],vertical,"(890.0, 762.0)",0.7166666666666667,0.553,1,1166.928,2,0.04,0.1
0,208,target,"[(1033, 773)]",[],[1],[0.5833333333333334],horizontal,"(890.0, 762.0)",0.5166666666666666,0.548,1,1172.005,2,0.04,0.1
0,209,target,"[(1013, 794)]",[],[1],[0.3],vertical,"(390.0, 262.0)",1.4666666666666666,0.262,1,1177.022,2,0.04,0.1
0,210,target,"[(1033, 769)]",[],[1],[0.5666666666666667],horizontal,"(890.0, 762.0)",0.7,0.523,1,1182.666,3,0.04,0.1
0,211,target,"[(1037, 790)]",[],[1],[0.11666666666666667],vertical,"(890.0, 262.0)",1.5166666666666666,0.083,0,1188.205,0,0.04,0.1
0,212,target,"[(1022, 769)]",[],[1],[0.5166666666666666],horizontal,"(390.0, 262.0)",0.8166666666666667,0.477,1,1192.976,1,0.04,0.1
0,213,catch,"[(1026, 773)]",[],[1],[],horizontal,"(890.0, 762.0)",1.6,nan,1,1197.569,1,0.04,0.1
0,214,target,"[(1021, 768)]",[],[1],[0.7],horizontal,"(390.0, 762.0)",0.95,0.657,1,1202.64,1,0.04,0.1
0,215,target,"[(1035, 767)]",[],[1],[0.4],horizontal,"(390.0, 762.0)",1.2,0.368,1,1207.383,2,0.04,0.1
0,216,catch,"[(1024, 769)]",[],[1],[],horizontal,"(390.0, 762.0)",,"('cti', 1.489),nan",0,1212.576,0,0.06,0.1
0,217,target,"[(1025, 776)]",[],[1],[0.36666666666666664],vertical,"(890.0, 762.0)",1.4666666666666666,0.329,1,1217.404,1,0.04,0.1
0,218,target,"[(1033, 764)]",[],[1],[0.65],horizontal,"(890.0, 762.0)",1.0,0.612,1,1222.123,1,0.04,0.1
0,219,target,"[(1037, 791)]",[],[1],[0.23333333333333334],horizontal,"(390.0, 262.0)",1.5166666666666666,0.197,0,1227.239,0,0.04,0.1
0,220,target,"[(1038, 796)]",[],[1],[0.5833333333333334],horizontal,"(890.0, 762.0)",0.85,0.541,1,1231.867,1,0.04,0.1
0,221,target,"[(1033, 792)]",[],[1],[0.4666666666666667],horizontal,"(890.0, 762.0)",1.2666666666666666,0.43,1,1236.722,1,0.04,0.1
0,222,catch,"[(1025, 762)]",[],[1],[],vertical,"(890.0, 762.0)",1.6,nan,1,1242.072,1,0.04,0.1
0,223,target,"[(1020, 769)]",[],[1],[0.4166666666666667],horizontal,"(390.0, 262.0)",1.2166666666666666,0.377,1,1247.045,2,0.04,0.1
0,224,target,"[(1034, 778)]",[],[1],[0.6166666666666667],vertical,"(890.0, 262.0)",0.7166666666666667,0.569,1,1252.623,2,0.04,0.1
0,225,target,"[(1036, 769)]",[],[1],[0.3833333333333333],horizontal,"(890.0, 762.0)",1.35,0.342,1,1257.622,2,0.04,0.1
0,226,target,"[(1021, 785)]",[],[1],[0.5],vertical,"(890.0, 262.0)",1.1,0.457,1,1263.205,2,0.04,0.1
0,227,catch,"[(1033, 790)]",[],[1],[],vertical,"(890.0, 262.0)",1.6,nan,1,1268.321,3,0.04,0.1
0,228,target,"[(1033, 763)]",[],[1],[0.6166666666666667],vertical,"(390.0, 762.0)",0.8166666666666667,0.572,1,1274.051,3,0.04,0.1
0,229,target,"[(1052, 775)]",[],[1],[0.5833333333333334],horizontal,"(890.0, 762.0)",1.3,0.536,1,1279.761,3,0.04,0.1
0,230,target,"[(1025, 782)]",[],[1],[0.75],horizontal,"(390.0, 762.0)",0.6,nan,0,1285.696,0,0.04,0.1
0,231,catch,"[(1001, 802), (1032, 813)]",[],"[0, 1]",[],horizontal,"(890.0, 262.0)",1.6,nan,1,1289.957,1,0.04,0.1
0,232,target,"[(1017, 803)]",[],[1],[0.55],horizontal,"(890.0, 762.0)",1.0,0.506,1,1295.951,1,0.04,0.1
0,233,catch,"[(1037, 763)]",[],[1],[],horizontal,"(890.0, 762.0)",,"('cti', 1.243),nan",0,1301.701,0,0.06,0.1
0,234,catch,"[(1037, 799)]",[],[1],[],vertical,"(390.0, 262.0)",1.6,nan,1,1306.198,1,0.06,0.1
0,235,target,"[(1027, 760)]",[],[1],[0.55],horizontal,"(390.0, 762.0)",0.95,0.507,1,1310.924,1,0.06,0.1
0,236,target,"[(1040, 769)]",[],[1],[0.6666666666666666],horizontal,"(390.0, 762.0)",0.9333333333333333,0.62,1,1315.724,1,0.06,0.1
0,237,catch,"[(1040, 785)]",[],[1],[],vertical,"(890.0, 762.0)",1.6,nan,1,1320.64,2,0.06,0.1
0,238,target,"[(1035, 779)]",[],[1],[0.6],vertical,"(890.0, 262.0)",0.65,0.558,1,1325.773,2,0.06,0.1
0,239,target,"[(1034, 775)]",[],[1],[0.5333333333333333],horizontal,"(890.0, 262.0)",0.5,0.495,1,1330.624,2,0.04,0.1
0,240,target,"[(1022, 752), (1029, 805)]",[],"[0, 1]",[0.5],horizontal,"(390.0, 762.0)",1.1666666666666667,0.456,1,1335.523,2,0.04,0.1
0,241,catch,"[(1022, 794)]",[],[1],[],horizontal,"(390.0, 262.0)",1.6,nan,1,1342.282,3,0.04,0.1
0,242,target,"[(1027, 780)]",[],[1],[0.5166666666666666],vertical,"(390.0, 762.0)",0.7666666666666666,0.478,1,1348.024,3,0.04,0.1
0,243,target,"[(1033, 775)]",[],[1],[0.75],horizontal,"(890.0, 762.0)",0.6,nan,0,1353.04,0,0.04,0.1
0,244,target,"[(1035, 805)]",[],[1],[0.3],vertical,"(390.0, 762.0)",1.5,0.265,1,1357.228,1,0.04,0.1
0,245,target,"[(1038, 755)]",[],[1],[0.36666666666666664],vertical,"(890.0, 262.0)",1.4666666666666666,0.33,1,1362.256,1,0.04,0.1
0,246,target,"[(1030, 775)]",[],[1],[0.65],horizontal,"(390.0, 262.0)",0.9166666666666666,0.606,1,1367.189,1,0.04,0.1
0,247,target,"[(1033, 765)]",[],[1],[0.5],horizontal,"(890.0, 762.0)",1.0333333333333332,0.461,1,1372.414,2,0.04,0.1
0,248,target,"[(1045, 794)]",[],[1],[0.35],horizontal,"(890.0, 762.0)",1.25,0.314,1,1378.073,2,0.04,0.1
0,249,target,"[(1034, 768)]",[],[1],[0.75],vertical,"(390.0, 762.0)",0.7166666666666667,nan,0,1383.706,0,0.04,0.1
0,250,target,"[(1015, 788)]",[],[1],[0.3833333333333333],vertical,"(890.0, 262.0)",1.3333333333333333,0.342,1,1388.018,1,0.04,0.1
0,251,target,"[(1046, 780)]",[],[1],[0.6],vertical,"(890.0, 762.0)",0.75,0.555,1,1393.715,1,0.04,0.1
0,252,target,"[(1052, 769)]",[],[1],[0.55],vertical,"(890.0, 262.0)",1.05,0.507,1,1398.224,1,0.04,0.1
0,253,target,"[(1032, 794)]",[],[1],[0.55],vertical,"(390.0, 262.0)",1.05,0.503,1,1402.773,2,0.04,0.1
0,254,target,"[(1047, 776)]",[],[1],[0.6],vertical,"(390.0, 262.0)",0.6833333333333333,0.555,1,1408.134,2,0.04,0.1
0,255,catch,"[(1033, 799)]",[],[1],[],vertical,"(390.0, 262.0)",1.6,nan,1,1413.111,2,0.04,0.1
0,256,target,"[(1033, 775)]",[],[1],[0.6333333333333333],horizontal,"(390.0, 762.0)",0.9833333333333333,0.585,1,1418.341,2,0.04,0.1
0,257,target,"[(1033, 771)]",[],[1],[0.5666666666666667],vertical,"(390.0, 762.0)",0.8833333333333333,0.524,1,1423.839,3,0.04,0.1
0,258,target,"[(1033, 763)]",[],[1],[0.5],vertical,"(890.0, 262.0)",0.7166666666666667,0.461,1,1429.64,3,0.04,0.1
0,259,catch,"[(1045, 777)]",[],[1],[],vertical,"(890.0, 262.0)",1.6,nan,1,1435.006,3,0.04,0.1
0,260,target,"[(1035, 805)]",[],[1],[0.4666666666666667],vertical,"(890.0, 262.0)",1.0166666666666666,0.428,1,1440.347,3,0.04,0.1
0,261,target,"[(1021, 779)]",[],[1],[0.11666666666666667],vertical,"(390.0, 262.0)",1.5166666666666666,0.086,0,1445.619,0,0.04,0.1
0,262,target,"[(1033, 798)]",[],[1],[0.5166666666666666],vertical,"(390.0, 262.0)",0.65,0.473,1,1450.412,1,0.04,0.1
0,263,target,"[(1047, 773)]",[],[1],[0.5166666666666666],horizontal,"(890.0, 762.0)",0.6833333333333333,0.49,1,1455.24,1,0.04,0.1
0,264,target,"[(1033, 790)]",[],[1],[0.31666666666666665],horizontal,"(890.0, 762.0)",1.2666666666666666,0.28,1,1459.84,1,0.04,0.1
0,265,target,"[(1035, 776)]",[],[1],[0.6166666666666667],horizontal,"(890.0, 762.0)",0.5666666666666667,0.58,1,1465.041,2,0.04,0.1
0,266,target,"[(1025, 768)]",[],[1],[0.15],horizontal,"(390.0, 762.0)",1.3833333333333333,0.118,0,1469.753,0,0.02,0.1
0,267,target,"[(1029, 814)]",[],[1],[0.5333333333333333],vertical,"(890.0, 262.0)",0.5,0.495,1,1474.657,1,0.02,0.1
0,268,target,"[(1034, 753), (1033, 775)]",[],"[0, 1]",[0.4666666666666667],horizontal,"(390.0, 762.0)",1.1,0.433,1,1478.757,1,0.02,0.1
0,269,target,"[(1033, 775)]",[],[1],[0.15],vertical,"(890.0, 762.0)",1.5333333333333332,0.116,0,1485.3,0,0.02,0.1
0,270,target,"[(1032, 790)]",[],[1],[0.3833333333333333],vertical,"(390.0, 762.0)",1.5166666666666666,0.348,1,1490.181,1,0.02,0.1
0,271,target,"[(1045, 778)]",[],[1],[0.7],horizontal,"(390.0, 262.0)",1.0833333333333333,0.655,1,1495.439,1,0.02,0.1
0,272,target,"[(1033, 805)]",[],[1],[0.5333333333333333],horizontal,"(390.0, 262.0)",0.5666666666666667,0.49,1,1500.373,1,0.02,0.1
0,273,target,"[(1035, 775)]",[],[1],[0.31666666666666665],horizontal,"(890.0, 762.0)",1.3333333333333333,0.275,1,1505.056,2,0.02,0.1
0,274,target,"[(1034, 773)]",[],[1],[0.43333333333333335],vertical,"(890.0, 262.0)",1.2666666666666666,0.394,1,1510.29,2,0.02,0.1
0,275,target,"[(1054, 779)]",[],[1],[0.3333333333333333],vertical,"(890.0, 262.0)",1.5,0.296,1,1516.023,2,0.02,0.1
0,276,target,"[(1037, 790)]",[],[1],[0.7],horizontal,"(390.0, 262.0)",0.8333333333333334,0.667,1,1521.772,2,0.02,0.1
0,277,target,"[(1033, 766)]",[],[1],[],horizontal,"(890.0, 262.0)",,"('cti', 1.389)",0,1527.074,0,0.04,0.1
0,278,catch,"[(1022, 795)]",[],[1],[],horizontal,"(890.0, 262.0)",1.6,nan,1,1531.89,1,0.04,0.1
0,279,target,"[(1033, 762)]",[],[1],[],horizontal,"(390.0, 262.0)",,"('cti', 1.556)",0,1537.074,0,0.06,0.1
0,280,target,"[(1024, 785)]",[],[1],[0.5666666666666667],horizontal,"(390.0, 262.0)",1.05,0.53,1,1541.56,1,0.06,0.1
0,281,target,"[(1033, 769)]",[],[1],[0.55],vertical,"(890.0, 262.0)",1.2166666666666666,0.513,1,1547.057,1,0.06,0.1
0,282,target,"[(1038, 759)]",[],[1],[0.26666666666666666],vertical,"(890.0, 762.0)",1.4833333333333334,0.229,1,1551.688,1,0.06,0.1
0,283,target,"[(1037, 753), (1033, 803)]",[],"[0, 1]",[0.48333333333333334],vertical,"(890.0, 262.0)",0.8,0.44,1,1556.907,2,0.04,0.1
0,284,target,"[(1021, 763)]",[],[1],[0.7],horizontal,"(390.0, 762.0)",0.9,0.667,1,1562.953,2,0.04,0.1
0,285,target,"[(1036, 752), (1021, 781)]",[],"[0, 1]",[0.3],horizontal,"(890.0, 262.0)",0.8666666666666667,0.262,1,1568.426,2,0.04,0.1
0,286,target,"[(1037, 765)]",[],[1],[0.7],horizontal,"(390.0, 262.0)",0.5333333333333333,0.673,1,1574.857,2,0.04,0.1
0,287,target,"[(1044, 773)]",[],[1],[0.55],horizontal,"(890.0, 762.0)",0.8666666666666667,0.51,1,1579.708,3,0.04,0.1
0,288,target,"[(1058, 770)]",[],[1],[0.26666666666666666],vertical,"(890.0, 262.0)",1.6,0.228,1,1585.123,3,0.04,0.1
0,289,target,"[(1034, 768)]",[],[1],[0.15],horizontal,"(890.0, 262.0)",1.4833333333333334,0.119,0,1590.709,0,0.04,0.1
0,290,target,"[(1033, 768)]",[],[1],[0.21666666666666667],horizontal,"(890.0, 762.0)",1.3166666666666667,0.182,0,1595.408,0,0.04,0.1
0,291,catch,"[(1041, 775)]",[],[1],[],vertical,"(890.0, 762.0)",1.6,nan,1,1600.274,1,0.04,0.1
0,292,catch,"[(1022, 781)]",[],[1],[],vertical,"(390.0, 262.0)",1.6,nan,1,1605.23,1,0.04,0.1
0,293,target,"[(1021, 787)]",[],[1],[0.5666666666666667],horizontal,"(890.0, 762.0)",0.85,0.533,1,1610.075,1,0.04,0.1
0,294,target,"[(1017, 776)]",[],[1],[0.21666666666666667],horizontal,"(890.0, 262.0)",1.4,0.178,0,1615.024,0,0.04,0.1
0,295,target,"[(1022, 791)]",[],[1],[0.6333333333333333],vertical,"(390.0, 762.0)",0.6,0.593,1,1619.825,1,0.04,0.1
0,296,target,"[(1034, 774)]",[],[1],[0.55],vertical,"(890.0, 262.0)",1.0333333333333332,0.508,1,1624.191,1,0.04,0.1
0,297,target,"[(1033, 772)]",[],[1],[0.4666666666666667],vertical,"(890.0, 762.0)",1.25,0.425,1,1628.763,1,0.04,0.1
0,298,target,"[(1033, 769)]",[],[1],[0.13333333333333333],vertical,"(390.0, 262.0)",1.5833333333333333,0.101,0,1633.524,0,0.04,0.1
0,299,catch,"[(1034, 800)]",[],[1],[],vertical,"(890.0, 262.0)",,"('cti', 1.525),nan",0,1638.152,0,0.06,0.1
0,300,target,"[(1033, 803)]",[],[1],[0.5],horizontal,"(390.0, 762.0)",1.4,0.458,1,1643.002,1,0.06,0.1
0,301,target,"[(1039, 779)]",[],[1],[0.4],horizontal,"(390.0, 762.0)",1.2833333333333332,0.363,1,1648.14,1,0.06,0.1
0,302,target,"[(1035, 799)]",[],[1],[0.6333333333333333],vertical,"(390.0, 762.0)",1.1333333333333333,0.589,1,1653.2,1,0.06,0.1
0,303,target,"[(1032, 773)]",[],[1],[0.6166666666666667],vertical,"(890.0, 262.0)",0.6166666666666667,0.576,1,1658.09,2,0.06,0.1
0,304,target,"[(1021, 777)]",[],[1],[0.3333333333333333],horizontal,"(390.0, 762.0)",1.4,0.301,1,1663.285,2,0.06,0.1
0,305,target,"[(1033, 800)]",[],[1],[0.55],horizontal,"(390.0, 262.0)",0.6,0.506,1,1668.858,2,0.06,0.1
0,306,target,"[(1047, 800)]",[],[1],[0.6],horizontal,"(390.0, 262.0)",1.0833333333333333,0.556,1,1673.83,2,0.06,0.1
0,307,target,"[(1033, 780)]",[],[1],[0.7333333333333333],horizontal,"(390.0, 762.0)",0.6,0.686,1,1679.361,3,0.06,0.1
0,308,target,"[(1033, 773)]",[],[1],[0.4666666666666667],horizontal,"(890.0, 262.0)",1.1833333333333333,0.426,1,1684.867,3,0.06,0.1
0,309,target,"[(1033, 771)]",[],[1],[0.55],horizontal,"(890.0, 762.0)",0.7333333333333333,0.513,1,1690.607,3,0.06,0.1
0,310,target,"[(1033, 768)]",[],[1],[0.31666666666666665],horizontal,"(890.0, 262.0)",1.5166666666666666,0.279,1,1695.703,3,0.06,0.1
0,311,target,"[(1022, 759)]",[],[1],[0.55],vertical,"(890.0, 262.0)",1.0166666666666666,0.508,1,1701.326,3,0.06,0.1
0,312,target,"[(1024, 760)]",[],[1],[0.5666666666666667],vertical,"(390.0, 762.0)",0.7166666666666667,0.523,1,1706.674,3,0.06,0.1
0,313,target,"[(1038, 794)]",[],[1],[0.5166666666666666],horizontal,"(890.0, 762.0)",0.7333333333333333,0.473,1,1712.101,3,0.06,0.1
0,314,target,"[(1033, 761)]",[],[1],[0.5],vertical,"(390.0, 762.0)",1.2833333333333332,0.462,1,1717.924,3,0.06,0.1
0,315,target,"[(1021, 776)]",[],[1],[0.43333333333333335],vertical,"(390.0, 762.0)",1.2333333333333334,0.395,1,1723.312,3,0.06,0.1
0,316,target,"[(1021, 760)]",[],[1],[0.5833333333333334],horizontal,"(890.0, 262.0)",0.5333333333333333,0.539,1,1729.134,3,0.06,0.1
0,317,target,"[(1025, 799)]",[],[1],[0.6166666666666667],vertical,"(890.0, 262.0)",1.1833333333333333,0.575,1,1734.279,3,0.06,0.1
0,318,target,"[(995, 812), (1034, 846)]",[],"[0, 1]",[0.75],horizontal,"(890.0, 762.0)",0.7166666666666667,nan,0,1743.608,0,0.06,0.1
0,319,target,"[(1015, 821)]",[],[1],[0.31666666666666665],horizontal,"(390.0, 762.0)",1.45,0.279,1,1750.479,1,0.06,0.1
0,320,catch,"[(1015, 784)]",[],[1],[],horizontal,"(390.0, 262.0)",1.6,nan,1,1755.794,1,0.06,0.1
0,321,target,"[(1037, 791)]",[],[1],[0.6666666666666666],horizontal,"(890.0, 262.0)",0.5333333333333333,0.627,1,1760.577,1,0.06,0.1
0,322,target,"[(1038, 792)]",[],[1],[0.5666666666666667],vertical,"(390.0, 762.0)",1.0166666666666666,0.532,1,1765.339,2,0.06,0.1
0,323,target,"[(1030, 792)]",[],[1],[0.6166666666666667],horizontal,"(890.0, 762.0)",0.6,0.577,1,1770.436,2,0.06,0.1
0,324,target,"[(1029, 808)]",[],[1],[0.6333333333333333],horizontal,"(390.0, 762.0)",0.8166666666666667,0.589,1,1775.657,2,0.06,0.1
0,325,target,"[(1029, 791)]",[],[1],[0.6333333333333333],horizontal,"(390.0, 762.0)",0.5,0.587,1,1780.871,2,0.06,0.1
0,326,target,"[(1033, 793)]",[],[1],[0.5833333333333334],vertical,"(890.0, 762.0)",0.5833333333333334,0.551,1,1785.991,3,0.06,0.1
0,327,target,"[(1033, 785)]",[],[1],[0.48333333333333334],horizontal,"(890.0, 762.0)",0.7,0.448,1,1791.592,3,0.04,0.1
0,328,target,"[(1025, 762)]",[],[1],[0.5333333333333333],vertical,"(890.0, 262.0)",0.5,0.491,1,1796.857,3,0.04,0.1
0,329,target,"[(1030, 778)]",[],[1],[0.55],vertical,"(890.0, 262.0)",0.5166666666666666,0.512,1,1801.924,3,0.02,0.1
0,330,target,"[(1037, 785)]",[],[1],[0.45],vertical,"(890.0, 262.0)",1.05,0.414,1,1807.408,3,0.02,0.1
0,331,target,"[(1037, 784)]",[],[1],[0.06666666666666667],vertical,"(890.0, 262.0)",1.4833333333333334,0.036,0,1812.846,0,0.02,0.1
0,332,target,"[(1041, 770)]",[],[1],[0.55],horizontal,"(890.0, 262.0)",1.3166666666666667,0.507,1,1817.702,1,0.02,0.1
0,333,target,"[(1037, 771)]",[],[1],[0.5333333333333333],vertical,"(890.0, 262.0)",0.5666666666666667,0.499,1,1822.674,1,0.02,0.1
0,334,catch,"[(1038, 766)]",[],[1],[],horizontal,"(890.0, 262.0)",1.6,nan,1,1826.958,1,0.02,0.1
0,335,target,"[(1038, 766)]",[],[1],[0.65],horizontal,"(890.0, 262.0)",0.9333333333333333,0.612,1,1832.225,2,0.02,0.1
0,336,target,"[(1041, 786)]",[],[1],[0.5166666666666666],vertical,"(890.0, 262.0)",0.5166666666666666,0.478,1,1837.631,2,0.02,0.1
0,337,target,"[(1036, 770)]",[],[1],[0.5666666666666667],vertical,"(390.0, 762.0)",0.7833333333333333,0.525,1,1842.209,2,0.02,0.1
0,338,catch,"[(1029, 768)]",[],[1],[],vertical,"(390.0, 262.0)",1.6,nan,1,1847.03,2,0.02,0.1
0,339,target,"[(1033, 777)]",[],[1],[0.5333333333333333],vertical,"(390.0, 262.0)",1.0333333333333332,0.5,1,1852.307,3,0.02,0.1
0,340,target,"[(1040, 772)]",[],[1],[0.6333333333333333],horizontal,"(390.0, 762.0)",0.8333333333333334,0.592,1,1857.856,3,0.02,0.1
0,341,target,"[(1037, 791)]",[],[1],[0.5],vertical,"(390.0, 762.0)",0.7833333333333333,0.464,1,1863.373,3,0.02,0.1
0,342,target,"[(1028, 783)]",[],[1],[0.5166666666666666],vertical,"(390.0, 762.0)",0.9666666666666667,0.477,1,1868.742,3,0.02,0.1
0,343,catch,"[(1026, 766)]",[],[1],[],horizontal,"(390.0, 262.0)",,"('cti', 1.576),nan",0,1874.626,0,0.04,0.1
0,344,target,"[(1035, 774)]",[],[1],[0.43333333333333335],horizontal,"(390.0, 262.0)",1.3166666666666667,0.402,1,1879.476,1,0.04,0.1
0,345,target,"[(1025, 767)]",[],[1],[0.5166666666666666],vertical,"(390.0, 262.0)",1.2,0.481,1,1884.642,1,0.04,0.1
0,346,catch,"[(1055, 771)]",[],[1],[],vertical,"(390.0, 262.0)",1.6,nan,1,1889.292,1,0.04,0.1
0,347,target,"[(1021, 760)]",[],[1],[0.5],horizontal,"(890.0, 262.0)",0.8,0.462,1,1894.104,2,0.04,0.1
0,348,target,"[(1055, 775)]",[],[1],[0.5666666666666667],horizontal,"(890.0, 762.0)",0.6333333333333333,0.525,1,1899.485,2,0.04,0.1
0,349,target,"[(1021, 769)]",[],[1],[0.4666666666666667],vertical,"(390.0, 262.0)",0.75,0.423,1,1904.209,2,0.02,0.1
0,350,target,"[(1029, 765)]",[],[1],[0.25],horizontal,"(890.0, 762.0)",1.5,0.217,1,1909.191,2,0.02,0.1
0,351,target,"[(1024, 774)]",[],[1],[0.36666666666666664],vertical,"(890.0, 762.0)",1.2333333333333334,0.323,1,1914.774,3,0.02,0.1
0,352,target,"[(1034, 771)]",[],[1],[0.5166666666666666],vertical,"(390.0, 262.0)",1.1666666666666667,0.478,1,1920.561,3,0.02,0.1
0,353,catch,"[(1041, 776)]",[],[1],[],vertical,"(890.0, 762.0)",1.6,nan,1,1926.195,3,0.02,0.1
0,354,target,"[(1034, 774)]",[],[1],[0.6666666666666666],vertical,"(890.0, 762.0)",0.9833333333333333,0.623,1,1931.608,3,0.02,0.1
0,355,catch,"[(1020, 761)]",[],[1],[],horizontal,"(890.0, 262.0)",1.6,nan,1,1937.208,3,0.02,0.1
0,356,target,"[(1032, 760)]",[],[1],[0.48333333333333334],vertical,"(890.0, 762.0)",0.9,0.445,1,1942.943,3,0.02,0.1
0,357,catch,"[(1030, 767)]",[],[1],[],vertical,"(890.0, 262.0)",1.6,nan,1,1948.579,3,0.02,0.1
0,358,target,"[(1038, 780)]",[],[1],[0.5833333333333334],vertical,"(390.0, 262.0)",0.7833333333333333,0.544,1,1954.04,3,0.02,0.1
0,359,target,"[(1019, 761)]",[],[1],[0.15],horizontal,"(890.0, 762.0)",1.4333333333333333,0.115,0,1959.208,0,0.02,0.1
0,360,target,"[(1019, 769)]",[],[1],[0.6666666666666666],vertical,"(390.0, 762.0)",0.5,0.619,1,1963.709,1,0.02,0.1
0,361,target,"[(1020, 755)]",[],[1],[0.13333333333333333],horizontal,"(890.0, 762.0)",1.5333333333333332,0.103,0,1968.03,0,0.02,0.1
0,362,target,"[(1033, 772)]",[],[1],[0.75],horizontal,"(390.0, 262.0)",1.3333333333333333,nan,0,1972.991,0,0.02,0.1
0,363,target,"[(1026, 800)]",[],[1],[0.26666666666666666],vertical,"(890.0, 262.0)",1.4,0.232,1,1977.875,1,0.02,0.1
0,364,catch,"[(1031, 786)]",[],[1],[],horizontal,"(390.0, 762.0)",1.6,nan,1,1983.709,1,0.02,0.1
0,365,target,"[(1029, 799)]",[],[1],[0.3833333333333333],vertical,"(390.0, 762.0)",1.2166666666666666,0.347,1,1988.377,1,0.02,0.1
0,366,target,"[(1033, 788)]",[],[1],[0.06666666666666667],vertical,"(890.0, 262.0)",1.5166666666666666,0.036,0,1993.628,0,0.02,0.1
0,367,target,"[(1019, 798)]",[],[1],[0.5333333333333333],vertical,"(890.0, 762.0)",0.5666666666666667,0.486,1,1998.355,1,0.02,0.1
0,368,target,"[(1028, 801)]",[],[1],[0.75],horizontal,"(890.0, 262.0)",1.1166666666666667,nan,0,2002.555,0,0.02,0.1
0,369,target,"[(1025, 792)]",[],[1],[0.5833333333333334],vertical,"(390.0, 262.0)",1.25,0.538,1,2007.274,1,0.02,0.1
0,370,target,"[(1029, 763)]",[],[1],[0.5],vertical,"(890.0, 262.0)",0.8666666666666667,0.461,1,2012.283,1,0.02,0.1
0,371,target,"[(1052, 767)]",[],[1],[0.5],vertical,"(390.0, 762.0)",1.2833333333333332,0.46,1,2017.074,1,0.02,0.1
0,372,target,"[(1030, 778)]",[],[1],[0.5333333333333333],vertical,"(890.0, 762.0)",0.65,0.49,1,2022.346,2,0.02,0.1
0,373,catch,"[(1030, 771)]",[],[1],[],vertical,"(390.0, 762.0)",1.6,"('cti', 1.577),nan",0,2027.208,0,0.04,0.1
0,374,target,"[(1029, 787)]",[],[1],[0.5166666666666666],horizontal,"(390.0, 262.0)",0.75,0.479,1,2031.808,1,0.04,0.1
0,375,catch,"[(1031, 761)]",[],[1],[0.03333333333333333],vertical,"(890.0, 762.0)",1.6,"0.019,nan",0,2036.374,0,0.06,0.1
0,376,target,"[(1001, 821), (1028, 834)]",[],"[0, 1]",[0.5333333333333333],horizontal,"(390.0, 762.0)",0.8833333333333333,0.494,1,2040.808,1,0.06,0.1
0,377,target,"[(1032, 791)]",[],[1],[0.5],horizontal,"(890.0, 262.0)",0.9,0.457,1,2087.279,1,0.06,0.1
0,378,target,"[(1025, 782)]",[],[1],[0.26666666666666666],vertical,"(390.0, 262.0)",1.4,0.229,1,2092.163,1,0.06,0.1
0,379,target,"[(1022, 760)]",[],[1],[0.3333333333333333],vertical,"(390.0, 262.0)",1.4333333333333333,0.293,1,2097.332,2,0.06,0.1
0,380,catch,"[(1044, 784)]",[],[1],[],vertical,"(390.0, 762.0)",,"('cti', 1.556),nan",0,2103.121,0,0.08,0.1
0,381,target,"[(999, 829), (1028, 820)]",[],"[0, 1]",[0.75],horizontal,"(390.0, 762.0)",0.9333333333333333,nan,0,2108.008,0,0.08,0.1
0,382,target,"[(1001, 820), (1036, 822)]",[],"[0, 1]",[0.6833333333333333],horizontal,"(890.0, 262.0)",1.1833333333333333,0.64,1,2127.144,1,0.08,0.1
0,383,target,"[(1026, 787)]",[],[1],[0.6333333333333333],vertical,"(890.0, 762.0)",1.1,0.59,1,2142.647,1,0.08,0.1
0,384,target,"[(1029, 781)]",[],[1],[0.5],vertical,"(390.0, 762.0)",1.2333333333333334,0.463,1,2147.699,1,0.08,0.1
0,385,target,"[(1029, 814)]",[],[1],[0.6],vertical,"(890.0, 262.0)",1.0166666666666666,0.558,1,2152.647,2,0.08,0.1
0,386,target,"[(1029, 770)]",[],[1],[0.5],horizontal,"(890.0, 762.0)",0.8166666666666667,0.458,1,2158.561,2,0.08,0.1
0,387,target,"[(1034, 780)]",[],[1],[0.5666666666666667],vertical,"(890.0, 262.0)",0.6166666666666667,0.521,1,2163.373,2,0.08,0.1
0,388,target,"[(1033, 782)]",[],[1],[0.2833333333333333],horizontal,"(890.0, 762.0)",1.4,0.245,1,2168.409,2,0.08,0.1
0,389,target,"[(1040, 781)]",[],[1],[0.31666666666666665],horizontal,"(390.0, 762.0)",0.7,0.28,1,2173.582,3,0.08,0.1
0,390,catch,"[(1025, 775)]",[],[1],[],vertical,"(890.0, 762.0)",1.6,nan,1,2179.174,3,0.08,0.1
0,391,target,"[(1033, 785)]",[],[1],[0.5666666666666667],horizontal,"(890.0, 262.0)",1.1333333333333333,0.529,1,2184.78,3,0.08,0.1
0,392,target,"[(1054, 790)]",[],[1],[0.6],vertical,"(890.0, 762.0)",0.7,0.559,1,2190.83,3,0.08,0.1
0,393,target,"[(1041, 778)]",[],[1],[0.55],horizontal,"(390.0, 262.0)",1.0666666666666667,0.507,1,2196.41,3,0.06,0.1
0,394,target,"[(1009, 785)]",[],[1],[0.45],vertical,"(390.0, 262.0)",1.0833333333333333,0.41,1,2201.815,3,0.06,0.1
0,395,target,"[(1041, 783)]",[],[1],[0.5666666666666667],horizontal,"(890.0, 762.0)",0.75,0.524,1,2208.416,3,0.06,0.1
0,396,target,"[(1032, 773)]",[],[1],[0.36666666666666664],horizontal,"(390.0, 762.0)",1.15,0.33,1,2214.121,3,0.06,0.1
0,397,target,"[(1041, 775)]",[],[1],[0.6666666666666666],vertical,"(890.0, 262.0)",0.6166666666666667,0.622,1,2220.137,3,0.06,0.1
0,398,target,"[(1050, 793)]",[],[1],[0.5666666666666667],vertical,"(390.0, 762.0)",0.5333333333333333,0.526,1,2225.193,3,0.06,0.1
0,399,target,"[(1057, 781)]",[],[1],[0.6666666666666666],horizontal,"(390.0, 762.0)",0.5,0.62,1,2230.309,3,0.06,0.1
0,400,target,"[(1038, 776)]",[],[1],[0.4666666666666667],vertical,"(890.0, 262.0)",0.7,0.431,1,2235.773,3,0.06,0.1
0,401,target,"[(1045, 788)]",[],[1],[0.6833333333333333],vertical,"(890.0, 762.0)",0.5666666666666667,0.634,1,2241.309,3,0.06,0.1
0,402,target,"[(1037, 773)]",[],[1],[0.6166666666666667],horizontal,"(390.0, 762.0)",0.9333333333333333,0.577,1,2246.593,3,0.06,0.1
0,403,target,"[(1037, 768)]","[(1022, 805)]",[1],[0.15],horizontal,"(390.0, 262.0)",,"('bar', 0.166)",0,2252.526,0,0.06,0.1
0,404,target,"[(1040, 828)]",[],[1],[0.6166666666666667],horizontal,"(890.0, 762.0)",0.8833333333333333,0.571,1,2255.219,1,0.06,0.1
0,405,target,"[(1055, 804)]",[],[1],[0.26666666666666666],vertical,"(390.0, 762.0)",1.3333333333333333,0.23,1,2260.125,1,0.06,0.1
0,406,target,"[(1047, 783)]",[],[1],[0.55],horizontal,"(390.0, 762.0)",0.6666666666666666,0.509,1,2265.375,1,0.06,0.1
0,407,target,"[(1052, 781)]",[],[1],[0.5166666666666666],vertical,"(390.0, 262.0)",0.6333333333333333,0.473,1,2269.833,2,0.06,0.1
0,408,target,"[(1049, 773)]",[],[1],[0.15],horizontal,"(890.0, 262.0)",1.55,0.119,0,2274.843,0,0.06,0.1
0,409,target,"[(1037, 773)]",[],[1],[0.45],vertical,"(890.0, 262.0)",1.25,0.41,1,2279.524,1,0.06,0.1
0,410,target,"[(1037, 767)]",[],[1],[0.3333333333333333],vertical,"(390.0, 262.0)",1.25,0.295,1,2284.776,1,0.06,0.1
0,411,target,"[(1033, 759)]",[],[1],[0.4666666666666667],vertical,"(390.0, 262.0)",0.6,0.427,1,2289.658,1,0.06,0.1
0,412,target,"[(1045, 764)]",[],[1],[0.05],horizontal,"(390.0, 762.0)",1.55,0.018,0,2294.226,0,0.06,0.1
0,413,target,"[(1026, 794)]",[],[1],[],vertical,"(890.0, 762.0)",,"('cti', 1.512)",0,2298.943,0,0.08,0.1
0,414,target,"[(1046, 795)]",[],[1],[0.5833333333333334],horizontal,"(390.0, 762.0)",0.5,0.545,1,2303.944,1,0.08,0.1
0,415,target,"[(1057, 803)]",[],[1],[0.43333333333333335],horizontal,"(390.0, 262.0)",1.35,0.392,1,2308.017,1,0.08,0.1
0,416,target,"[(1037, 760)]",[],[1],[0.5666666666666667],vertical,"(890.0, 762.0)",0.7,0.524,1,2313.094,1,0.08,0.1
0,417,target,"[(1033, 781)]",[],[1],[0.55],vertical,"(890.0, 262.0)",1.1,0.512,1,2317.427,2,0.08,0.1
0,418,target,"[(1035, 806)]",[],[1],[0.55],horizontal,"(390.0, 262.0)",0.5333333333333333,0.507,1,2322.845,2,0.08,0.1
0,419,target,"[(1053, 776)]",[],[1],[0.5833333333333334],vertical,"(390.0, 262.0)",1.0166666666666666,0.539,1,2328.025,2,0.08,0.1
0,420,target,"[(1036, 787)]",[],[1],[0.7166666666666667],horizontal,"(890.0, 762.0)",0.5666666666666667,0.671,1,2333.296,2,0.08,0.1
0,421,target,"[(1037, 775)]",[],[1],[0.48333333333333334],vertical,"(390.0, 262.0)",0.9833333333333333,0.446,1,2338.177,3,0.08,0.1
0,422,target,"[(1033, 765)]",[],[1],[0.5833333333333334],horizontal,"(890.0, 262.0)",0.8333333333333334,0.545,1,2343.986,3,0.08,0.1
0,423,target,"[(1037, 768)]",[],[1],[0.6666666666666666],horizontal,"(890.0, 762.0)",0.5166666666666666,0.624,1,2349.71,3,0.06,0.1
0,424,target,"[(1043, 767)]",[],[1],[0.55],horizontal,"(890.0, 762.0)",1.1333333333333333,0.519,1,2355.167,3,0.06,0.1
0,425,target,"[(1035, 784)]",[],[1],[0.75],horizontal,"(390.0, 262.0)",0.7,nan,0,2361.309,0,0.04,0.1
0,426,target,"[(1017, 803)]",[],[1],[0.6],vertical,"(390.0, 762.0)",0.8666666666666667,0.567,1,2365.776,1,0.04,0.1
0,427,catch,"[(1036, 768)]",[],[1],[],vertical,"(890.0, 262.0)",,"('cti', 1.364),nan",0,2370.243,0,0.06,0.1
0,428,target,"[(1030, 817)]",[],[1],[0.75],horizontal,"(390.0, 262.0)",0.55,nan,0,2374.826,0,0.06,0.1
0,429,target,"[(1024, 809)]",[],[1],[0.5],horizontal,"(390.0, 762.0)",1.2,0.459,1,2384.758,1,0.06,0.1
0,430,target,"[(1032, 786)]",[],[1],[0.3],horizontal,"(390.0, 762.0)",1.4333333333333333,0.267,1,2390.048,1,0.04,0.1
0,431,target,"[(1034, 767)]",[],[1],[0.15],horizontal,"(890.0, 262.0)",1.5,0.118,0,2395.153,0,0.04,0.1
0,432,target,"[(1013, 816)]",[],[1],[0.4166666666666667],vertical,"(390.0, 262.0)",1.5166666666666666,0.38,1,2400.243,1,0.04,0.1
0,433,target,"[(1017, 785)]",[],[1],[0.48333333333333334],vertical,"(390.0, 262.0)",1.3833333333333333,0.442,1,2409.891,1,0.04,0.1
0,434,target,"[(1028, 780)]",[],[1],[0.6333333333333333],horizontal,"(890.0, 762.0)",0.6,0.611,1,2414.729,1,0.04,0.1
0,435,target,"[(1025, 807)]",[],[1],[0.65],vertical,"(890.0, 262.0)",1.05,0.603,1,2419.677,2,0.04,0.1
0,436,target,"[(1041, 786)]",[],[1],[0.65],horizontal,"(390.0, 262.0)",0.9833333333333333,0.604,1,2425.47,2,0.04,0.1
0,437,target,"[(1056, 783)]",[],[1],[0.5166666666666666],vertical,"(890.0, 762.0)",0.8833333333333333,0.481,1,2430.574,2,0.04,0.1
0,438,target,"[(1038, 790)]",[],[1],[0.3333333333333333],vertical,"(890.0, 762.0)",1.35,0.3,1,2435.738,2,0.04,0.1
0,439,target,"[(1029, 771)]",[],[1],[0.4],vertical,"(890.0, 762.0)",1.3833333333333333,0.363,1,2440.832,3,0.04,0.1
0,440,target,"[(1033, 766)]",[],[1],[0.6333333333333333],horizontal,"(390.0, 762.0)",0.8166666666666667,0.593,1,2446.719,3,0.04,0.1
0,441,target,"[(1038, 779)]",[],[1],[0.75],horizontal,"(390.0, 262.0)",0.55,nan,0,2452.328,0,0.04,0.1
0,442,target,"[(1021, 785)]",[],[1],[0.5666666666666667],vertical,"(390.0, 262.0)",0.6333333333333333,0.53,1,2456.476,1,0.04,0.1
0,443,target,"[(1038, 787)]",[],[1],[0.7],horizontal,"(890.0, 762.0)",1.15,0.652,1,2460.658,1,0.04,0.1
0,444,target,"[(1037, 786)]",[],[1],[0.3],vertical,"(390.0, 762.0)",1.4,0.268,1,2465.944,1,0.04,0.1
0,445,target,"[(1034, 763)]",[],[1],[0.6],horizontal,"(390.0, 762.0)",0.7333333333333333,0.556,1,2470.967,2,0.04,0.1
0,446,target,"[(1034, 772)]",[],[1],[0.1],vertical,"(390.0, 762.0)",1.5333333333333332,0.069,0,2475.522,0,0.04,0.1
0,447,target,"[(1017, 780)]",[],[1],[0.5666666666666667],vertical,"(390.0, 762.0)",1.2333333333333334,0.519,1,2480.497,1,0.04,0.1
0,448,target,"[(1053, 756)]",[],[1],[0.7],vertical,"(390.0, 762.0)",1.0,0.659,1,2485.848,1,0.04,0.1
0,449,target,"[(1043, 770)]",[],[1],[0.6333333333333333],horizontal,"(390.0, 262.0)",0.9666666666666667,0.595,1,2491.176,1,0.04,0.1
0,450,target,"[(1033, 776)]",[],[1],[0.75],horizontal,"(390.0, 762.0)",0.6666666666666666,nan,0,2496.476,0,0.04,0.1
0,451,target,"[(1033, 807)]",[],[1],[0.5],vertical,"(890.0, 262.0)",1.15,0.461,1,2500.814,1,0.04,0.1
0,452,target,"[(1035, 777)]",[],[1],[0.43333333333333335],horizontal,"(890.0, 262.0)",1.3166666666666667,0.395,1,2507.093,1,0.04,0.1
0,453,target,"[(1049, 780)]",[],[1],[0.7],vertical,"(890.0, 762.0)",1.0833333333333333,0.659,1,2512.553,1,0.04,0.1
0,454,target,"[(1050, 787)]",[],[1],[0.65],vertical,"(390.0, 762.0)",1.0666666666666667,0.612,1,2517.809,2,0.04,0.1
0,455,target,"[(1030, 779)]",[],[1],[0.5666666666666667],horizontal,"(390.0, 262.0)",0.85,0.523,1,2523.403,2,0.04,0.1
0,456,target,"[(1033, 781)]",[],[1],[0.5333333333333333],horizontal,"(390.0, 262.0)",1.2333333333333334,0.49,1,2528.894,2,0.04,0.1
0,457,target,"[(1035, 760)]",[],[1],[0.36666666666666664],vertical,"(390.0, 762.0)",1.4166666666666667,0.332,1,2534.06,2,0.04,0.1
0,458,target,"[(1055, 778)]",[],[1],[0.6833333333333333],horizontal,"(390.0, 262.0)",1.1166666666666667,0.644,1,2539.377,3,0.04,0.1
0,459,catch,"[(1037, 762)]",[],[1],[],vertical,"(390.0, 262.0)",1.6,nan,1,2545.21,3,0.04,0.1
0,460,target,"[(1026, 806)]",[],[1],[0.75],horizontal,"(390.0, 262.0)",0.8666666666666667,nan,0,2550.927,0,0.04,0.1
0,461,target,"[(1019, 802)]",[],[1],[0.6],vertical,"(890.0, 262.0)",0.9166666666666666,0.558,1,2555.693,1,0.04,0.1
0,462,target,"[(1033, 783)]",[],[1],[0.48333333333333334],vertical,"(890.0, 262.0)",0.8166666666666667,0.443,1,2560.356,1,0.04,0.1
0,463,target,"[(1029, 769)]",[],[1],[0.55],horizontal,"(890.0, 762.0)",0.6666666666666666,0.512,1,2565.315,1,0.02,0.1
0,464,catch,"[(1033, 779)]",[],[1],[],vertical,"(390.0, 762.0)",1.6,nan,1,2569.943,2,0.02,0.1
0,465,target,"[(1029, 776)]",[],[1],[0.6],horizontal,"(890.0, 762.0)",1.1166666666666667,0.559,1,2575.553,2,0.02,0.1
0,466,target,"[(1042, 776)]",[],[1],[0.48333333333333334],horizontal,"(890.0, 262.0)",1.4166666666666667,0.441,1,2581.165,2,0.02,0.1
0,467,target,"[(1039, 781)]",[],[1],[0.5333333333333333],horizontal,"(890.0, 262.0)",0.8,0.498,1,2586.56,2,0.02,0.1
0,468,target,"[(1035, 773)]",[],[1],[0.6],vertical,"(890.0, 262.0)",1.2833333333333332,0.556,1,2591.694,3,0.02,0.1
0,469,target,"[(1043, 780)]",[],[1],[0.5333333333333333],vertical,"(890.0, 262.0)",1.0666666666666667,0.493,1,2597.818,3,0.02,0.1
0,470,target,"[(1037, 802)]",[],[1],[0.5833333333333334],vertical,"(890.0, 762.0)",0.5833333333333334,0.542,1,2603.347,3,0.02,0.1
0,471,target,"[(1038, 776)]",[],[1],[0.13333333333333333],horizontal,"(890.0, 262.0)",1.2833333333333332,0.1,0,2608.643,0,0.02,0.1
0,472,target,"[(1044, 783)]",[],[1],[0.5333333333333333],horizontal,"(890.0, 762.0)",0.9833333333333333,0.494,1,2613.282,1,0.02,0.1
0,473,target,"[(1057, 775)]",[],[1],[0.7],horizontal,"(890.0, 762.0)",1.2166666666666666,0.66,1,2618.321,1,0.02,0.1
0,474,target,"[(1032, 783)]",[],[1],[0.5166666666666666],vertical,"(890.0, 762.0)",1.45,0.475,1,2623.343,1,0.02,0.1
0,475,target,"[(1037, 772)]",[],[1],[0.6666666666666666],horizontal,"(390.0, 262.0)",0.9833333333333333,0.622,1,2628.56,2,0.02,0.1
0,476,target,"[(1038, 786)]",[],[1],[0.6],vertical,"(890.0, 762.0)",1.05,0.563,1,2633.484,2,0.02,0.1
0,477,target,"[(1037, 751), (1025, 805)]",[],"[0, 1]",[0.7],horizontal,"(890.0, 762.0)",1.0,0.652,1,2639.01,2,0.0,0.1
0,478,target,"[(1038, 789)]",[],[1],[0.5666666666666667],horizontal,"(890.0, 762.0)",1.3333333333333333,0.526,1,2645.478,2,0.0,0.1
0,479,target,"[(1037, 774)]",[],[1],[0.4166666666666667],vertical,"(390.0, 762.0)",1.25,0.381,1,2651.527,3,0.0,0.1
0,480,target,"[(1052, 772)]",[],[1],[0.45],horizontal,"(390.0, 262.0)",1.4,0.412,1,2657.21,3,0.0,0.1
0,481,target,"[(1034, 768)]",[],[1],[0.18333333333333332],horizontal,"(890.0, 262.0)",1.4666666666666666,0.149,0,2662.843,0,0.0,0.1
0,482,target,"[(1034, 772)]",[],[1],[0.08333333333333333],vertical,"(890.0, 762.0)",1.5333333333333332,0.053,0,2667.117,0,0.0,0.1
0,483,catch,"[(1022, 785)]",[],[1],[],horizontal,"(390.0, 762.0)",1.6,nan,1,2671.942,1,0.0,0.1
0,484,target,"[(1021, 763)]",[],[1],[0.5333333333333333],horizontal,"(390.0, 262.0)",1.25,0.491,1,2677.079,1,0.0,0.1
0,485,target,"[(1029, 767)]",[],[1],[0.5166666666666666],vertical,"(390.0, 762.0)",0.95,0.479,1,2682.394,1,0.0,0.1
0,486,target,"[(1039, 769)]",[],[1],[0.5],vertical,"(890.0, 262.0)",0.7833333333333333,0.463,1,2686.977,2,0.0,0.1
0,487,target,"[(1042, 771)]",[],[1],[0.5],horizontal,"(390.0, 762.0)",1.2666666666666666,0.463,1,2692.321,2,0.0,0.1
0,488,target,"[(1037, 767)]",[],[1],[0.18333333333333332],horizontal,"(390.0, 262.0)",1.3,0.149,0,2697.867,0,0.0,0.1
0,489,target,"[(1037, 796)]",[],[1],[0.6],vertical,"(890.0, 262.0)",0.9666666666666667,0.556,1,2702.859,1,0.0,0.1
0,490,catch,"[(1033, 795)]",[],[1],[],horizontal,"(890.0, 262.0)",1.6,nan,1,2999.878,1,0.0,0.1
0,491,target,"[(1038, 795)]",[],[1],[0.31666666666666665],horizontal,"(390.0, 762.0)",1.4833333333333334,0.281,1,3005.041,1,0.0,0.1
0,492,target,"[(1037, 785)]",[],[1],[0.5833333333333334],horizontal,"(390.0, 762.0)",1.1666666666666667,0.54,1,3010.026,2,0.0,0.1
0,493,target,"[(1037, 778)]",[],[1],[0.55],vertical,"(890.0, 762.0)",1.2833333333333332,0.513,1,3015.373,2,0.0,0.1
0,494,target,"[(1035, 795)]",[],[1],[0.5666666666666667],vertical,"(390.0, 262.0)",0.8166666666666667,0.534,1,3020.609,2,0.0,0.1
0,495,target,"[(1036, 795)]",[],[1],[0.5833333333333334],vertical,"(890.0, 262.0)",1.1833333333333333,0.548,1,3025.357,2,0.0,0.1
0,496,target,"[(1037, 796)]",[],[1],[0.5166666666666666],vertical,"(390.0, 762.0)",0.9166666666666666,0.479,1,3030.836,3,0.0,0.1
0,497,target,"[(1032, 774)]",[],[1],[0.6166666666666667],vertical,"(390.0, 762.0)",0.7,0.572,1,3036.756,3,0.0,0.1
0,498,target,"[(1044, 795)]",[],[1],[0.25],vertical,"(390.0, 262.0)",1.3333333333333333,0.217,1,3041.847,3,0.0,0.1
0,499,target,"[(1037, 786)]",[],[1],[0.5166666666666666],horizontal,"(890.0, 262.0)",0.75,0.476,1,3047.861,3,0.0,0.1
0,500,target,"[(1024, 774)]",[],[1],[0.55],horizontal,"(890.0, 762.0)",0.5,0.507,1,3053.035,3,0.0,0.1
0,501,target,"[(1035, 769)]",[],[1],[0.5666666666666667],horizontal,"(390.0, 762.0)",0.9666666666666667,0.525,1,3058.245,3,0.0,0.1
0,502,target,"[(1037, 772)]",[],[1],[0.31666666666666665],horizontal,"(390.0, 762.0)",1.0666666666666667,0.279,1,3063.928,3,0.0,0.1
0,503,target,"[(1044, 765)]",[],[1],[0.45],horizontal,"(890.0, 262.0)",1.1833333333333333,0.415,1,3069.798,3,0.0,0.1
0,504,target,"[(1042, 769)]",[],[1],[0.65],vertical,"(890.0, 262.0)",0.6666666666666666,0.618,1,3075.436,3,0.0,0.1
0,505,target,"[(1045, 785)]",[],[1],[0.5666666666666667],horizontal,"(890.0, 262.0)",1.1333333333333333,0.527,1,3080.712,3,0.0,0.1
0,506,target,"[(1037, 769)]",[],[1],[0.45],horizontal,"(390.0, 262.0)",1.5333333333333332,0.408,1,3086.428,3,0.0,0.1
0,507,target,"[(1037, 758)]",[],[1],[0.55],horizontal,"(890.0, 762.0)",1.1833333333333333,0.507,1,3092.182,3,0.0,0.1
0,508,catch,"[(1033, 780)]",[],[1],[],vertical,"(390.0, 762.0)",1.6,nan,1,3097.577,3,0.0,0.1
0,509,target,"[(1037, 790)]",[],[1],[0.5],horizontal,"(390.0, 262.0)",1.1,0.463,1,3102.957,3,0.0,0.1
0,510,target,"[(1018, 770)]",[],[1],[0.55],vertical,"(890.0, 762.0)",0.8,0.51,1,3108.929,3,0.0,0.1
0,511,target,"[(1053, 783)]",[],[1],[0.3833333333333333],horizontal,"(390.0, 262.0)",1.3,0.344,1,3114.414,3,0.0,0.1
0,512,target,"[(1035, 777)]",[],[1],[0.6],horizontal,"(890.0, 262.0)",0.5,0.556,1,3120.063,3,0.0,0.1
0,513,target,"[(1034, 764)]",[],[1],[0.5833333333333334],horizontal,"(890.0, 762.0)",0.55,0.539,1,3124.913,3,0.0,0.1
0,514,catch,"[(1033, 761)]",[],[1],[],horizontal,"(890.0, 762.0)",1.6,nan,1,3130.066,3,0.0,0.1
0,515,target,"[(1038, 757)]",[],[1],[0.75],vertical,"(890.0, 762.0)",1.5833333333333333,"('cti', 1.569),nan",0,3135.796,0,0.02,0.1
0,516,target,"[(1037, 802)]",[],[1],[0.55],horizontal,"(390.0, 762.0)",0.8,0.503,1,3141.493,1,0.02,0.1
0,517,target,"[(1054, 791)]",[],[1],[0.1],vertical,"(390.0, 262.0)",1.5666666666666667,0.066,0,3146.313,0,0.02,0.1
0,518,target,"[(1033, 799)]",[],[1],[0.5833333333333334],vertical,"(890.0, 262.0)",0.7166666666666667,0.542,1,3150.979,1,0.02,0.1
0,519,target,"[(1040, 769)]",[],[1],[0.3],horizontal,"(890.0, 262.0)",1.5166666666666666,0.267,1,3155.496,1,0.02,0.1
0,520,target,"[(1005, 746), (1015, 804)]",[],"[0, 1]",[0.3],horizontal,"(890.0, 262.0)",1.15,0.262,1,3160.663,1,0.02,0.1
0,521,target,"[(1044, 795)]",[],[1],[0.6],vertical,"(390.0, 762.0)",1.1,0.555,1,3166.379,2,0.02,0.1
0,522,target,"[(1037, 799)]",[],[1],[0.5],horizontal,"(890.0, 262.0)",1.0,0.458,1,3171.743,2,0.02,0.1
0,523,target,"[(1033, 800)]",[],[1],[0.5833333333333334],vertical,"(390.0, 262.0)",0.6166666666666667,0.54,1,3176.802,2,0.02,0.1
0,524,target,"[(1038, 766)]",[],[1],[0.5166666666666666],vertical,"(890.0, 262.0)",0.8166666666666667,0.478,1,3181.713,2,0.02,0.1
0,525,target,"[(1033, 761)]",[],[1],[0.6],vertical,"(390.0, 262.0)",0.6666666666666666,0.562,1,3187.079,3,0.02,0.1
0,526,target,"[(1034, 780)]",[],[1],[0.5666666666666667],horizontal,"(390.0, 762.0)",1.05,0.519,1,3192.812,3,0.02,0.1
0,527,target,"[(1037, 778)]",[],[1],[0.65],horizontal,"(890.0, 262.0)",0.6,0.604,1,3198.761,3,0.02,0.1
0,528,catch,"[(1021, 781)]",[],[1],[],horizontal,"(890.0, 262.0)",,"('cti', 1.563),nan",0,3204.499,0,0.04,0.1
0,529,target,"[(1036, 756)]",[],[1],[0.6166666666666667],horizontal,"(390.0, 762.0)",1.5666666666666667,0.575,1,3209.328,1,0.04,0.1
0,530,target,"[(1037, 769)]",[],[1],[0.5333333333333333],vertical,"(890.0, 762.0)",0.9166666666666666,0.494,1,3214.329,1,0.04,0.1
0,531,target,"[(1045, 766)]",[],[1],[0.5666666666666667],vertical,"(890.0, 262.0)",0.8166666666666667,0.525,1,3219.257,1,0.04,0.1
0,532,target,"[(1055, 790)]",[],[1],[0.23333333333333334],horizontal,"(890.0, 762.0)",1.4333333333333333,0.195,0,3223.962,0,0.04,0.1
0,533,target,"[(1037, 774)]",[],[1],[0.65],vertical,"(390.0, 762.0)",0.6833333333333333,0.605,1,3228.846,1,0.04,0.1
0,534,target,"[(1035, 795)]",[],[1],[0.5666666666666667],horizontal,"(890.0, 762.0)",1.0666666666666667,0.518,1,3233.346,1,0.04,0.1
0,535,target,"[(1056, 782)]",[],[1],[0.75],horizontal,"(390.0, 262.0)",1.5166666666666666,"('cti', 1.513),nan",0,3238.378,0,0.06,0.1
0,536,target,"[(1017, 833)]",[],[1],[0.55],horizontal,"(890.0, 262.0)",1.2666666666666666,0.503,1,3243.978,1,0.06,0.1
0,537,target,"[(1054, 777)]",[],[1],[0.4666666666666667],vertical,"(890.0, 262.0)",1.55,0.421,1,3252.845,1,0.06,0.1
0,538,target,"[(1033, 765)]",[],[1],[0.6166666666666667],vertical,"(390.0, 762.0)",0.7333333333333333,0.573,1,3257.728,1,0.06,0.1
0,539,target,"[(1035, 778)]",[],[1],[0.48333333333333334],horizontal,"(890.0, 262.0)",1.15,0.442,1,3262.556,2,0.06,0.1
0,540,target,"[(1055, 750), (1041, 804)]",[],"[0, 1]",[0.5833333333333334],vertical,"(890.0, 262.0)",0.6,0.539,1,3267.879,2,0.06,0.1
0,541,target,"[(1038, 776)]",[],[1],"[0.75, 0.75]",horizontal,"(390.0, 262.0)",0.9666666666666667,"0.695,nan",0,3272.623,0,0.06,0.1
0,542,catch,"[(1025, 783)]",[],[1],[],vertical,"(390.0, 762.0)",1.6,nan,1,3277.482,1,0.06,0.1
0,543,target,"[(1037, 756)]",[],[1],[0.5833333333333334],horizontal,"(390.0, 762.0)",0.5666666666666667,0.534,1,3282.413,1,0.06,0.1
0,544,target,"[(1057, 773)]",[],[1],[0.18333333333333332],horizontal,"(390.0, 262.0)",1.4666666666666666,0.151,0,3286.945,0,0.06,0.1
0,545,target,"[(1036, 777)]",[],[1],[0.5666666666666667],vertical,"(890.0, 262.0)",0.7666666666666666,0.522,1,3292.093,1,0.06,0.1
0,546,target,"[(1037, 761)]",[],[1],[0.5833333333333334],vertical,"(890.0, 262.0)",0.95,0.543,1,3296.773,1,0.06,0.1
0,547,target,"[(1033, 770)]",[],[1],[0.5333333333333333],horizontal,"(890.0, 762.0)",0.8,0.491,1,3301.512,1,0.06,0.1
0,548,target,"[(1028, 760)]",[],[1],[0.36666666666666664],vertical,"(890.0, 262.0)",1.5,0.33,1,3306.178,2,0.06,0.1
0,549,target,"[(1037, 770)]",[],[1],[],horizontal,"(390.0, 262.0)",,"('cti', 1.154)",0,3311.785,0,0.08,0.1
0,550,target,"[(1033, 791)]",[],[1],[0.5333333333333333],vertical,"(890.0, 762.0)",1.25,0.495,1,3316.246,1,0.08,0.1
0,551,target,"[(1060, 772)]",[],[1],[0.55],vertical,"(890.0, 762.0)",0.8,0.506,1,3321.385,1,0.08,0.1
0,552,catch,"[(1035, 785)]",[],[1],[],horizontal,"(890.0, 762.0)",1.6,nan,1,3325.552,1,0.08,0.1
0,553,target,"[(1036, 768)]",[],[1],[0.48333333333333334],vertical,"(890.0, 262.0)",1.3166666666666667,0.442,1,3330.143,2,0.08,0.1
0,554,target,"[(1045, 770)]",[],[1],[0.6166666666666667],horizontal,"(390.0, 762.0)",0.5,0.575,1,3335.548,2,0.08,0.1
0,555,target,"[(1037, 769)]",[],[1],[0.43333333333333335],vertical,"(390.0, 762.0)",1.1833333333333333,0.389,1,3340.411,2,0.08,0.1
0,556,target,"[(1038, 792)]",[],[1],[0.4],horizontal,"(390.0, 762.0)",1.2833333333333332,0.363,1,3345.792,2,0.08,0.1
0,557,catch,"[(1055, 773)]",[],[1],[],vertical,"(890.0, 762.0)",1.6,nan,1,3351.096,3,0.08,0.1
0,558,target,"[(1037, 782)]",[],[1],[0.55],vertical,"(890.0, 762.0)",0.9333333333333333,0.508,1,3357.013,3,0.08,0.1
0,559,target,"[(1055, 764)]",[],[1],[0.3333333333333333],vertical,"(390.0, 762.0)",1.1833333333333333,0.297,1,3362.602,3,0.08,0.1
0,560,target,"[(1049, 789)]",[],[1],[0.5666666666666667],horizontal,"(890.0, 762.0)",0.95,0.523,1,3368.57,3,0.08,0.1
0,561,target,"[(1056, 777)]",[],[1],[0.75],horizontal,"(390.0, 762.0)",0.6333333333333333,nan,0,3374.43,0,0.08,0.1
0,562,target,"[(1017, 783)]",[],[1],[0.5666666666666667],vertical,"(390.0, 262.0)",1.1666666666666667,0.524,1,3378.517,1,0.08,0.1
0,563,target,"[(1044, 760)]",[],[1],[0.5333333333333333],horizontal,"(890.0, 262.0)",0.8166666666666667,0.49,1,3383.727,1,0.08,0.1
0,564,target,"[(1025, 756)]",[],[1],[0.55],vertical,"(890.0, 262.0)",0.55,0.507,1,3388.03,1,0.08,0.1
0,565,target,"[(1037, 764)]",[],[1],[0.48333333333333334],horizontal,"(390.0, 762.0)",1.2,0.439,1,3392.296,2,0.06,0.1
0,566,target,"[(1037, 769)]",[],[1],[0.6],vertical,"(890.0, 262.0)",1.0333333333333332,0.555,1,3397.329,2,0.06,0.1
0,567,target,"[(1041, 768)]",[],[1],[0.5333333333333333],horizontal,"(890.0, 262.0)",0.6166666666666667,0.489,1,3402.668,2,0.06,0.1
0,568,target,"[(1040, 783)]",[],[1],[0.16666666666666666],vertical,"(390.0, 762.0)",1.25,0.131,0,3407.864,0,0.06,0.1
0,569,target,"[(1029, 764)]",[],[1],[0.6],horizontal,"(890.0, 762.0)",0.6833333333333333,0.56,1,3412.329,1,0.06,0.1
0,570,target,"[(1035, 777)]",[],[1],[0.48333333333333334],horizontal,"(890.0, 262.0)",0.6333333333333333,0.44,1,3417.083,1,0.06,0.1
0,571,target,"[(1033, 769)]",[],[1],[0.48333333333333334],vertical,"(390.0, 262.0)",0.8,0.44,1,3421.38,1,0.06,0.1
0,572,target,"[(1046, 771)]",[],[1],[0.6333333333333333],vertical,"(390.0, 262.0)",0.9,0.585,1,3426.097,2,0.06,0.1
0,573,target,"[(1048, 769)]",[],[1],[0.21666666666666667],horizontal,"(890.0, 762.0)",1.5,0.184,0,3431.599,0,0.06,0.1
0,574,target,"[(1054, 797)]",[],[1],[0.5833333333333334],vertical,"(390.0, 262.0)",0.5,0.541,1,3436.665,1,0.06,0.1
0,575,target,"[(1045, 760)]",[],[1],[0.6666666666666666],vertical,"(390.0, 262.0)",0.5166666666666666,0.619,1,3441.247,1,0.06,0.1
0,576,target,"[(1040, 763)]",[],[1],[0.3],vertical,"(390.0, 262.0)",1.55,0.263,1,3446.097,1,0.06,0.1
0,577,catch,"[(1019, 744), (1022, 800)]",[],"[0, 1]",[],horizontal,"(890.0, 262.0)",1.6,nan,1,3451.363,2,0.06,0.1
0,578,target,"[(1037, 766)]",[],[1],[0.5333333333333333],vertical,"(890.0, 762.0)",1.15,0.495,1,3458.03,2,0.04,0.1
0,579,target,"[(1036, 762)]",[],[1],[0.1],horizontal,"(890.0, 262.0)",1.4333333333333333,0.071,0,3463.162,0,0.04,0.1
0,580,target,"[(1028, 780)]",[],[1],[0.4166666666666667],horizontal,"(390.0, 262.0)",1.3666666666666667,0.379,1,3467.912,1,0.04,0.1
0,581,target,"[(1037, 766)]",[],[1],[0.6666666666666666],horizontal,"(390.0, 262.0)",0.8333333333333334,0.627,1,3472.846,1,0.04,0.1
0,582,target,"[(1029, 760)]",[],[1],[0.5],vertical,"(890.0, 262.0)",0.85,0.457,1,3477.708,1,0.04,0.1
0,583,target,"[(1057, 794)]",[],[1],[0.7],horizontal,"(390.0, 262.0)",1.0,0.661,1,3482.131,2,0.04,0.1
0,584,target,"[(1057, 769)]",[],[1],[0.43333333333333335],horizontal,"(390.0, 762.0)",0.6833333333333333,0.392,1,3487.727,2,0.04,0.1
0,585,target,"[(1058, 771)]",[],[1],[0.4166666666666667],vertical,"(890.0, 262.0)",1.2666666666666666,0.38,1,3492.508,2,0.02,0.1
0,586,target,"[(1043, 782)]",[],[1],[0.5833333333333334],horizontal,"(390.0, 262.0)",0.5166666666666666,0.55,1,3498.061,2,0.02,0.1
0,587,catch,"[(1055, 769)]",[],[1],[],vertical,"(890.0, 762.0)",1.6,nan,1,3503.272,3,0.02,0.1
0,588,target,"[(1037, 772)]",[],[1],[0.75],horizontal,"(390.0, 262.0)",1.1166666666666667,nan,0,3509.07,0,0.02,0.1
0,589,target,"[(1022, 792)]",[],[1],[],vertical,"(390.0, 262.0)",,"('cti', 1.165)",0,3513.512,0,0.04,0.1
0,590,target,"[(1013, 789)]",[],[1],[0.3833333333333333],vertical,"(390.0, 762.0)",1.4666666666666666,0.345,1,3517.661,1,0.04,0.1
0,591,target,"[(1058, 765)]",[],[1],[0.6333333333333333],horizontal,"(390.0, 262.0)",1.0666666666666667,0.585,1,3523.071,1,0.04,0.1
0,592,target,"[(1041, 784)]",[],[1],[0.75],horizontal,"(390.0, 262.0)",0.6833333333333333,nan,0,3527.942,0,0.04,0.1
0,593,target,"[(1032, 783)]",[],[1],[0.6833333333333333],horizontal,"(890.0, 762.0)",1.0333333333333332,0.645,1,3532.734,1,0.04,0.1
0,594,target,"[(1056, 774)]",[],[1],[0.6166666666666667],vertical,"(390.0, 262.0)",0.8666666666666667,0.576,1,3537.615,1,0.04,0.1
0,595,target,"[(1053, 751), (1013, 795)]",[],"[0, 1]",[0.5333333333333333],vertical,"(390.0, 762.0)",0.8666666666666667,0.488,1,3542.138,1,0.04,0.1
0,596,target,"[(1047, 771)]",[],[1],[0.15],horizontal,"(390.0, 262.0)",1.5833333333333333,0.116,0,3547.425,0,0.04,0.1
0,597,target,"[(1035, 812)]",[],[1],[0.5666666666666667],vertical,"(890.0, 262.0)",0.55,0.525,1,3552.291,1,0.04,0.1
0,598,target,"[(1052, 810)]",[],[1],[0.4666666666666667],horizontal,"(390.0, 262.0)",1.1833333333333333,0.43,1,3789.909,1,0.04,0.1
0,599,target,"[(1046, 772)]",[],[1],[0.1],horizontal,"(390.0, 262.0)",1.5666666666666667,0.066,0,3794.61,0,0.02,0.1
0,600,target,"[(1043, 800)]",[],[1],[0.3833333333333333],vertical,"(890.0, 762.0)",1.4,0.346,1,3799.543,1,0.02,0.1
0,601,target,"[(1041, 765)]",[],[1],[0.5333333333333333],horizontal,"(390.0, 262.0)",1.1166666666666667,0.491,1,3804.695,1,0.02,0.1
0,602,target,"[(1046, 765)]",[],[1],[0.4666666666666667],horizontal,"(890.0, 262.0)",0.5833333333333334,0.427,1,3809.713,1,0.02,0.1
0,603,target,"[(1054, 773)]",[],[1],[0.5],vertical,"(390.0, 762.0)",0.9833333333333333,0.462,1,3814.287,2,0.02,0.1
0,604,target,"[(1057, 795)]",[],[1],[0.48333333333333334],horizontal,"(890.0, 262.0)",0.9,0.445,1,3819.89,2,0.02,0.1
0,605,target,"[(1034, 777)]",[],[1],[0.6166666666666667],vertical,"(390.0, 762.0)",0.5333333333333333,0.573,1,3824.782,2,0.02,0.1
0,606,target,"[(1051, 769)]",[],[1],[0.4666666666666667],horizontal,"(890.0, 262.0)",1.2666666666666666,0.426,1,3829.93,2,0.02,0.1
0,607,target,"[(1025, 754)]",[],[1],[0.6],horizontal,"(890.0, 762.0)",1.5166666666666666,0.571,1,3835.668,3,0.02,0.1
0,608,target,"[(1025, 780)]",[],[1],[0.5166666666666666],vertical,"(890.0, 262.0)",1.1,0.469,1,3841.8,3,0.02,0.1
0,609,target,"[(1021, 769)]",[],[1],[0.5333333333333333],horizontal,"(890.0, 762.0)",0.85,0.489,1,3847.729,3,0.02,0.1
0,610,target,"[(1033, 767)]",[],[1],[0.5666666666666667],horizontal,"(890.0, 762.0)",0.5833333333333334,0.525,1,3853.23,3,0.02,0.1
0,611,target,"[(1035, 761)]",[],[1],[0.45],horizontal,"(390.0, 262.0)",1.0833333333333333,0.41,1,3858.273,3,0.02,0.1
0,612,target,"[(1037, 774)]",[],[1],[0.26666666666666666],vertical,"(390.0, 262.0)",1.3666666666666667,0.235,1,3863.947,3,0.02,0.1
0,613,target,"[(1036, 755)]",[],[1],[0.6166666666666667],horizontal,"(390.0, 762.0)",1.0166666666666666,0.576,1,3869.746,3,0.02,0.1
0,614,target,"[(1052, 770)]",[],[1],[0.7],horizontal,"(890.0, 262.0)",1.3333333333333333,0.656,1,3875.626,3,0.02,0.1
0,615,target,"[(1038, 771)]",[],[1],[0.5333333333333333],vertical,"(390.0, 262.0)",1.1166666666666667,0.495,1,3881.648,3,0.02,0.1
0,616,target,"[(1055, 765)]",[],[1],[0.6],vertical,"(390.0, 262.0)",0.9,0.553,1,3887.158,3,0.02,0.1
0,617,target,"[(1036, 765)]",[],[1],[0.5166666666666666],vertical,"(390.0, 262.0)",1.0666666666666667,0.472,1,3892.647,3,0.02,0.1
0,618,target,"[(1037, 770)]",[],[1],[0.5333333333333333],vertical,"(890.0, 262.0)",0.7666666666666666,0.495,1,3898.237,3,0.02,0.1
0,619,target,"[(1056, 772)]",[],[1],[0.5333333333333333],vertical,"(890.0, 262.0)",0.7666666666666666,0.491,1,3903.408,3,0.02,0.1
0,620,target,"[(1035, 760)]",[],[1],[0.55],horizontal,"(390.0, 262.0)",0.6166666666666667,0.505,1,3908.926,3,0.02,0.1
0,621,catch,"[(1042, 768)]",[],[1],[],vertical,"(390.0, 762.0)",,"('cti', 1.555),nan",0,3914.548,0,0.04,0.1
0,622,target,"[(1043, 786)]",[],[1],[0.05],horizontal,"(390.0, 762.0)",1.5333333333333332,0.02,0,3919.466,0,0.04,0.1
0,623,target,"[(1030, 770)]",[],[1],[0.5333333333333333],vertical,"(890.0, 262.0)",1.0333333333333332,0.491,1,3924.234,1,0.04,0.1
0,624,target,"[(1057, 768)]",[],[1],[0.6],horizontal,"(890.0, 262.0)",0.5166666666666666,0.55,1,3928.697,1,0.04,0.1
0,625,target,"[(1037, 767)]",[],[1],[0.45],horizontal,"(890.0, 762.0)",1.4,0.412,1,3932.914,1,0.04,0.1
0,626,target,"[(1036, 764)]",[],[1],[0.5166666666666666],vertical,"(890.0, 762.0)",1.0166666666666666,0.473,1,3938.126,2,0.04,0.1
0,627,target,"[(1037, 770)]",[],[1],[0.25],vertical,"(890.0, 762.0)",1.5,0.216,1,3943.465,2,0.04,0.1
0,628,target,"[(1037, 765)]",[],[1],[0.5666666666666667],horizontal,"(390.0, 762.0)",1.05,0.529,1,3948.824,2,0.04,0.1
0,629,target,"[(1037, 769)]",[],[1],[0.5333333333333333],vertical,"(890.0, 262.0)",1.2833333333333332,0.487,1,3953.861,2,0.04,0.1
0,630,target,"[(1036, 766)]",[],[1],[0.6333333333333333],horizontal,"(890.0, 262.0)",0.75,0.594,1,3959.282,3,0.04,0.1
0,631,target,"[(1053, 765)]",[],[1],[0.3833333333333333],vertical,"(390.0, 262.0)",1.1833333333333333,0.349,1,3964.747,3,0.04,0.1
0,632,target,"[(1029, 765)]",[],[1],[0.6333333333333333],horizontal,"(890.0, 262.0)",0.5,0.59,1,3970.865,3,0.04,0.1
0,633,target,"[(1040, 761)]",[],[1],[0.3333333333333333],horizontal,"(890.0, 762.0)",1.4833333333333334,0.296,1,3976.242,3,0.04,0.1
0,634,target,"[(1035, 765)]",[],[1],[0.5],horizontal,"(390.0, 262.0)",1.3833333333333333,0.458,1,3982.047,3,0.04,0.1
0,635,target,"[(1057, 800)]",[],[1],[0.5333333333333333],horizontal,"(390.0, 262.0)",0.75,0.493,1,3987.773,3,0.04,0.1
0,636,target,"[(1041, 762)]",[],[1],[0.65],horizontal,"(890.0, 762.0)",0.9833333333333333,0.613,1,3992.897,3,0.04,0.1
0,637,target,"[(1033, 767)]",[],[1],[0.5666666666666667],vertical,"(890.0, 262.0)",1.1666666666666667,0.523,1,3998.614,3,0.04,0.1
0,638,target,"[(1038, 757)]",[],[1],[0.5166666666666666],vertical,"(890.0, 762.0)",1.0,0.477,1,4004.298,3,0.04,0.1
0,639,target,"[(1037, 770)]",[],[1],[0.4666666666666667],vertical,"(390.0, 762.0)",1.2666666666666666,0.43,1,4009.782,3,0.02,0.1
0,640,target,"[(1044, 770)]",[],[1],[0.5333333333333333],vertical,"(390.0, 762.0)",0.6,0.49,1,4015.248,3,0.02,0.1
0,641,target,"[(1049, 799)]",[],[1],[0.3],horizontal,"(890.0, 762.0)",1.5666666666666667,0.261,1,4020.388,3,0.02,0.1
0,642,target,"[(1035, 785)]",[],[1],[0.3833333333333333],vertical,"(390.0, 762.0)",1.2,0.346,1,4025.997,3,0.02,0.1
0,643,target,"[(1037, 781)]",[],[1],[0.55],horizontal,"(890.0, 762.0)",0.7,0.509,1,4031.947,3,0.02,0.1
0,644,target,"[(1040, 765)]",[],[1],[0.75],horizontal,"(390.0, 262.0)",0.7666666666666666,nan,0,4037.147,0,0.02,0.1
0,645,catch,"[(1020, 786)]",[],[1],[],horizontal,"(890.0, 262.0)",,"('cti', 1.561),nan",0,4041.316,0,0.04,0.1
0,646,target,"[(1036, 802)]",[],[1],[0.55],horizontal,"(890.0, 762.0)",0.75,0.51,1,4046.061,1,0.04,0.1
0,647,catch,"[(1049, 795)]",[],[1],[],horizontal,"(390.0, 762.0)",1.6,nan,1,4050.968,1,0.04,0.1
0,648,target,"[(1037, 769)]",[],[1],[0.16666666666666666],horizontal,"(390.0, 762.0)",1.5666666666666667,0.135,0,4055.481,0,0.04,0.1
0,649,target,"[(1025, 806)]",[],[1],[0.6166666666666667],horizontal,"(390.0, 762.0)",0.8833333333333333,0.575,1,4060.082,1,0.04,0.1
0,650,target,"[(1036, 756)]",[],[1],[0.5833333333333334],horizontal,"(890.0, 762.0)",0.5666666666666667,0.542,1,4064.98,1,0.04,0.1
0,651,target,"[(1033, 790)]",[],[1],[0.7],horizontal,"(390.0, 262.0)",0.5333333333333333,0.659,1,4069.61,1,0.04,0.1
0,652,target,"[(1035, 786)]",[],[1],[0.6],horizontal,"(890.0, 762.0)",1.0666666666666667,0.556,1,4073.932,2,0.04,0.1
0,653,target,"[(1038, 760)]",[],[1],[0.25],vertical,"(390.0, 762.0)",1.4333333333333333,0.214,1,4079.232,2,0.04,0.1
0,654,target,"[(1052, 782)]",[],[1],[0.4666666666666667],horizontal,"(390.0, 262.0)",1.2333333333333334,0.427,1,4084.593,2,0.04,0.1
0,655,target,"[(1017, 769)]",[],[1],[0.5833333333333334],horizontal,"(390.0, 762.0)",0.5,0.538,1,4090.182,2,0.04,0.1
0,656,target,"[(1037, 773)]",[],[1],[0.18333333333333332],horizontal,"(390.0, 262.0)",1.45,0.147,0,4094.632,0,0.04,0.1
0,657,target,"[(1024, 775)]",[],[1],[0.5166666666666666],vertical,"(390.0, 762.0)",1.2333333333333334,0.477,1,4099.36,1,0.04,0.1
0,658,target,"[(1035, 765)]",[],[1],[0.21666666666666667],horizontal,"(390.0, 762.0)",1.4,0.179,0,4104.648,0,0.04,0.1
0,659,catch,"[(1033, 763)]",[],[1],[],vertical,"(390.0, 762.0)",,"('cti', 1.484),nan",0,4109.649,0,0.06,0.1
0,660,target,"[(1033, 780)]",[],[1],[0.55],vertical,"(390.0, 762.0)",0.95,0.507,1,4114.382,1,0.06,0.1
0,661,catch,"[(1021, 741), (999, 794), (1033, 806)]",[],"[0, 0, 1]",[],horizontal,"(890.0, 762.0)",1.6,nan,1,4119.295,1,0.06,0.1
0,662,target,"[(1024, 775)]",[],[1],[0.3],horizontal,"(890.0, 262.0)",1.1666666666666667,0.263,1,4126.197,1,0.06,0.1
0,663,target,"[(1033, 753), (997, 791), (1019, 783)]",[],"[0, 0, 1]",[0.5833333333333334],vertical,"(390.0, 262.0)",0.5333333333333333,0.541,1,4131.333,2,0.06,0.1
0,664,target,"[(1033, 781)]",[],[1],[0.55],horizontal,"(390.0, 762.0)",0.9833333333333333,0.512,1,4138.716,2,0.06,0.1
0,665,target,"[(1034, 760)]",[],[1],[0.25],vertical,"(390.0, 762.0)",1.2666666666666666,0.216,1,4143.949,2,0.06,0.1
0,666,target,"[(1036, 775)]",[],[1],[],vertical,"(390.0, 762.0)",,"('cti', 1.512)",0,4149.428,0,0.08,0.1
0,667,catch,"[(1017, 805)]",[],[1],[],vertical,"(890.0, 762.0)",1.6,nan,1,4154.153,1,0.08,0.1
0,668,target,"[(749, 409), (710, 939), (256, 432), (868, 954), (773, 969), (280, 974), (732, 417), (841, 872), (256, 302), (777, 462), (148, 1023), (168, 502), (812, 312), (846, 491), (1046, 795)]",[],"[0, 0, 0, 0, 0, 0, 0, 0, 0, 0, 0, 0, 0, 0, 1]",[0.75],horizontal,"(890.0, 762.0)",0.7666666666666666,nan,0,4158.959,0,0.08,0.1
0,669,target,"[(1037, 807)]",[],[1],[0.65],vertical,"(390.0, 262.0)",0.8333333333333334,0.608,1,4217.099,1,0.08,0.1
0,670,target,"[(1041, 787)]",[],[1],[0.75],vertical,"(390.0, 762.0)",1.1166666666666667,nan,0,4221.716,0,0.08,0.1
0,671,target,"[(1031, 799)]",[],[1],[0.75],vertical,"(390.0, 762.0)",0.6166666666666667,nan,0,4226.698,0,0.06,0.1
0,672,target,"[(1022, 807)]",[],[1],[0.6166666666666667],horizontal,"(890.0, 762.0)",1.45,0.578,1,4231.115,1,0.06,0.1
0,673,target,"[(1059, 778)]",[],[1],[0.75],horizontal,"(890.0, 762.0)",1.2666666666666666,nan,0,4236.566,0,0.06,0.1
0,674,target,"[(1022, 793)]",[],[1],[0.75],horizontal,"(890.0, 762.0)",0.8166666666666667,nan,0,4241.499,0,0.06,0.1
0,675,target,"[(1025, 780)]",[],[1],[0.4166666666666667],horizontal,"(890.0, 262.0)",1.3,0.383,1,4245.782,1,0.06,0.1
0,676,target,"[(1036, 774)]",[],[1],[0.7],horizontal,"(890.0, 762.0)",0.9,0.654,1,4251.1,1,0.06,0.1
0,677,target,"[(1052, 762)]",[],[1],[0.75],horizontal,"(890.0, 262.0)",0.5333333333333333,nan,0,4256.349,0,0.06,0.1
0,678,target,"[(997, 793), (1047, 810)]",[],"[0, 1]",[0.5666666666666667],horizontal,"(390.0, 762.0)",1.3166666666666667,0.529,1,4260.865,1,0.06,0.1
0,679,target,"[(1057, 777)]",[],[1],[0.75],horizontal,"(890.0, 262.0)",1.4166666666666667,nan,0,4267.183,0,0.06,0.1
0,680,target,"[(1013, 805)]",[],[1],[0.5333333333333333],horizontal,"(390.0, 262.0)",0.6333333333333333,0.488,1,4272.109,1,0.06,0.1
0,681,target,"[(1052, 760)]",[],[1],[0.75],vertical,"(390.0, 262.0)",0.85,nan,0,4276.453,0,0.06,0.1
0,682,target,"[(1029, 805)]",[],[1],[0.55],vertical,"(890.0, 762.0)",0.9333333333333333,0.505,1,4281.288,1,0.06,0.1
0,683,target,"[(1028, 757)]",[],[1],[0.26666666666666666],horizontal,"(890.0, 262.0)",1.5833333333333333,0.23,1,4286.318,1,0.06,0.1
0,684,catch,"[(1033, 805)]",[],[1],[],vertical,"(390.0, 762.0)",1.6,nan,1,4291.544,1,0.06,0.1
0,685,target,"[(1045, 756)]",[],[1],[0.7166666666666667],vertical,"(390.0, 762.0)",0.75,0.666,1,4296.416,2,0.06,0.1
0,686,catch,"[(1046, 745), (1037, 804)]",[],"[0, 1]",[],vertical,"(890.0, 762.0)",1.6,nan,1,4301.748,2,0.06,0.1
0,687,target,"[(1050, 766)]",[],[1],[0.65],vertical,"(390.0, 762.0)",0.7,0.608,1,4307.982,2,0.06,0.1
0,688,target,"[(1056, 780)]",[],[1],[0.6166666666666667],horizontal,"(890.0, 262.0)",0.8333333333333334,0.573,1,4312.929,2,0.06,0.1
0,689,target,"[(1039, 775)]",[],[1],[],vertical,"(390.0, 762.0)",,"('cti', 1.16)",0,4318.415,0,0.08,0.1
0,690,target,"[(1029, 791)]",[],[1],[0.5833333333333334],horizontal,"(890.0, 762.0)",0.6333333333333333,0.541,1,4322.492,1,0.08,0.1
0,691,target,"[(1052, 771)]",[],[1],[0.3],vertical,"(390.0, 262.0)",1.2833333333333332,0.262,1,4327.389,1,0.08,0.1
0,692,target,"[(1053, 779)]",[],[1],[0.5333333333333333],vertical,"(890.0, 262.0)",0.7333333333333333,0.488,1,4332.684,1,0.08,0.1
0,693,target,"[(1041, 767)]",[],[1],[0.55],vertical,"(390.0, 262.0)",0.7166666666666667,0.51,1,4337.2,2,0.08,0.1
0,694,target,"[(1034, 779)]",[],[1],[0.4666666666666667],vertical,"(390.0, 262.0)",1.2333333333333334,0.423,1,4342.416,2,0.08,0.1
0,695,target,"[(1049, 782)]",[],[1],[0.65],horizontal,"(390.0, 762.0)",0.5,0.604,1,4347.749,2,0.06,0.1
0,696,target,"[(1055, 780)]",[],[1],[0.75],vertical,"(390.0, 262.0)",0.9333333333333333,nan,0,4352.591,0,0.06,0.1
0,697,target,"[(1025, 777)]",[],[1],[0.2833333333333333],horizontal,"(890.0, 762.0)",1.4,0.244,1,4357.294,1,0.06,0.1
0,698,target,"[(1036, 773)]",[],[1],[0.5],vertical,"(390.0, 262.0)",1.4166666666666667,0.456,1,4362.539,1,0.06,0.1
0,699,target,"[(1037, 759)]",[],[1],[0.5833333333333334],horizontal,"(390.0, 262.0)",0.5166666666666666,0.536,1,4367.915,1,0.06,0.1
0,700,target,"[(1037, 778)]",[],[1],[0.5166666666666666],vertical,"(890.0, 762.0)",1.4,0.48,1,4372.559,2,0.06,0.1
0,701,catch,"[(1037, 757)]",[],[1],[],vertical,"(390.0, 762.0)",1.6,nan,1,4377.982,2,0.06,0.1
0,702,target,"[(1021, 761)]",[],[1],[0.5833333333333334],horizontal,"(890.0, 762.0)",0.8166666666666667,0.544,1,4383.049,2,0.06,0.1
0,703,target,"[(1046, 783)]",[],[1],[0.48333333333333334],horizontal,"(890.0, 762.0)",1.15,0.446,1,4388.489,2,0.06,0.1
0,704,target,"[(1038, 774)]",[],[1],[0.18333333333333332],horizontal,"(390.0, 762.0)",1.4166666666666667,0.152,0,4393.609,0,0.06,0.1
0,705,target,"[(1041, 784)]",[],[1],[0.5166666666666666],horizontal,"(890.0, 262.0)",1.05,0.477,1,4398.494,1,0.06,0.1
0,706,target,"[(1054, 769)]",[],[1],[0.55],horizontal,"(890.0, 762.0)",0.7833333333333333,0.504,1,4403.033,1,0.06,0.1
0,707,target,"[(1034, 764)]",[],[1],[0.5333333333333333],vertical,"(890.0, 762.0)",1.1166666666666667,0.495,1,4407.899,1,0.06,0.1
0,708,target,"[(1037, 764)]",[],[1],[0.2833333333333333],horizontal,"(390.0, 762.0)",1.3,0.246,1,4413.032,2,0.06,0.1
0,709,catch,"[(1036, 767)]",[],[1],[],vertical,"(890.0, 262.0)",1.6,nan,1,4418.416,2,0.04,0.1
0,710,target,"[(1053, 785)]",[],[1],[0.35],vertical,"(890.0, 762.0)",1.2333333333333334,0.307,1,4423.714,2,0.04,0.1
0,711,target,"[(1036, 782)]",[],[1],[0.5666666666666667],vertical,"(390.0, 262.0)",1.35,0.525,1,4429.201,2,0.04,0.1
0,712,target,"[(1037, 800)]",[],[1],[0.6833333333333333],vertical,"(390.0, 262.0)",1.2333333333333334,0.642,1,4434.633,3,0.04,0.1
0,713,target,"[(1039, 766)]",[],[1],[0.3833333333333333],vertical,"(390.0, 262.0)",1.35,0.344,1,4440.85,3,0.04,0.1
0,714,target,"[(1039, 755)]",[],[1],[0.65],horizontal,"(390.0, 262.0)",1.0333333333333332,0.604,1,4446.873,3,0.04,0.1
0,715,target,"[(1044, 777)]",[],[1],[0.5333333333333333],vertical,"(390.0, 762.0)",1.0166666666666666,0.492,1,4452.533,3,0.04,0.1
0,716,target,"[(1042, 764)]",[],[1],[0.5833333333333334],vertical,"(390.0, 262.0)",1.1166666666666667,0.537,1,4458.231,3,0.02,0.1
0,717,target,"[(1054, 760)]",[],[1],[0.13333333333333333],vertical,"(390.0, 762.0)",1.4666666666666666,0.098,0,4464.294,0,0.02,0.1
0,718,target,"[(1032, 777)]",[],[1],[0.6833333333333333],vertical,"(890.0, 762.0)",0.9833333333333333,0.647,1,4468.928,1,0.02,0.1
0,719,target,"[(1033, 771)]",[],[1],[0.75],horizontal,"(390.0, 762.0)",0.5166666666666666,nan,0,4474.183,0,0.02,0.1
0,720,target,"[(1029, 782)]",[],[1],[0.6],horizontal,"(890.0, 762.0)",0.7,0.556,1,4478.316,1,0.02,0.1
0,721,target,"[(1043, 786)]",[],[1],[],horizontal,"(390.0, 762.0)",,"('cti', 1.093)",0,4483.393,0,0.04,0.1
0,722,target,"[(1027, 805)]",[],[1],[0.48333333333333334],horizontal,"(890.0, 762.0)",1.5333333333333332,0.443,1,4487.366,1,0.04,0.1
0,723,target,"[(1033, 802)]",[],[1],[0.65],horizontal,"(390.0, 262.0)",0.5333333333333333,0.608,1,4494.112,1,0.04,0.1
0,724,target,"[(992, 808), (1033, 815)]",[],"[0, 1]",[0.75],horizontal,"(890.0, 762.0)",1.0,nan,0,4499.633,0,0.04,0.1
0,725,target,"[(1032, 828)]",[],[1],[0.4166666666666667],vertical,"(390.0, 762.0)",1.3,0.384,1,5062.958,1,0.04,0.1
0,726,target,"[(1055, 785)]",[],[1],[0.48333333333333334],vertical,"(890.0, 262.0)",1.1,0.45,1,5068.437,1,0.04,0.1
0,727,target,"[(1057, 799)]",[],[1],[0.3],horizontal,"(390.0, 762.0)",1.35,0.263,1,5073.485,1,0.04,0.1
0,728,target,"[(1056, 781)]",[],[1],[0.6833333333333333],horizontal,"(390.0, 262.0)",0.6333333333333333,0.643,1,5078.367,2,0.04,0.1
0,729,target,"[(1037, 775)]",[],[1],[0.48333333333333334],vertical,"(890.0, 262.0)",0.5833333333333334,0.451,1,5083.492,2,0.04,0.1
0,730,target,"[(1032, 787)]",[],[1],[0.16666666666666666],vertical,"(890.0, 262.0)",1.6,0.132,0,5088.067,0,0.04,0.1
0,731,target,"[(1040, 801)]",[],[1],[0.75],horizontal,"(890.0, 762.0)",0.8333333333333334,nan,0,5092.417,0,0.04,0.1
0,732,catch,"[(1038, 768)]",[],[1],[],vertical,"(390.0, 762.0)",1.6,nan,1,5097.008,1,0.04,0.1
0,733,target,"[(1046, 750), (1052, 791)]",[],"[0, 1]",[],vertical,"(390.0, 762.0)",,"('cti', 1.167)",0,5102.201,0,0.06,0.1
0,734,target,"[(1038, 756)]",[],[1],[0.5166666666666666],horizontal,"(390.0, 262.0)",1.3333333333333333,0.476,1,5107.935,1,0.06,0.1
0,735,target,"[(1056, 773)]",[],[1],[0.26666666666666666],horizontal,"(890.0, 762.0)",1.5166666666666666,0.228,1,5112.997,1,0.06,0.1
0,736,target,"[(1037, 769)]",[],[1],[0.5333333333333333],vertical,"(390.0, 262.0)",0.5666666666666667,0.49,1,5117.682,1,0.06,0.1
0,737,target,"[(1042, 763)]",[],[1],[0.75],horizontal,"(390.0, 262.0)",0.9666666666666667,nan,0,5122.303,0,0.06,0.1
0,738,target,"[(1033, 787)]",[],[1],[0.6],horizontal,"(390.0, 762.0)",1.2166666666666666,0.56,1,5127.167,1,0.06,0.1
0,739,target,"[(1054, 799)]",[],[1],[0.5166666666666666],horizontal,"(390.0, 262.0)",0.7166666666666667,0.476,1,5132.135,1,0.04,0.1
0,740,target,"[(1028, 765)]",[],[1],[0.23333333333333334],vertical,"(390.0, 762.0)",1.5666666666666667,0.202,1,5136.801,1,0.04,0.1
0,741,target,"[(1039, 752), (1033, 772)]",[],"[0, 1]",[0.4],vertical,"(390.0, 262.0)",1.2833333333333332,0.361,1,5141.957,2,0.04,0.1
0,742,target,"[(1021, 764)]",[],[1],[0.35],vertical,"(890.0, 762.0)",1.45,0.315,1,5149.083,2,0.04,0.1
0,743,target,"[(1036, 764)]",[],[1],[0.5833333333333334],horizontal,"(390.0, 762.0)",1.0666666666666667,0.54,1,5154.564,2,0.04,0.1
0,744,target,"[(1047, 785)]",[],[1],[0.48333333333333334],vertical,"(890.0, 762.0)",1.2666666666666666,0.448,1,5159.901,2,0.04,0.1
0,745,target,"[(1037, 785)]",[],[1],[0.5166666666666666],vertical,"(390.0, 262.0)",0.9166666666666666,0.474,1,5165.218,3,0.04,0.1
0,746,target,"[(659, 815), (1008, 854)]","[(1000, 868)]","[0, 1]",[0.1],vertical,"(890.0, 762.0)",,"('bar', 0.114)",0,5170.498,0,0.04,0.1
0,747,target,"[(1056, 818)]",[],[1],[0.5166666666666666],vertical,"(890.0, 762.0)",0.9666666666666667,0.476,1,5177.447,1,0.04,0.1
0,748,target,"[(1037, 791)]",[],[1],[0.4666666666666667],vertical,"(390.0, 762.0)",1.2333333333333334,0.426,1,5182.145,1,0.04,0.1
0,749,target,"[(1037, 771)]",[],[1],[0.25],vertical,"(390.0, 262.0)",1.1666666666666667,0.215,1,5187.327,1,0.04,0.1
0,750,target,"[(1047, 787)]",[],[1],[0.48333333333333334],horizontal,"(890.0, 762.0)",1.1333333333333333,0.45,1,5192.468,2,0.04,0.1
0,751,target,"[(1041, 775)]",[],[1],[0.45],horizontal,"(390.0, 262.0)",1.1,0.412,1,5198.064,2,0.04,0.1
0,752,target,"[(1039, 769)]",[],[1],"[0.75, 0.75]",vertical,"(390.0, 262.0)",1.0166666666666666,"0.704,nan",0,5203.584,0,0.04,0.1
0,753,target,"[(1037, 782)]",[],[1],[0.3],vertical,"(890.0, 262.0)",1.55,0.268,1,5208.305,1,0.04,0.1
0,754,target,"[(1036, 751), (1036, 792)]",[],"[0, 1]",[0.6166666666666667],vertical,"(890.0, 762.0)",1.3,0.581,1,5213.587,1,0.04,0.1
0,755,target,"[(1037, 747), (1023, 790)]",[],"[0, 1]",[0.75],vertical,"(390.0, 262.0)",0.9666666666666667,nan,0,5219.785,0,0.04,0.1
0,756,target,"[(1022, 770)]",[],[1],[0.5666666666666667],vertical,"(890.0, 762.0)",0.6166666666666667,0.521,1,5226.051,1,0.04,0.1
0,757,target,"[(1054, 768)]",[],[1],[0.65],horizontal,"(390.0, 762.0)",0.5333333333333333,0.608,1,5230.345,1,0.04,0.1
0,758,target,"[(1057, 785)]",[],[1],[0.5333333333333333],horizontal,"(890.0, 762.0)",0.8166666666666667,0.493,1,5234.711,1,0.04,0.1
0,759,target,"[(1013, 756)]",[],[1],[0.5833333333333334],vertical,"(890.0, 262.0)",0.9666666666666667,0.539,1,5239.152,2,0.04,0.1
0,760,target,"[(1058, 783)]",[],[1],[0.5],horizontal,"(390.0, 262.0)",0.9833333333333333,0.463,1,5244.433,2,0.04,0.1
0,761,target,"[(1037, 770)]",[],[1],[0.6166666666666667],vertical,"(390.0, 762.0)",0.9166666666666666,0.576,1,5249.736,2,0.04,0.1
0,762,target,"[(1027, 790)]",[],[1],[0.5],vertical,"(390.0, 262.0)",1.1833333333333333,0.458,1,5255.085,2,0.04,0.1
0,763,target,"[(1057, 778)]",[],[1],[0.6],horizontal,"(890.0, 762.0)",0.7333333333333333,0.556,1,5260.717,3,0.04,0.1
0,764,target,"[(1040, 770)]",[],[1],[0.43333333333333335],vertical,"(390.0, 762.0)",1.3166666666666667,0.391,1,5266.069,3,0.04,0.1
0,765,target,"[(1037, 790)]",[],[1],[0.5166666666666666],vertical,"(890.0, 262.0)",0.6333333333333333,0.476,1,5272.234,3,0.04,0.1
0,766,target,"[(1035, 785)]",[],[1],[0.45],horizontal,"(890.0, 262.0)",0.9333333333333333,0.414,1,5278.302,3,0.04,0.1
0,767,target,"[(1038, 790)]",[],[1],[0.05],horizontal,"(390.0, 762.0)",1.55,0.019,0,5283.508,0,0.04,0.1
0,768,target,"[(1025, 780)]",[],[1],[0.5333333333333333],vertical,"(890.0, 262.0)",1.2666666666666666,0.49,1,5288.071,1,0.04,0.1
0,769,target,"[(1054, 801)]",[],[1],[0.5166666666666666],horizontal,"(390.0, 262.0)",1.55,0.485,1,5292.918,1,0.04,0.1
0,770,target,"[(1057, 796)]",[],[1],[0.4666666666666667],horizontal,"(890.0, 762.0)",1.3666666666666667,0.43,1,5298.571,1,0.04,0.1
0,771,target,"[(1035, 775)]",[],[1],[0.2833333333333333],vertical,"(390.0, 762.0)",1.4833333333333334,0.251,1,5303.74,2,0.02,0.1
0,772,target,"[(1039, 777)]",[],[1],[0.6166666666666667],vertical,"(390.0, 762.0)",0.6,0.571,1,5309.119,2,0.02,0.1
0,773,target,"[(1057, 771)]",[],[1],[0.2833333333333333],vertical,"(890.0, 262.0)",1.4333333333333333,0.252,1,5314.151,2,0.02,0.1
0,774,target,"[(1029, 776)]",[],[1],[0.5333333333333333],vertical,"(890.0, 262.0)",1.1166666666666667,0.492,1,5319.486,2,0.02,0.1
0,775,target,"[(1056, 760)]",[],[1],[0.6],horizontal,"(390.0, 262.0)",1.1666666666666667,0.554,1,5324.869,3,0.02,0.1
0,776,target,"[(1037, 760)]",[],[1],[0.5],horizontal,"(390.0, 262.0)",0.9833333333333333,0.459,1,5330.485,3,0.02,0.1
0,777,catch,"[(1049, 770)]",[],[1],[],horizontal,"(890.0, 262.0)",1.6,nan,1,5336.038,3,0.02,0.1
0,778,target,"[(1021, 764)]",[],[1],[0.7166666666666667],horizontal,"(390.0, 262.0)",0.9166666666666666,0.678,1,5341.802,3,0.02,0.1
0,779,target,"[(1037, 783)]",[],[1],[0.75],vertical,"(890.0, 762.0)",0.7166666666666667,nan,0,5347.618,0,0.02,0.1
0,780,target,"[(1021, 792)]",[],[1],[0.26666666666666666],horizontal,"(890.0, 262.0)",1.3666666666666667,0.228,1,5351.763,1,0.02,0.1
0,781,target,"[(1035, 793)]",[],[1],[0.5],vertical,"(390.0, 762.0)",1.1166666666666667,0.463,1,5356.886,1,0.02,0.1
0,782,target,"[(1037, 770)]",[],[1],[0.5666666666666667],horizontal,"(390.0, 262.0)",0.65,0.524,1,5361.64,1,0.02,0.1
0,783,target,"[(1055, 776)]",[],[1],[0.48333333333333334],horizontal,"(890.0, 762.0)",1.0333333333333332,0.443,1,5366.05,2,0.0,0.1
0,784,target,"[(1061, 774)]",[],[1],[0.6166666666666667],horizontal,"(390.0, 262.0)",0.7,0.575,1,5371.182,2,0.0,0.1
0,785,target,"[(1019, 796)]",[],[1],[0.6333333333333333],horizontal,"(390.0, 262.0)",0.6,0.592,1,5376.033,2,0.0,0.1
0,786,target,"[(1057, 782)]",[],[1],[0.75],horizontal,"(390.0, 762.0)",0.5833333333333334,nan,0,5391.381,0,0.0,0.1
0,787,target,"[(1033, 770)]",[],[1],[0.6833333333333333],horizontal,"(390.0, 762.0)",1.4833333333333334,0.642,1,5395.817,1,0.0,0.1
0,788,target,"[(1057, 783)]",[],[1],[0.48333333333333334],horizontal,"(390.0, 762.0)",1.4,0.444,1,5401.119,1,0.0,0.1
0,789,target,"[(1032, 771)]",[],[1],[0.05],vertical,"(890.0, 262.0)",1.5833333333333333,0.019,0,5406.101,0,0.0,0.1
0,790,target,"[(1052, 808)]","[(1047, 830)]",[1],[0.45],horizontal,"(390.0, 262.0)",,"('bar', 0.459)",0,5410.867,0,0.0,0.1
0,791,catch,"[(1017, 859)]",[],[1],[],horizontal,"(390.0, 762.0)",1.6,nan,1,5444.77,1,0.0,0.1
0,792,target,"[(1040, 788)]",[],[1],[0.65],horizontal,"(890.0, 262.0)",1.0666666666666667,0.609,1,5453.098,1,0.0,0.1
0,793,target,"[(1037, 778)]",[],[1],[0.5],horizontal,"(890.0, 762.0)",0.9833333333333333,0.464,1,5458.169,1,0.0,0.1
0,794,target,"[(1020, 767)]",[],[1],[0.31666666666666665],horizontal,"(390.0, 262.0)",0.9666666666666667,0.28,1,5462.703,2,0.0,0.1
0,795,target,"[(1045, 798)]",[],[1],[0.31666666666666665],horizontal,"(890.0, 262.0)",1.2666666666666666,0.278,1,5467.902,2,0.0,0.1
0,796,target,"[(1032, 782)]",[],[1],[0.6166666666666667],vertical,"(890.0, 262.0)",1.05,0.578,1,5473.664,2,0.0,0.1
0,797,target,"[(1029, 775)]",[],[1],[0.5333333333333333],horizontal,"(390.0, 762.0)",0.9166666666666666,0.494,1,5478.834,2,0.0,0.1
0,798,target,"[(1034, 763)]",[],[1],[0.75],horizontal,"(890.0, 262.0)",0.8,nan,0,5483.961,0,0.0,0.1
0,799,target,"[(1005, 815)]",[],[1],[0.5166666666666666],horizontal,"(890.0, 762.0)",1.15,0.476,1,5488.443,1,0.0,0.1
0,800,target,"[(1033, 814)]",[],[1],[0.43333333333333335],horizontal,"(890.0, 762.0)",1.4833333333333334,0.392,1,5495.971,1,0.0,0.1
0,801,catch,"[(1056, 805)]",[],[1],[],vertical,"(390.0, 262.0)",1.6,nan,1,5525.485,1,0.0,0.1
0,802,target,"[(1053, 783)]",[],[1],[0.75],horizontal,"(890.0, 762.0)",0.55,nan,0,5530.367,0,0.0,0.1
0,803,target,"[(1035, 789)]",[],[1],[0.65],vertical,"(890.0, 762.0)",0.5833333333333334,0.608,1,5534.93,1,0.0,0.1
0,804,target,"[(1036, 827)]",[],[1],[0.5333333333333333],vertical,"(890.0, 262.0)",0.8833333333333333,0.492,1,5539.286,1,0.0,0.1
0,805,target,"[(1054, 815)]",[],[1],[0.35],horizontal,"(890.0, 262.0)",1.35,0.316,1,5544.152,1,0.0,0.1
0,806,target,"[(1038, 765)]",[],[1],[0.5166666666666666],vertical,"(890.0, 262.0)",0.6,0.475,1,5549.338,2,0.0,0.1
0,807,target,"[(1057, 777)]",[],[1],[0.4166666666666667],vertical,"(390.0, 762.0)",1.3,0.376,1,5554.242,2,0.0,0.1
0,808,target,"[(1034, 791)]",[],[1],[0.5833333333333334],horizontal,"(890.0, 262.0)",0.7666666666666666,0.541,1,5559.418,2,0.0,0.1
0,809,target,"[(1033, 783)]",[],[1],[0.3833333333333333],vertical,"(390.0, 762.0)",1.4,0.344,1,5564.835,2,0.0,0.1
0,810,target,"[(1036, 765)]",[],[1],[0.08333333333333333],vertical,"(390.0, 262.0)",1.5,0.052,0,5570.142,0,0.0,0.1
0,811,target,"[(1049, 809)]",[],[1],[0.45],vertical,"(390.0, 762.0)",1.2,0.413,1,5575.036,1,0.0,0.1
0,812,target,"[(1037, 775)]",[],[1],[0.6166666666666667],horizontal,"(890.0, 262.0)",1.3,0.574,1,5582.187,1,0.0,0.1
0,813,target,"[(1038, 761)]",[],[1],[0.7333333333333333],vertical,"(390.0, 262.0)",0.9666666666666667,0.69,1,5587.452,1,0.0,0.1
0,814,target,"[(1052, 761)]",[],[1],[0.5833333333333334],vertical,"(390.0, 262.0)",0.9666666666666667,0.537,1,5592.519,2,0.0,0.1
0,815,target,"[(1055, 778)]",[],[1],[0.36666666666666664],vertical,"(390.0, 762.0)",1.4333333333333333,0.326,1,5597.998,2,0.0,0.1
0,816,target,"[(1045, 761)]",[],[1],[0.6833333333333333],vertical,"(390.0, 762.0)",1.0666666666666667,0.635,1,5603.368,2,0.0,0.1
0,817,target,"[(1043, 779)]",[],[1],[0.5833333333333334],vertical,"(390.0, 762.0)",0.7833333333333333,0.548,1,5608.72,2,0.0,0.1
0,818,catch,"[(1055, 765)]",[],[1],[],vertical,"(890.0, 262.0)",1.6,nan,1,5613.544,3,0.0,0.1
0,819,target,"[(1034, 756)]",[],[1],[0.45],horizontal,"(890.0, 762.0)",1.1166666666666667,0.416,1,5619.432,3,0.0,0.1
0,820,target,"[(1036, 764)]",[],[1],[0.5666666666666667],vertical,"(890.0, 262.0)",0.7833333333333333,0.527,1,5625.187,3,0.0,0.1
0,821,target,"[(1045, 773)]",[],[1],[0.3],vertical,"(890.0, 762.0)",1.3833333333333333,0.264,1,5630.196,3,0.0,0.1
0,822,target,"[(1057, 770)]",[],[1],[0.5333333333333333],horizontal,"(390.0, 262.0)",1.0333333333333332,0.501,1,5636.064,3,0.0,0.1
0,823,target,"[(1036, 769)]",[],[1],[0.5833333333333334],horizontal,"(390.0, 262.0)",0.6166666666666667,0.543,1,5641.584,3,0.0,0.1
0,824,target,"[(1033, 790)]",[],[1],[0.65],vertical,"(390.0, 262.0)",0.8833333333333333,0.602,1,5646.824,3,0.0,0.1
0,825,target,"[(1019, 771)]",[],[1],[0.4666666666666667],vertical,"(890.0, 262.0)",1.2166666666666666,0.423,1,5653.15,3,0.0,0.1
0,826,target,"[(1043, 763)]",[],[1],[0.6833333333333333],horizontal,"(390.0, 762.0)",0.6,0.641,1,5659.193,3,0.0,0.1
0,827,target,"[(1037, 770)]",[],[1],[0.7],horizontal,"(390.0, 762.0)",0.55,0.654,1,5664.319,3,0.0,0.1
0,828,target,"[(1030, 757)]",[],[1],[0.13333333333333333],vertical,"(390.0, 262.0)",1.4833333333333334,0.102,0,5669.26,0,0.0,0.1
0,829,target,"[(1033, 772)]",[],[1],[0.6666666666666666],vertical,"(890.0, 762.0)",0.5,0.622,1,5673.903,1,0.0,0.1
0,830,target,"[(1017, 777)]",[],[1],[0.6],vertical,"(890.0, 262.0)",0.9166666666666666,0.554,1,5678.537,1,0.0,0.1
0,831,catch,"[(1026, 787)]",[],[1],[],horizontal,"(890.0, 262.0)",,"('cti', 1.318),nan",0,5685.287,0,0.02,0.1
0,832,target,"[(1033, 766)]",[],[1],[0.6833333333333333],vertical,"(390.0, 262.0)",0.8166666666666667,0.644,1,5690.036,1,0.02,0.1
0,833,target,"[(1019, 768)]",[],[1],[],horizontal,"(390.0, 762.0)",,"('cti', 1.502)",0,5694.952,0,0.04,0.1
0,834,target,"[(1041, 759)]",[],[1],[0.2],horizontal,"(890.0, 262.0)",1.55,0.168,0,5699.553,0,0.04,0.1
0,835,target,"[(1037, 761)]",[],[1],[0.13333333333333333],horizontal,"(390.0, 762.0)",1.5333333333333332,0.1,0,5704.353,0,0.04,0.1
0,836,catch,"[(1036, 787)]",[],[1],[],horizontal,"(390.0, 762.0)",1.6,nan,1,5708.987,1,0.04,0.1
0,837,target,"[(1047, 780)]",[],[1],[],horizontal,"(890.0, 762.0)",,"('cti', 0.08)",0,5714.086,0,0.06,0.1
