block,trial,trial_type,taps_start_loc_during_fix,taps_end_loc_during_fix,taps_on_lever_during_fix,taps_on_lever_s_during_fix,bar_orientation,target_xy,cti,rt,acc,time,pulses,fa_rate_recent100,actual_invalid_type
0,1,valid,"[(1073, 837)]",[],[1],[0.4],vertical,"(890.0, 262.0)",0.7,0.375,1,1.207,1,0.0,same
0,2,valid,"[(1120, 841)]",[],[1],[0.6],vertical,"(890.0, 762.0)",0.4,0.553,1,9.216,1,0.0,same
0,3,valid,"[(1135, 815)]",[],[1],[0.48333333333333334],vertical,"(890.0, 262.0)",0.85,0.443,1,338.817,1,0.0,same
0,4,catch,"[(1155, 787)]",[],[1],[],horizontal,"(890.0, 262.0)",1.7,nan,1,344.252,2,0.0,same
0,5,valid,"[(1163, 792)]",[],[1],[0.85],horizontal,"(890.0, 262.0)",1.1333333333333333,nan,0,349.652,0,0.0,same
0,6,valid,"[(1150, 783)]",[],[1],[0.5166666666666666],vertical,"(390.0, 262.0)",0.5666666666666667,0.477,1,354.122,1,0.0,same
0,7,invalid_same_bar,"[(1160, 779)]",[],[1],[0.85],vertical,"(390.0, 762.0)",1.3,nan,0,358.658,0,0.0,same
0,8,valid,"[(1152, 777)]",[],[1],[0.85],horizontal,"(890.0, 262.0)",1.5,nan,0,363.507,0,0.0,same
0,9,valid,"[(1159, 775)]",[],[1],[0.5166666666666666],horizontal,"(890.0, 262.0)",0.4666666666666667,0.477,1,368.817,1,0.0,same
0,10,valid,"[(1146, 769)]",[],[1],[0.5],horizontal,"(390.0, 762.0)",1.05,0.457,1,373.396,1,0.0,same
0,11,valid,"[(1158, 774)]",[],[1],[0.55],vertical,"(890.0, 262.0)",0.9666666666666667,0.506,1,378.701,1,0.0,same
0,12,valid,"[(1141, 784)]",[],[1],[0.85],horizontal,"(390.0, 762.0)",1.2833333333333332,nan,0,383.346,0,0.0,same
0,13,catch,"[(1145, 793)]",[],[1],[],vertical,"(890.0, 762.0)",1.7,nan,1,388.603,1,0.0,same
0,14,valid,"[(1165, 779)]",[],[1],[],vertical,"(390.0, 762.0)",,"('fix', 0.344)",0,394.286,0,0.0,same
0,15,valid,"[(1119, 853)]",[],[1],[0.5833333333333334],vertical,"(890.0, 262.0)",1.4333333333333333,0.54,1,395.996,1,0.0,same
0,16,valid,"[(1155, 784)]",[],[1],[0.6333333333333333],vertical,"(390.0, 262.0)",1.0333333333333332,0.588,1,403.636,1,0.0,same
0,17,catch,"[(1154, 781)]",[],[1],[],vertical,"(390.0, 762.0)",1.7,nan,1,408.695,1,0.0,same
0,18,valid,"[(1142, 774)]",[],[1],[0.85],vertical,"(890.0, 762.0)",0.95,nan,0,413.869,0,0.0,same
0,19,catch,"[(1142, 779)]",[],[1],[],horizontal,"(390.0, 262.0)",1.7,nan,1,418.798,1,0.0,same
0,20,valid,"[(1142, 794)]",[],[1],[0.85],vertical,"(390.0, 262.0)",0.35,nan,0,424.49,0,0.0,same
0,21,invalid_same_bar,"[(1137, 799)]",[],[1],[0.85],vertical,"(890.0, 762.0)",0.5166666666666666,nan,0,428.689,0,0.0,same
0,22,catch,"[(1110, 835)]",[],[1],[],vertical,"(890.0, 762.0)",,"('cti', 0.672),nan",0,433.327,0,0.045454545454545456,same
0,23,valid,"[(1078, 817)]",[],[1],[0.48333333333333334],vertical,"(890.0, 762.0)",1.5166666666666666,0.442,1,438.011,1,0.043478260869565216,same
0,24,valid,"[(1174, 782)]",[],[1],[0.5166666666666666],horizontal,"(890.0, 262.0)",0.5,0.471,1,474.802,1,0.041666666666666664,same
0,25,valid,"[(1140, 776)]",[],[1],[0.85],horizontal,"(390.0, 762.0)",0.5166666666666666,nan,0,478.817,0,0.04,same
0,26,valid,"[(1138, 791)]",[],[1],[0.5166666666666666],horizontal,"(390.0, 262.0)",0.45,0.479,1,482.912,1,0.038461538461538464,same
0,27,valid,"[(1158, 783)]",[],[1],[0.5166666666666666],vertical,"(890.0, 762.0)",1.4,0.472,1,487.235,1,0.037037037037037035,same
0,28,catch,"[(1171, 786)]",[],[1],[],horizontal,"(890.0, 262.0)",,"('cti', 1.655),nan",0,492.203,0,0.07142857142857142,same
0,29,valid,"[(1076, 778)]",[],[1],[0.5],vertical,"(890.0, 262.0)",0.6,0.461,1,497.085,1,0.06896551724137931,same
0,30,valid,"[(1162, 796)]",[],[1],[0.6666666666666666],horizontal,"(390.0, 762.0)",0.9333333333333333,0.626,1,502.001,1,0.06666666666666667,same
0,31,valid,"[(1135, 775)]",[],[1],[0.5333333333333333],vertical,"(390.0, 762.0)",1.0333333333333332,0.49,1,507.081,1,0.06451612903225806,same
0,32,invalid_adjacent_other_bar,"[(1138, 799)]",[],[1],[0.5166666666666666],vertical,"(390.0, 262.0)",0.4166666666666667,0.472,1,512.179,2,0.0625,other
0,33,catch,"[(1180, 793)]",[],[1],[],vertical,"(890.0, 262.0)",1.7,nan,1,517.052,2,0.06060606060606061,same
0,34,invalid_same_bar,"[(1167, 790)]",[],[1],[0.5],horizontal,"(890.0, 262.0)",1.1,0.456,1,522.536,2,0.058823529411764705,same
0,35,catch,"[(1176, 788)]",[],[1],[],vertical,"(390.0, 762.0)",1.7,nan,1,527.653,3,0.05714285714285714,same
0,36,valid,"[(1163, 787)]",[],[1],[0.5],horizontal,"(890.0, 262.0)",1.4333333333333333,0.466,1,533.808,3,0.05555555555555555,same
0,37,valid,"[(1133, 809)]",[],[1],[0.6166666666666667],vertical,"(890.0, 262.0)",1.2333333333333334,0.572,1,539.817,3,0.05405405405405406,same
0,38,valid,"[(1175, 794)]",[],[1],[0.5333333333333333],horizontal,"(890.0, 262.0)",0.5833333333333334,0.496,1,545.836,3,0.05263157894736842,same
0,39,catch,"[(1180, 781)]",[],[1],[],horizontal,"(890.0, 262.0)",1.7,nan,1,550.913,3,0.05128205128205128,same
0,40,valid,"[(1161, 779)]",[],[1],[0.5666666666666667],horizontal,"(390.0, 762.0)",0.9,0.526,1,557.019,3,0.05,same
0,41,valid,"[(1180, 773)]",[],[1],[0.5833333333333334],horizontal,"(890.0, 262.0)",1.0,0.538,1,562.778,3,0.04878048780487805,same
0,42,valid,"[(1146, 790)]",[],[1],[0.5666666666666667],horizontal,"(890.0, 762.0)",0.7166666666666667,0.526,1,568.635,3,0.047619047619047616,same
0,43,valid,"[(1147, 795)]",[],[1],[0.5166666666666666],horizontal,"(890.0, 762.0)",1.3166666666666667,0.48,1,574.351,3,0.046511627906976744,same
0,44,catch,"[(1155, 781)]",[],[1],[],vertical,"(890.0, 762.0)",1.7,nan,1,580.291,3,0.045454545454545456,same
0,45,catch,"[(1180, 778)]",[],[1],[],vertical,"(890.0, 262.0)",1.7,nan,1,586.135,3,0.044444444444444446,same
0,46,catch,"[(1183, 774)]",[],[1],[],vertical,"(390.0, 262.0)",1.7,"('cti', 1.688),nan",0,591.953,0,0.06521739130434782,same
0,47,valid,"[(1142, 763)]",[],[1],[0.5166666666666666],horizontal,"(890.0, 762.0)",0.9166666666666666,0.491,1,596.902,1,0.06382978723404255,same
0,48,invalid_same_bar,"[(1165, 772)]",[],[1],[0.48333333333333334],vertical,"(390.0, 262.0)",1.25,0.443,1,602.057,1,0.0625,same
0,49,catch,"[(1175, 765)]",[],[1],[],vertical,"(890.0, 762.0)",1.7,nan,1,607.605,1,0.061224489795918366,same
0,50,valid,"[(1140, 804)]",[],[1],[0.55],vertical,"(390.0, 762.0)",1.1166666666666667,0.512,1,612.586,2,0.06,same
0,51,valid,"[(1180, 787)]",[],[1],[0.55],vertical,"(890.0, 762.0)",1.1833333333333333,0.505,1,618.136,2,0.06,same
0,52,catch,"[(1150, 794)]",[],[1],[],horizontal,"(890.0, 762.0)",1.7,nan,1,623.869,2,0.06,same
0,53,valid,"[(1170, 788)]",[],[1],[0.5166666666666666],horizontal,"(890.0, 762.0)",0.36666666666666664,0.473,1,630.136,3,0.06,same
0,54,valid,"[(1180, 763)]",[],[1],[0.5666666666666667],horizontal,"(390.0, 762.0)",1.0666666666666667,0.527,1,635.443,3,0.06,same
0,55,catch,"[(1164, 767)]",[],[1],[],vertical,"(890.0, 262.0)",1.7,nan,1,641.349,3,0.06,same
0,56,valid,"[(1156, 780)]",[],[1],[0.5166666666666666],horizontal,"(890.0, 762.0)",1.0333333333333332,0.474,1,647.125,3,0.06,same
0,57,valid,"[(1138, 792)]",[],[1],[0.7],vertical,"(390.0, 262.0)",1.1166666666666667,0.659,1,652.706,3,0.06,same
0,58,catch,"[(1169, 798)]",[],[1],[],vertical,"(390.0, 262.0)",1.7,nan,1,658.697,3,0.06,same
0,59,valid,"[(1171, 799)]",[],[1],[0.65],vertical,"(890.0, 762.0)",1.25,0.607,1,664.836,3,0.06,same
0,60,catch,"[(1176, 787)]",[],[1],[],vertical,"(390.0, 262.0)",1.7,nan,1,671.093,3,0.06,same
0,61,invalid_same_bar,"[(1171, 795)]",[],[1],[0.6833333333333333],vertical,"(390.0, 262.0)",1.0166666666666666,0.649,1,677.149,3,0.06,same
0,62,catch,"[(1158, 781)]",[],[1],[],horizontal,"(890.0, 762.0)",1.7,nan,1,683.17,3,0.06,same
0,63,valid,"[(1135, 798)]",[],[1],[0.6],vertical,"(890.0, 262.0)",0.8666666666666667,0.565,1,689.084,3,0.06,same
0,64,valid,"[(1145, 786)]",[],[1],[0.5],horizontal,"(390.0, 262.0)",0.9833333333333333,0.464,1,695.001,3,0.06,same
0,65,valid,"[(1185, 788)]",[],[1],[0.5166666666666666],horizontal,"(390.0, 762.0)",1.5,0.478,1,700.934,3,0.06,same
0,66,invalid_same_bar,"[(1185, 783)]",[],[1],[0.4666666666666667],vertical,"(890.0, 762.0)",1.1833333333333333,0.429,1,707.141,3,0.06,same
0,67,valid,"[(1159, 818)]",[],[1],[0.48333333333333334],vertical,"(390.0, 762.0)",0.9166666666666666,0.446,1,713.276,3,0.06,same
0,68,valid,"[(1160, 789)]",[],[1],[0.6166666666666667],vertical,"(390.0, 262.0)",0.95,0.581,1,718.804,3,0.06,same
0,69,valid,"[(1173, 773)]",[],[1],[0.5666666666666667],vertical,"(890.0, 262.0)",1.3166666666666667,0.534,1,724.899,3,0.06,same
0,70,valid,"[(1148, 813)]",[],[1],[0.6666666666666666],horizontal,"(890.0, 762.0)",0.65,0.623,1,730.869,3,0.06,same
0,71,invalid_same_bar,"[(1174, 782)]",[],[1],[0.5],horizontal,"(390.0, 262.0)",1.0666666666666667,0.461,1,736.353,3,0.06,same
0,72,valid,"[(1163, 785)]",[],[1],[0.6],vertical,"(890.0, 262.0)",0.8,0.568,1,741.886,3,0.04,same
0,73,valid,"[(1135, 774)]",[],[1],[0.5],vertical,"(890.0, 262.0)",0.95,0.46,1,747.819,3,0.04,same
0,74,valid,"[(1165, 783)]",[],[1],[0.5],horizontal,"(890.0, 262.0)",0.48333333333333334,0.46,1,753.419,3,0.04,same
0,75,catch,"[(1137, 769)]",[],[1],[],horizontal,"(890.0, 762.0)",1.7,nan,1,758.821,3,0.04,same
0,76,valid,"[(1166, 808)]",[],[1],[0.65],vertical,"(890.0, 262.0)",0.9333333333333333,0.609,1,764.884,3,0.04,same
0,77,valid,"[(1172, 808)]",[],[1],[0.55],vertical,"(390.0, 762.0)",1.2333333333333334,0.503,1,771.079,3,0.04,same
0,78,valid,"[(1125, 819)]",[],[1],[0.5166666666666666],vertical,"(390.0, 762.0)",0.95,0.479,1,776.977,3,0.02,same
0,79,catch,"[(1135, 817)]",[],[1],[],horizontal,"(890.0, 762.0)",1.7,nan,1,783.047,3,0.02,same
0,80,valid,"[(1157, 815)]",[],[1],[0.85],vertical,"(390.0, 262.0)",1.4333333333333333,nan,0,789.043,0,0.02,same
0,81,catch,"[(1146, 806)]",[],[1],[],vertical,"(390.0, 262.0)",1.7,nan,1,794.136,1,0.02,same
0,82,catch,"[(1140, 794)]",[],[1],[],vertical,"(890.0, 262.0)",1.7,nan,1,799.287,1,0.02,same
0,83,catch,"[(1180, 792)]",[],[1],[],vertical,"(890.0, 262.0)",1.7,nan,1,804.64,1,0.02,same
0,84,valid,"[(1141, 813)]",[],[1],[0.65],vertical,"(390.0, 262.0)",0.5666666666666667,0.611,1,810.099,2,0.02,same
0,85,valid,"[(1165, 824)]",[],[1],[0.5666666666666667],vertical,"(390.0, 762.0)",0.35,0.528,1,815.347,2,0.02,same
0,86,valid,"[(1138, 823)]",[],[1],[0.5666666666666667],vertical,"(890.0, 262.0)",0.6,0.522,1,820.378,2,0.02,same
0,87,valid,"[(1165, 802)]",[],[1],[0.55],horizontal,"(890.0, 762.0)",0.8666666666666667,0.513,1,825.907,3,0.02,same
0,88,valid,"[(1162, 817)]",[],[1],[0.48333333333333334],horizontal,"(890.0, 762.0)",0.43333333333333335,0.443,1,831.653,3,0.02,same
0,89,valid,"[(1157, 799)]",[],[1],[0.85],vertical,"(890.0, 262.0)",0.5166666666666666,nan,0,837.32,0,0.02,same
0,90,invalid_same_bar,"[(1160, 813)]",[],[1],[0.4166666666666667],horizontal,"(890.0, 762.0)",1.25,0.38,1,841.891,1,0.02,same
0,91,valid,"[(1159, 781)]",[],[1],[0.48333333333333334],vertical,"(890.0, 262.0)",1.15,0.445,1,846.994,1,0.02,same
0,92,valid,"[(1086, 776)]",[],[1],[0.85],vertical,"(890.0, 762.0)",0.85,nan,0,852.223,0,0.02,same
0,93,valid,"[(1139, 806)]",[],[1],[0.6666666666666666],horizontal,"(390.0, 262.0)",1.3,0.623,1,857.035,1,0.02,same
0,94,catch,"[(1135, 785)]",[],[1],[],vertical,"(890.0, 762.0)",1.7,nan,1,862.328,1,0.02,same
0,95,catch,"[(1182, 801)]",[],[1],[],vertical,"(890.0, 762.0)",1.7,nan,1,867.824,1,0.02,same
0,96,valid,"[(1184, 813)]",[],[1],[0.5333333333333333],vertical,"(390.0, 762.0)",1.2166666666666666,0.494,1,873.02,2,0.0,same
0,97,valid,"[(1125, 809)]",[],[1],[0.48333333333333334],horizontal,"(890.0, 762.0)",1.0,0.444,1,878.936,2,0.0,same
0,98,valid,"[(1155, 799)]",[],[1],[0.6333333333333333],vertical,"(390.0, 762.0)",1.5166666666666666,0.593,1,884.447,2,0.0,same
0,99,catch,"[(1132, 791)]",[],[1],[],horizontal,"(390.0, 262.0)",1.7,nan,1,890.542,3,0.0,same
0,100,valid,"[(1180, 808)]",[],[1],[0.48333333333333334],vertical,"(390.0, 262.0)",1.1833333333333333,0.451,1,896.774,3,0.0,same
0,101,catch,"[(1176, 794)]",[],[1],[],vertical,"(890.0, 262.0)",1.7,nan,1,902.885,3,0.0,same
0,102,valid,"[(1175, 787)]",[],[1],[0.5166666666666666],horizontal,"(890.0, 762.0)",0.43333333333333335,0.473,1,909.009,3,0.0,same
0,103,valid,"[(1178, 812)]",[],[1],[0.5],vertical,"(390.0, 762.0)",0.85,0.457,1,913.994,3,0.0,same
0,104,valid,"[(1162, 800)]",[],[1],[0.55],horizontal,"(890.0, 762.0)",1.0666666666666667,0.514,1,919.704,3,0.0,same
0,105,valid,"[(1183, 800)]",[],[1],[0.85],vertical,"(890.0, 262.0)",0.35,nan,0,925.372,0,0.0,same
0,106,valid,"[(1127, 799)]",[],[1],[0.6],vertical,"(890.0, 262.0)",0.65,0.556,1,929.62,1,0.0,same
0,107,invalid_same_bar,"[(1165, 787)]",[],[1],[0.6166666666666667],horizontal,"(390.0, 762.0)",1.1666666666666667,0.579,1,934.771,1,0.0,same
0,108,catch,"[(1173, 802)]",[],[1],[],horizontal,"(890.0, 762.0)",1.7,nan,1,940.022,1,0.0,same
0,109,catch,"[(1166, 802)]",[],[1],[],horizontal,"(890.0, 262.0)",1.7,nan,1,945.557,2,0.0,same
0,110,valid,"[(1160, 789)]",[],[1],[0.5833333333333334],horizontal,"(890.0, 762.0)",0.35,0.54,1,950.851,2,0.0,same
0,111,valid,"[(1175, 800)]",[],[1],[0.5833333333333334],horizontal,"(890.0, 262.0)",1.2833333333333332,0.543,1,955.759,2,0.0,same
0,112,valid,"[(1155, 812)]",[],[1],[0.6333333333333333],horizontal,"(390.0, 262.0)",0.45,0.592,1,961.535,3,0.0,same
0,113,invalid_same_bar,"[(1155, 792)]",[],[1],[0.5333333333333333],horizontal,"(390.0, 262.0)",0.85,0.5,1,967.17,3,0.0,same
0,114,catch,"[(1165, 796)]",[],[1],[],vertical,"(390.0, 762.0)",1.7,nan,1,972.904,3,0.0,same
0,115,valid,"[(1146, 812)]",[],[1],[0.5],vertical,"(390.0, 762.0)",0.6833333333333333,0.464,1,978.959,3,0.0,same
0,116,invalid_adjacent_other_bar,"[(1178, 794)]",[],[1],[0.5166666666666666],vertical,"(390.0, 262.0)",0.8166666666666667,0.475,1,984.071,3,0.0,other
0,117,valid,"[(1155, 779)]",[],[1],[0.5],vertical,"(890.0, 262.0)",0.55,0.461,1,990.019,3,0.0,same
0,118,valid,"[(1175, 777)]",[],[1],[0.48333333333333334],horizontal,"(390.0, 262.0)",1.3,0.446,1,995.503,3,0.0,same
0,119,valid,"[(1160, 825)]",[],[1],[0.5833333333333334],horizontal,"(390.0, 762.0)",1.0,0.537,1,1001.462,3,0.0,same
0,120,valid,"[(1185, 811)]",[],[1],[0.5166666666666666],vertical,"(890.0, 262.0)",1.0833333333333333,0.479,1,1007.355,3,0.0,same
0,121,valid,"[(1160, 795)]",[],[1],[0.7],horizontal,"(390.0, 762.0)",0.85,0.655,1,1013.57,3,0.0,same
0,122,valid,"[(1173, 785)]",[],[1],[0.5666666666666667],vertical,"(390.0, 262.0)",0.55,0.53,1,1019.744,3,0.0,same
0,123,catch,"[(1121, 824)]",[],[1],[],vertical,"(890.0, 762.0)",1.7,nan,1,1025.07,3,0.0,same
0,124,invalid_adjacent_other_bar,"[(1165, 829)]",[],[1],[0.85],horizontal,"(890.0, 262.0)",0.4166666666666667,nan,0,1031.02,0,0.0,other
0,125,catch,"[(1128, 794)]",[],[1],[],horizontal,"(390.0, 762.0)",1.7,nan,1,1035.3,1,0.0,same
0,126,valid,"[(1176, 789)]",[],[1],[0.5833333333333334],horizontal,"(390.0, 262.0)",1.0666666666666667,0.543,1,1040.687,1,0.0,same
0,127,valid,"[(1174, 801)]",[],[1],[0.5666666666666667],vertical,"(890.0, 262.0)",0.43333333333333335,0.528,1,1045.954,1,0.0,same
0,128,valid,"[(1165, 819)]",[],[1],[0.55],horizontal,"(390.0, 762.0)",0.7,0.509,1,1050.683,2,0.0,same
0,129,valid,"[(1156, 803)]",[],[1],[0.5166666666666666],vertical,"(890.0, 762.0)",0.8833333333333333,0.476,1,1055.871,2,0.0,same
0,130,catch,"[(1155, 829)]",[],[1],[],vertical,"(390.0, 762.0)",1.7,nan,1,1060.952,2,0.0,same
0,131,valid,"[(1175, 811)]",[],[1],[0.48333333333333334],vertical,"(390.0, 762.0)",1.5166666666666666,0.444,1,1066.838,3,0.0,same
0,132,valid,"[(1178, 804)]",[],[1],[0.5166666666666666],vertical,"(890.0, 762.0)",0.36666666666666664,0.477,1,1073.556,3,0.0,same
0,133,invalid_same_bar,"[(1178, 796)]",[],[1],[0.11666666666666667],horizontal,"(890.0, 762.0)",1.0166666666666666,0.087,0,1078.674,0,0.0,same
0,134,valid,"[(1168, 787)]",[],[1],[0.55],horizontal,"(390.0, 762.0)",0.55,0.508,1,1083.113,1,0.0,same
0,135,valid,"[(1165, 786)]",[],[1],[0.5833333333333334],horizontal,"(390.0, 762.0)",0.8333333333333334,0.539,1,1087.798,1,0.0,same
0,136,invalid_adjacent_other_bar,"[(1165, 786)]",[],[1],[0.85],vertical,"(390.0, 262.0)",0.8666666666666667,nan,0,1092.788,0,0.0,other
0,137,valid,"[(1165, 795)]",[],[1],[0.48333333333333334],horizontal,"(890.0, 762.0)",0.9166666666666666,0.446,1,1097.088,1,0.0,same
0,138,valid,"[(1163, 807)]",[],[1],[0.48333333333333334],vertical,"(890.0, 762.0)",1.3333333333333333,0.446,1,1102.052,1,0.0,same
0,139,valid,"[(1204, 808)]",[],[1],[0.48333333333333334],horizontal,"(390.0, 262.0)",0.7833333333333333,0.436,1,1107.171,1,0.0,same
0,140,valid,"[(1169, 799)]",[],[1],[0.5833333333333334],vertical,"(390.0, 262.0)",0.5666666666666667,0.549,1,1112.27,2,0.0,same
0,141,valid,"[(1170, 821)]",[],[1],[0.45],vertical,"(890.0, 262.0)",1.4166666666666667,0.412,1,1117.304,2,0.0,same
0,142,catch,"[(1176, 808)]",[],[1],[],horizontal,"(390.0, 262.0)",1.7,nan,1,1123.272,2,0.0,same
0,143,valid,"[(1130, 824)]",[],[1],[0.35],horizontal,"(390.0, 262.0)",1.4166666666666667,0.314,1,1128.622,3,0.0,same
0,144,catch,"[(1130, 825)]",[],[1],[],vertical,"(390.0, 262.0)",1.7,nan,1,1135.072,3,0.0,same
0,145,valid,"[(1127, 824)]",[],[1],[0.3333333333333333],vertical,"(890.0, 262.0)",0.8833333333333333,0.294,1,1141.44,3,0.0,same
0,146,valid,"[(1141, 856)]",[],[1],[0.55],vertical,"(390.0, 262.0)",1.2,0.514,1,1148.31,3,0.0,same
0,147,valid,"[(1165, 832)]",[],[1],[0.48333333333333334],horizontal,"(890.0, 262.0)",0.6333333333333333,0.452,1,1229.872,3,0.0,same
0,148,catch,"[(1166, 823)]",[],[1],[],horizontal,"(390.0, 762.0)",1.7,nan,1,1235.402,3,0.0,same
0,149,invalid_same_bar,"[(1165, 798)]",[],[1],[0.5166666666666666],horizontal,"(890.0, 262.0)",0.85,0.477,1,1241.368,3,0.0,same
0,150,valid,"[(1170, 820)]",[],[1],[0.6166666666666667],vertical,"(890.0, 762.0)",0.3833333333333333,0.573,1,1247.139,3,0.0,same
0,151,invalid_adjacent_other_bar,"[(1132, 788)]",[],[1],[0.6166666666666667],vertical,"(890.0, 762.0)",0.43333333333333335,0.57,1,1252.555,3,0.0,other
0,152,catch,"[(1172, 796)]",[],[1],[],horizontal,"(390.0, 762.0)",1.7,nan,1,1257.679,3,0.0,same
0,153,valid,"[(1173, 818)]",[],[1],[0.5666666666666667],horizontal,"(390.0, 262.0)",0.36666666666666664,0.525,1,1263.498,3,0.0,same
0,154,valid,"[(1176, 778)]",[],[1],[0.7],horizontal,"(890.0, 762.0)",1.4166666666666667,0.66,1,1269.054,3,0.0,same
0,155,catch,"[(1170, 791)]",[],[1],[],horizontal,"(890.0, 762.0)",1.7,nan,1,1275.298,3,0.0,same
0,156,valid,"[(1170, 787)]",[],[1],[0.7666666666666666],vertical,"(890.0, 262.0)",0.75,0.72,1,1281.438,3,0.0,same
0,157,valid,"[(1170, 798)]",[],[1],[0.5166666666666666],horizontal,"(390.0, 262.0)",1.0166666666666666,0.471,1,1287.859,3,0.0,same
0,158,valid,"[(1169, 782)]",[],[1],[0.5333333333333333],horizontal,"(890.0, 762.0)",1.45,0.496,1,1293.905,3,0.0,same
0,159,catch,"[(1165, 791)]",[],[1],[],vertical,"(390.0, 262.0)",1.7,nan,1,1300.049,3,0.0,same
0,160,catch,"[(1170, 787)]",[],[1],[],horizontal,"(890.0, 262.0)",1.7,nan,1,1306.303,3,0.0,same
0,161,valid,"[(1167, 791)]",[],[1],[0.85],vertical,"(390.0, 762.0)",0.55,nan,0,1312.4,0,0.0,same
0,162,valid,"[(1135, 785)]",[],[1],[0.5666666666666667],horizontal,"(390.0, 262.0)",1.0166666666666666,0.532,1,1316.839,1,0.0,same
0,163,valid,"[(1178, 803)]",[],[1],[0.5833333333333334],horizontal,"(390.0, 262.0)",1.1333333333333333,0.542,1,1321.782,1,0.0,same
0,164,valid,"[(1170, 803)]",[],[1],[0.5],vertical,"(890.0, 262.0)",0.48333333333333334,0.458,1,1327.018,1,0.0,same
0,165,catch,"[(1168, 794)]",[],[1],[],horizontal,"(890.0, 762.0)",1.7,nan,1,1331.338,2,0.0,same
0,166,valid,"[(1166, 789)]",[],[1],[0.43333333333333335],horizontal,"(890.0, 762.0)",1.4,0.392,1,1337.005,2,0.0,same
0,167,valid,"[(1168, 813)]",[],[1],[0.6],horizontal,"(890.0, 762.0)",1.05,0.557,1,1342.538,2,0.0,same
0,168,invalid_same_bar,"[(1179, 799)]",[],[1],[0.6],vertical,"(390.0, 762.0)",0.8666666666666667,0.555,1,1348.421,3,0.0,same
0,169,valid,"[(1169, 797)]",[],[1],[0.5],horizontal,"(390.0, 762.0)",0.85,0.46,1,1354.91,3,0.0,same
0,170,valid,"[(1178, 820)]",[],[1],[0.48333333333333334],horizontal,"(890.0, 262.0)",1.0833333333333333,0.442,1,1360.504,3,0.0,same
0,171,valid,"[(1194, 789)]",[],[1],[0.5833333333333334],horizontal,"(890.0, 262.0)",1.4,0.536,1,1366.321,3,0.0,same
0,172,valid,"[(1184, 809)]",[],[1],[0.5333333333333333],horizontal,"(890.0, 262.0)",0.9,0.49,1,1372.505,3,0.0,same
0,173,catch,"[(1165, 772)]",[],[1],[],vertical,"(390.0, 762.0)",1.7,nan,1,1378.234,3,0.0,same
0,174,catch,"[(1175, 804)]",[],[1],[],vertical,"(390.0, 262.0)",1.7,nan,1,1384.568,3,0.0,same
0,175,valid,"[(1180, 789)]",[],[1],[0.5666666666666667],vertical,"(890.0, 262.0)",1.45,0.521,1,1390.489,3,0.0,same
0,176,valid,"[(1170, 795)]",[],[1],[0.5333333333333333],vertical,"(890.0, 262.0)",0.35,0.49,1,1397.064,3,0.0,same
0,177,catch,"[(1169, 782)]",[],[1],[],vertical,"(890.0, 262.0)",1.7,nan,1,1402.022,3,0.0,same
0,178,catch,"[(1167, 820)]",[],[1],[],vertical,"(390.0, 262.0)",1.7,nan,1,1407.571,3,0.0,same
0,179,catch,"[(1168, 803)]",[],[1],[],vertical,"(390.0, 262.0)",1.7,nan,1,1413.821,3,0.0,same
0,180,catch,"[(1178, 791)]",[],[1],[],vertical,"(890.0, 762.0)",1.7,nan,1,1419.66,3,0.0,same
0,181,invalid_same_bar,"[(1185, 801)]",[],[1],[0.6],vertical,"(890.0, 262.0)",1.4666666666666666,0.561,1,1426.021,3,0.0,same
0,182,valid,"[(1174, 779)]",[],[1],[0.6333333333333333],vertical,"(890.0, 762.0)",1.4333333333333333,0.587,1,1432.453,3,0.0,same
0,183,valid,"[(1185, 773)]",[],[1],[0.6333333333333333],horizontal,"(890.0, 762.0)",0.4,0.584,1,1438.971,3,0.0,same
0,184,valid,"[(1165, 778)]",[],[1],[0.6],vertical,"(390.0, 262.0)",1.0333333333333332,0.556,1,1444.595,3,0.0,same
0,185,valid,"[(1169, 789)]",[],[1],[0.6333333333333333],horizontal,"(890.0, 262.0)",1.2166666666666666,0.594,1,1450.224,3,0.0,same
0,186,catch,"[(1163, 780)]",[],[1],[],horizontal,"(890.0, 762.0)",1.7,nan,1,1456.146,3,0.0,same
0,187,valid,"[(1165, 798)]",[],[1],[0.85],vertical,"(890.0, 762.0)",1.3,nan,0,1462.022,0,0.0,same
0,188,valid,"[(1164, 799)]",[],[1],[0.5833333333333334],vertical,"(890.0, 762.0)",1.4,0.541,1,1467.339,1,0.0,same
0,189,valid,"[(1178, 807)]",[],[1],[0.5],horizontal,"(390.0, 762.0)",1.5,0.462,1,1472.975,1,0.0,same
0,190,invalid_adjacent_other_bar,"[(1157, 803)]",[],[1],[0.48333333333333334],vertical,"(890.0, 262.0)",1.1666666666666667,0.447,1,1478.206,1,0.0,other
0,191,valid,"[(1155, 796)]",[],[1],[0.5666666666666667],horizontal,"(390.0, 262.0)",1.45,0.523,1,1483.492,2,0.0,same
0,192,valid,"[(1174, 785)]",[],[1],[0.5666666666666667],vertical,"(390.0, 762.0)",0.8833333333333333,0.523,1,1489.571,2,0.0,same
0,193,valid,"[(1163, 808)]",[],[1],[0.55],horizontal,"(390.0, 762.0)",1.35,0.509,1,1494.956,2,0.0,same
0,194,catch,"[(1170, 784)]",[],[1],[],vertical,"(890.0, 262.0)",1.7,nan,1,1500.622,3,0.0,same
0,195,valid,"[(1185, 794)]",[],[1],[0.35],horizontal,"(890.0, 262.0)",1.35,0.31,1,1507.037,3,0.0,same
0,196,valid,"[(1170, 789)]",[],[1],[0.5833333333333334],vertical,"(390.0, 762.0)",1.5,0.539,1,1513.121,3,0.0,same
0,197,valid,"[(1165, 808)]",[],[1],[0.5833333333333334],horizontal,"(390.0, 262.0)",0.36666666666666664,0.544,1,1519.433,3,0.0,same
0,198,invalid_same_bar,"[(1170, 789)]",[],[1],[0.55],vertical,"(390.0, 762.0)",0.7,0.512,1,1524.514,3,0.0,same
0,199,catch,"[(1170, 792)]",[],[1],[],vertical,"(890.0, 262.0)",1.7,nan,1,1530.545,3,0.0,same
0,200,invalid_same_bar,"[(1170, 788)]",[],[1],[0.5],vertical,"(890.0, 262.0)",0.9833333333333333,0.458,1,1536.853,3,0.0,same
0,201,valid,"[(1166, 801)]",[],[1],[0.85],horizontal,"(890.0, 762.0)",0.4666666666666667,nan,0,1542.735,0,0.0,same
0,202,valid,"[(1135, 792)]",[],[1],[0.7666666666666666],horizontal,"(890.0, 762.0)",0.5,0.721,1,1546.685,1,0.0,same
0,203,invalid_same_bar,"[(1172, 800)]",[],[1],[0.48333333333333334],horizontal,"(390.0, 262.0)",0.6666666666666666,0.445,1,1551.544,1,0.0,same
0,204,valid,"[(1185, 806)]",[],[1],[0.5166666666666666],horizontal,"(390.0, 262.0)",0.4666666666666667,0.473,1,1556.324,1,0.0,same
0,205,invalid_same_bar,"[(1170, 804)]",[],[1],[0.5],vertical,"(390.0, 262.0)",0.5666666666666667,0.461,1,1560.755,2,0.0,same
0,206,valid,"[(1170, 794)]",[],[1],[0.5666666666666667],vertical,"(390.0, 762.0)",0.7166666666666667,0.531,1,1565.71,2,0.0,same
0,207,invalid_same_bar,"[(1160, 799)]",[],[1],[0.6],vertical,"(390.0, 762.0)",0.4,0.556,1,1571.046,2,0.0,same
0,208,valid,"[(1172, 821)]",[],[1],[0.5666666666666667],horizontal,"(390.0, 762.0)",1.2666666666666666,0.529,1,1575.831,3,0.0,same
0,209,valid,"[(1160, 779)]",[],[1],[0.5166666666666666],horizontal,"(890.0, 262.0)",1.0833333333333333,0.474,1,1582.238,3,0.0,same
0,210,valid,"[(1169, 781)]",[],[1],[0.55],horizontal,"(390.0, 762.0)",1.3666666666666667,0.507,1,1588.088,3,0.0,same
0,211,valid,"[(1181, 765)]",[],[1],[0.55],horizontal,"(890.0, 262.0)",1.25,0.507,1,1594.094,3,0.0,same
0,212,valid,"[(1160, 800)]",[],[1],[0.65],horizontal,"(390.0, 762.0)",1.15,0.609,1,1599.948,3,0.0,same
0,213,valid,"[(1175, 823)]",[],[1],[0.85],horizontal,"(890.0, 762.0)",0.6166666666666667,nan,0,1606.156,0,0.0,same
0,214,valid,"[(1138, 799)]",[],[1],[0.6166666666666667],vertical,"(890.0, 762.0)",0.45,0.576,1,1610.789,1,0.0,same
0,215,catch,"[(1175, 795)]",[],[1],[],vertical,"(890.0, 262.0)",1.7,nan,1,1616.382,1,0.0,same
0,216,valid,"[(1175, 794)]",[],[1],[0.55],horizontal,"(390.0, 262.0)",1.05,0.508,1,1621.877,1,0.0,same
0,217,valid,"[(1165, 799)]",[],[1],[0.6666666666666666],horizontal,"(390.0, 762.0)",1.2833333333333332,0.622,1,1626.543,2,0.0,same
0,218,valid,"[(1165, 821)]",[],[1],[0.5],horizontal,"(390.0, 262.0)",0.75,0.461,1,1632.604,2,0.0,same
0,219,valid,"[(1131, 825)]",[],[1],[0.6],horizontal,"(390.0, 262.0)",0.95,0.556,1,1638.08,2,0.0,same
0,220,valid,"[(1156, 821)]",[],[1],[0.5833333333333334],horizontal,"(390.0, 262.0)",1.1666666666666667,0.541,1,1644.026,3,0.0,same
0,221,valid,"[(1166, 798)]",[],[1],[0.6333333333333333],vertical,"(890.0, 262.0)",0.35,0.591,1,1650.039,3,0.0,same
0,222,valid,"[(1161, 797)]",[],[1],[0.6833333333333333],vertical,"(890.0, 762.0)",1.2166666666666666,0.639,1,1655.607,3,0.0,same
0,223,catch,"[(1156, 794)]",[],[1],[],vertical,"(390.0, 762.0)",1.7,nan,1,1661.489,3,0.0,same
0,224,valid,"[(1164, 797)]",[],[1],[0.85],vertical,"(390.0, 262.0)",0.9833333333333333,nan,0,1667.289,0,0.0,same
0,225,valid,"[(1128, 843)]",[],[1],[0.06666666666666667],horizontal,"(890.0, 762.0)",1.5166666666666666,0.035,0,1672.355,0,0.0,same
0,226,valid,"[(1166, 791)]",[],[1],[0.6],vertical,"(890.0, 262.0)",0.4666666666666667,0.56,1,1684.822,1,0.0,same
0,227,valid,"[(1155, 792)]",[],[1],[0.6333333333333333],vertical,"(390.0, 762.0)",0.9166666666666666,0.596,1,1689.421,1,0.0,same
0,228,invalid_same_bar,"[(1164, 791)]",[],[1],[0.7333333333333333],vertical,"(890.0, 762.0)",0.9166666666666666,0.694,1,1694.735,1,0.0,same
0,229,invalid_adjacent_other_bar,"[(1143, 804)]",[],[1],[0.85],horizontal,"(390.0, 762.0)",0.48333333333333334,nan,0,1699.889,0,0.0,other
0,230,invalid_same_bar,"[(1081, 822)]",[],[1],[0.4666666666666667],vertical,"(890.0, 262.0)",1.2333333333333334,0.429,1,1704.158,1,0.0,same
0,231,valid,"[(1135, 823)]",[],[1],[0.4666666666666667],horizontal,"(890.0, 762.0)",1.2666666666666666,0.431,1,1721.073,1,0.0,same
0,232,valid,"[(1165, 789)]",[],[1],[0.5333333333333333],vertical,"(890.0, 762.0)",1.0333333333333332,0.491,1,1726.951,1,0.0,same
0,233,catch,"[(1148, 774)]",[],[1],[],vertical,"(390.0, 762.0)",1.7,nan,1,1732.053,2,0.0,same
0,234,valid,"[(1164, 813)]",[],[1],[0.5],horizontal,"(390.0, 762.0)",0.7166666666666667,0.47,1,1737.456,2,0.0,same
0,235,valid,"[(1155, 808)]",[],[1],[0.55],horizontal,"(390.0, 262.0)",0.48333333333333334,0.518,1,1742.11,2,0.0,same
0,236,valid,"[(1170, 809)]",[],[1],[0.5],vertical,"(890.0, 262.0)",1.1333333333333333,0.46,1,1747.054,3,0.0,same
0,237,valid,"[(1178, 805)]",[],[1],[0.45],vertical,"(890.0, 262.0)",1.0666666666666667,0.411,1,1753.342,3,0.0,same
0,238,catch,"[(1160, 812)]",[],[1],[],vertical,"(890.0, 262.0)",1.7,nan,1,1759.523,3,0.0,same
0,239,valid,"[(1144, 822)]",[],[1],[0.5],horizontal,"(390.0, 262.0)",0.36666666666666664,0.462,1,1765.627,3,0.0,same
0,240,invalid_adjacent_other_bar,"[(1100, 833)]",[],[1],[0.85],vertical,"(390.0, 262.0)",1.1833333333333333,nan,0,1771.046,0,0.0,other
0,241,catch,"[(1155, 802)]",[],[1],[],horizontal,"(890.0, 762.0)",1.7,nan,1,1775.99,1,0.0,same
0,242,catch,"[(1164, 780)]",[],[1],[],horizontal,"(890.0, 262.0)",1.7,nan,1,1781.208,1,0.0,same
0,243,valid,"[(1165, 804)]",[],[1],[0.5],vertical,"(890.0, 762.0)",1.1333333333333333,0.457,1,1786.456,1,0.0,same
0,244,invalid_same_bar,"[(1165, 794)]",[],[1],[0.85],horizontal,"(390.0, 762.0)",0.6166666666666667,nan,0,1791.261,0,0.0,same
0,245,catch,"[(1135, 783)]",[],[1],[],horizontal,"(890.0, 762.0)",1.7,nan,1,1795.74,1,0.0,same
0,246,valid,"[(1165, 807)]",[],[1],[0.5166666666666666],horizontal,"(890.0, 762.0)",0.6,0.478,1,1800.826,1,0.0,same
0,247,catch,"[(1164, 788)]",[],[1],[],vertical,"(390.0, 762.0)",1.7,nan,1,1805.566,1,0.0,same
0,248,valid,"[(1171, 799)]",[],[1],[0.7],vertical,"(890.0, 762.0)",0.6833333333333333,0.656,1,1810.712,2,0.0,same
0,249,valid,"[(1160, 786)]",[],[1],[0.3333333333333333],horizontal,"(390.0, 262.0)",0.8666666666666667,0.297,1,1816.322,2,0.0,same
0,250,valid,"[(1171, 775)]",[],[1],[0.85],horizontal,"(890.0, 762.0)",1.5166666666666666,"('cti', 1.513),nan",0,1821.638,0,0.0,same
0,251,valid,"[(1160, 813)]",[],[1],[0.5333333333333333],vertical,"(390.0, 762.0)",1.3333333333333333,0.495,1,1827.039,1,0.0,same
0,252,valid,"[(1154, 823)]",[],[1],[0.85],vertical,"(390.0, 762.0)",0.6333333333333333,nan,0,1833.039,0,0.0,same
0,253,valid,"[(1121, 807)]",[],[1],[0.85],vertical,"(890.0, 762.0)",0.95,nan,0,1838.089,0,0.0,same
0,254,catch,"[(1162, 783)]",[],[1],[],horizontal,"(390.0, 762.0)",1.7,nan,1,1842.723,1,0.0,same
0,255,valid,"[(1122, 828)]",[],[1],[0.5166666666666666],horizontal,"(890.0, 762.0)",0.4666666666666667,0.478,1,1848.257,1,0.0,same
0,256,valid,"[(1164, 808)]",[],[1],[0.5333333333333333],vertical,"(390.0, 262.0)",1.2666666666666666,0.49,1,1859.254,1,0.0,same
0,257,valid,"[(1135, 823)]",[],[1],[0.5333333333333333],horizontal,"(890.0, 262.0)",1.5,0.496,1,1864.435,2,0.0,same
0,258,valid,"[(1163, 785)]",[],[1],[0.5833333333333334],vertical,"(890.0, 262.0)",0.43333333333333335,0.543,1,1870.506,2,0.0,same
0,259,invalid_same_bar,"[(1160, 808)]",[],[1],[0.5166666666666666],horizontal,"(890.0, 762.0)",0.5,0.476,1,1875.182,2,0.0,same
0,260,valid,"[(1162, 795)]",[],[1],[0.6166666666666667],vertical,"(890.0, 262.0)",0.5666666666666667,0.571,1,1879.926,3,0.0,same
0,261,invalid_adjacent_other_bar,"[(1172, 820)]",[],[1],[0.5333333333333333],horizontal,"(390.0, 762.0)",1.0166666666666666,0.494,1,1885.265,3,0.0,other
0,262,valid,"[(1132, 781)]",[],[1],[0.4166666666666667],vertical,"(390.0, 762.0)",1.2833333333333332,0.381,1,1890.963,3,0.0,same
0,263,valid,"[(1168, 788)]",[],[1],[0.55],horizontal,"(890.0, 762.0)",1.2333333333333334,0.509,1,1897.273,3,0.0,same
0,264,catch,"[(1168, 782)]",[],[1],[],vertical,"(890.0, 762.0)",1.7,nan,1,1903.245,3,0.0,same
0,265,valid,"[(1178, 785)]",[],[1],[0.4666666666666667],vertical,"(390.0, 762.0)",1.2166666666666666,0.432,1,1908.991,3,0.0,same
0,266,valid,"[(1172, 803)]",[],[1],[0.5333333333333333],horizontal,"(890.0, 762.0)",1.1833333333333333,0.494,1,1915.19,3,0.0,same
0,267,catch,"[(1166, 811)]",[],[1],[0.03333333333333333],vertical,"(390.0, 262.0)",1.7,"0.019,nan",0,1920.891,0,0.02,same
0,268,catch,"[(1165, 787)]",[],[1],[],vertical,"(890.0, 262.0)",1.7,nan,1,1925.855,1,0.02,same
0,269,valid,"[(1175, 798)]",[],[1],[0.55],vertical,"(390.0, 262.0)",1.3333333333333333,0.517,1,1931.38,1,0.02,same
0,270,valid,"[(1112, 829)]",[],[1],[0.55],vertical,"(890.0, 262.0)",0.6166666666666667,0.508,1,1936.994,1,0.02,same
0,271,valid,"[(1143, 819)]",[],[1],[0.6166666666666667],vertical,"(390.0, 762.0)",1.4833333333333334,0.58,1,1941.891,2,0.02,same
0,272,valid,"[(1165, 817)]",[],[1],[0.5],vertical,"(390.0, 762.0)",1.3,0.461,1,1947.964,2,0.02,same
0,273,catch,"[(1161, 803)]",[],[1],[],horizontal,"(390.0, 262.0)",1.7,nan,1,1953.807,2,0.02,same
0,274,valid,"[(1136, 818)]",[],[1],[0.5166666666666666],horizontal,"(890.0, 262.0)",1.1166666666666667,0.476,1,1959.774,3,0.02,same
0,275,catch,"[(1172, 822)]",[],[1],[],horizontal,"(390.0, 762.0)",1.7,nan,1,1966.091,3,0.02,same
0,276,catch,"[(1137, 805)]",[],[1],[],vertical,"(390.0, 262.0)",1.7,nan,1,1972.306,3,0.02,same
0,277,valid,"[(1135, 804)]",[],[1],[0.6666666666666666],vertical,"(890.0, 262.0)",1.1333333333333333,0.635,1,1978.84,3,0.02,same
0,278,valid,"[(1170, 795)]",[],[1],[0.85],vertical,"(390.0, 762.0)",0.3833333333333333,nan,0,1984.823,0,0.02,same
0,279,valid,"[(1143, 822)]",[],[1],[0.5833333333333334],vertical,"(890.0, 762.0)",1.4333333333333333,0.538,1,1988.824,1,0.02,same
0,280,invalid_adjacent_other_bar,"[(1141, 786)]",[],[1],[0.5333333333333333],vertical,"(890.0, 262.0)",1.0666666666666667,0.493,1,1994.355,1,0.02,other
0,281,valid,"[(1160, 811)]",[],[1],[0.5166666666666666],horizontal,"(890.0, 262.0)",0.9333333333333333,0.472,1,1999.755,1,0.02,same
0,282,invalid_adjacent_other_bar,"[(1165, 802)]",[],[1],[0.6],horizontal,"(390.0, 262.0)",1.1166666666666667,0.563,1,2004.749,2,0.02,other
0,283,catch,"[(1164, 809)]",[],[1],[],horizontal,"(390.0, 762.0)",1.7,nan,1,2010.564,2,0.02,same
0,284,valid,"[(1165, 796)]",[],[1],[0.5166666666666666],vertical,"(890.0, 762.0)",0.48333333333333334,0.478,1,2016.208,2,0.02,same
0,285,invalid_same_bar,"[(1159, 790)]",[],[1],[0.7333333333333333],vertical,"(890.0, 762.0)",0.7833333333333333,0.693,1,2021.302,3,0.02,same
0,286,valid,"[(1175, 794)]",[],[1],[0.6166666666666667],vertical,"(890.0, 262.0)",1.45,0.574,1,2027.748,3,0.02,same
0,287,catch,"[(1165, 774)]",[],[1],[],horizontal,"(390.0, 262.0)",1.7,nan,1,2034.341,3,0.02,same
0,288,catch,"[(1160, 783)]",[],[1],[],vertical,"(390.0, 262.0)",1.7,nan,1,2040.241,3,0.02,same
0,289,valid,"[(1168, 793)]",[],[1],[0.55],horizontal,"(890.0, 762.0)",0.7,0.509,1,2046.099,3,0.02,same
0,290,catch,"[(1166, 812)]",[],[1],[],horizontal,"(390.0, 262.0)",1.7,nan,1,2051.591,3,0.02,same
0,291,invalid_same_bar,"[(1170, 788)]",[],[1],[0.5666666666666667],horizontal,"(390.0, 762.0)",0.5166666666666666,0.527,1,2057.807,3,0.02,same
0,292,catch,"[(1175, 787)]",[],[1],[],vertical,"(390.0, 762.0)",1.7,nan,1,2063.185,3,0.02,same
0,293,valid,"[(1159, 819)]",[],[1],[0.85],vertical,"(890.0, 262.0)",0.6833333333333333,nan,0,2069.441,0,0.02,same
0,294,valid,"[(1131, 785)]",[],[1],[0.6833333333333333],vertical,"(390.0, 762.0)",0.95,0.638,1,2074.176,1,0.02,same
0,295,valid,"[(1155, 808)]",[],[1],[0.6333333333333333],vertical,"(890.0, 262.0)",0.35,0.592,1,2079.307,1,0.02,same
0,296,valid,"[(1180, 788)]",[],[1],[0.5666666666666667],horizontal,"(390.0, 262.0)",0.65,0.535,1,2083.582,1,0.02,same
0,297,valid,"[(1160, 802)]",[],[1],[0.85],horizontal,"(390.0, 262.0)",0.9666666666666667,nan,0,2088.713,0,0.02,same
0,298,catch,"[(1149, 790)]",[],[1],[],horizontal,"(390.0, 262.0)",1.7,nan,1,2093.785,1,0.02,same
0,299,catch,"[(1169, 824)]",[],[1],[],horizontal,"(890.0, 262.0)",1.7,nan,1,2098.924,1,0.02,same
0,300,valid,"[(1160, 818)]",[],[1],[0.5833333333333334],vertical,"(890.0, 762.0)",0.36666666666666664,0.544,1,2104.018,1,0.02,same
0,301,valid,"[(1165, 795)]",[],[1],[0.85],horizontal,"(890.0, 762.0)",1.0666666666666667,nan,0,2108.616,0,0.02,same
0,302,valid,"[(1169, 798)]",[],[1],[0.55],vertical,"(890.0, 262.0)",0.95,0.506,1,2113.617,1,0.02,same
0,303,valid,"[(1171, 789)]",[],[1],[0.5166666666666666],horizontal,"(890.0, 762.0)",0.8,0.476,1,2118.594,1,0.02,same
0,304,invalid_same_bar,"[(1175, 779)]",[],[1],[0.5166666666666666],vertical,"(390.0, 762.0)",0.6166666666666667,0.472,1,2123.67,1,0.02,same
0,305,catch,"[(1171, 799)]",[],[1],[],horizontal,"(390.0, 262.0)",1.7,nan,1,2128.208,2,0.02,same
0,306,valid,"[(1175, 809)]",[],[1],[0.5833333333333334],vertical,"(390.0, 262.0)",1.0,0.537,1,2134.147,2,0.02,same
0,307,valid,"[(1160, 789)]",[],[1],[0.55],horizontal,"(890.0, 762.0)",0.48333333333333334,0.51,1,2139.694,2,0.02,same
0,308,valid,"[(1147, 779)]",[],[1],[0.6666666666666666],vertical,"(890.0, 762.0)",1.0166666666666666,0.625,1,2144.393,3,0.02,same
0,309,valid,"[(1165, 799)]",[],[1],[0.55],horizontal,"(390.0, 762.0)",0.6,0.509,1,2150.107,3,0.02,same
0,310,catch,"[(1174, 780)]",[],[1],[],vertical,"(390.0, 762.0)",1.7,nan,1,2155.248,3,0.02,same
0,311,catch,"[(1121, 828)]",[],[1],[],vertical,"(390.0, 262.0)",1.7,nan,1,2161.469,3,0.02,same
0,312,valid,"[(1160, 802)]",[],[1],[0.5166666666666666],horizontal,"(390.0, 262.0)",0.9666666666666667,0.477,1,2167.491,3,0.02,same
0,313,valid,"[(1135, 816)]",[],[1],[0.6166666666666667],vertical,"(890.0, 762.0)",0.5333333333333333,0.574,1,2173.242,3,0.02,same
0,314,catch,"[(1169, 784)]",[],[1],[],vertical,"(390.0, 762.0)",1.7,nan,1,2178.725,3,0.02,same
0,315,catch,"[(1159, 780)]",[],[1],[],vertical,"(390.0, 762.0)",1.7,nan,1,2184.301,3,0.02,same
0,316,valid,"[(1169, 803)]",[],[1],[0.55],vertical,"(390.0, 762.0)",0.5333333333333333,0.509,1,2190.675,3,0.02,same
0,317,catch,"[(1175, 793)]",[],[1],[],vertical,"(390.0, 762.0)",1.7,nan,1,2196.199,3,0.0,same
0,318,valid,"[(1160, 795)]",[],[1],[0.55],vertical,"(390.0, 262.0)",0.43333333333333335,0.509,1,2202.132,3,0.0,same
0,319,catch,"[(1161, 800)]",[],[1],[],horizontal,"(390.0, 262.0)",1.7,nan,1,2207.34,3,0.0,same
0,320,valid,"[(1175, 790)]",[],[1],[0.5166666666666666],vertical,"(890.0, 762.0)",1.4833333333333334,0.481,1,2213.784,3,0.0,same
0,321,catch,"[(1142, 799)]",[],[1],[],vertical,"(390.0, 262.0)",1.7,nan,1,2219.626,3,0.0,same
0,322,valid,"[(1156, 779)]",[],[1],[0.5],vertical,"(890.0, 762.0)",0.7,0.455,1,2225.758,3,0.0,same
0,323,valid,"[(1146, 806)]",[],[1],[0.6833333333333333],horizontal,"(890.0, 262.0)",1.0,0.647,1,2231.013,3,0.0,same
0,324,valid,"[(1130, 812)]",[],[1],[0.85],vertical,"(390.0, 762.0)",0.4666666666666667,nan,0,2236.974,0,0.0,same
0,325,invalid_adjacent_other_bar,"[(1131, 809)]",[],[1],[0.7666666666666666],vertical,"(390.0, 762.0)",0.85,0.725,1,2241.524,1,0.0,other
0,326,valid,"[(1163, 808)]",[],[1],[0.4666666666666667],horizontal,"(390.0, 262.0)",1.3666666666666667,0.433,1,2246.647,1,0.0,same
0,327,valid,"[(1188, 789)]",[],[1],[0.65],horizontal,"(390.0, 762.0)",0.5,0.61,1,2252.415,1,0.0,same
0,328,valid,"[(1158, 800)]",[],[1],[0.5],horizontal,"(890.0, 262.0)",0.6833333333333333,0.461,1,2257.199,2,0.0,same
0,329,valid,"[(1160, 782)]",[],[1],[0.5],vertical,"(890.0, 762.0)",1.05,0.462,1,2262.799,2,0.0,same
0,330,valid,"[(1140, 794)]",[],[1],[0.5166666666666666],horizontal,"(390.0, 262.0)",0.8333333333333334,0.48,1,2267.992,2,0.0,same
0,331,valid,"[(1166, 796)]",[],[1],[0.5],vertical,"(890.0, 762.0)",0.43333333333333335,0.457,1,2273.19,3,0.0,same
0,332,valid,"[(1179, 819)]",[],[1],[0.85],horizontal,"(890.0, 762.0)",0.9,nan,0,2278.658,0,0.0,same
0,333,catch,"[(1160, 803)]",[],[1],[],horizontal,"(390.0, 762.0)",1.7,nan,1,2283.124,1,0.0,same
0,334,valid,"[(1173, 807)]",[],[1],[0.6666666666666666],horizontal,"(390.0, 762.0)",0.3833333333333333,0.622,1,2288.103,1,0.0,same
0,335,valid,"[(1115, 858)]",[],[1],[0.5],horizontal,"(390.0, 262.0)",0.8666666666666667,0.456,1,2292.956,1,0.0,same
0,336,valid,"[(1160, 797)]",[],[1],[0.4166666666666667],horizontal,"(890.0, 262.0)",1.3166666666666667,0.375,1,2297.942,2,0.0,same
0,337,invalid_same_bar,"[(1163, 792)]",[],[1],[0.5333333333333333],vertical,"(890.0, 262.0)",1.4666666666666666,0.494,1,2303.757,2,0.0,same
0,338,valid,"[(1134, 805)]",[],[1],[0.5666666666666667],vertical,"(390.0, 262.0)",0.8666666666666667,0.525,1,2309.625,2,0.0,same
0,339,valid,"[(1160, 811)]",[],[1],[0.6333333333333333],horizontal,"(390.0, 262.0)",0.43333333333333335,0.589,1,2315.109,3,0.0,same
0,340,valid,"[(1178, 800)]",[],[1],[0.5333333333333333],vertical,"(390.0, 762.0)",1.0,0.495,1,2320.892,3,0.0,same
0,341,valid,"[(1135, 774)]",[],[1],[0.85],horizontal,"(390.0, 262.0)",1.1666666666666667,nan,0,2326.729,0,0.0,same
0,342,catch,"[(1133, 817)]",[],[1],[],horizontal,"(890.0, 262.0)",1.7,nan,1,2331.609,1,0.0,same
0,343,valid,"[(1165, 804)]",[],[1],[0.4666666666666667],horizontal,"(390.0, 262.0)",1.3166666666666667,0.436,1,2336.707,1,0.0,same
0,344,invalid_adjacent_other_bar,"[(1135, 803)]",[],[1],[0.6333333333333333],vertical,"(890.0, 762.0)",1.1666666666666667,0.587,1,2342.131,1,0.0,other
0,345,valid,"[(1130, 797)]",[],[1],[0.55],horizontal,"(890.0, 762.0)",1.2166666666666666,0.515,1,2347.66,2,0.0,same
0,346,catch,"[(1167, 791)]",[],[1],[],vertical,"(890.0, 762.0)",1.7,nan,1,2353.059,2,0.0,same
0,347,catch,"[(1108, 850)]",[],[1],[],vertical,"(390.0, 762.0)",,"('cti', 0.603),nan",0,2358.718,0,0.02,same
0,348,valid,"[(1118, 826)]",[],[1],[0.6333333333333333],horizontal,"(390.0, 762.0)",0.7833333333333333,0.589,1,2955.281,1,0.02,same
0,349,invalid_adjacent_other_bar,"[(1158, 787)]",[],[1],[0.6166666666666667],vertical,"(890.0, 262.0)",0.5333333333333333,0.576,1,2959.97,1,0.02,other
0,350,catch,"[(1165, 783)]",[],[1],[],horizontal,"(890.0, 262.0)",1.7,nan,1,2964.444,1,0.02,same
0,351,catch,"[(1165, 792)]",[],[1],[],vertical,"(390.0, 762.0)",1.7,nan,1,2969.894,2,0.02,same
0,352,valid,"[(1165, 779)]",[],[1],[0.6666666666666666],horizontal,"(890.0, 262.0)",0.5666666666666667,0.628,1,2975.577,2,0.02,same
0,353,valid,"[(1189, 802)]",[],[1],[0.5666666666666667],vertical,"(390.0, 262.0)",1.2666666666666666,0.528,1,2980.33,2,0.02,same
0,354,invalid_adjacent_other_bar,"[(1158, 803)]",[],[1],[0.85],vertical,"(890.0, 762.0)",0.4166666666666667,nan,0,2986.275,0,0.02,other
0,355,catch,"[(1135, 793)]",[],[1],[],vertical,"(390.0, 262.0)",1.7,nan,1,2990.651,1,0.02,same
0,356,catch,"[(1162, 803)]",[],[1],[],horizontal,"(390.0, 762.0)",1.7,nan,1,2995.816,1,0.02,same
0,357,valid,"[(1170, 804)]",[],[1],[0.5833333333333334],horizontal,"(390.0, 262.0)",0.6833333333333333,0.542,1,3000.997,1,0.02,same
0,358,valid,"[(1148, 780)]",[],[1],[0.5333333333333333],horizontal,"(890.0, 262.0)",0.4,0.489,1,3005.47,2,0.02,same
0,359,invalid_adjacent_other_bar,"[(1166, 792)]",[],[1],[0.5],horizontal,"(890.0, 262.0)",1.35,0.46,1,3010.81,2,0.02,other
0,360,valid,"[(1135, 803)]",[],[1],[0.5166666666666666],horizontal,"(890.0, 762.0)",1.2333333333333334,0.477,1,3016.517,2,0.02,same
0,361,catch,"[(1175, 799)]",[],[1],[],vertical,"(890.0, 762.0)",1.7,nan,1,3021.737,3,0.02,same
0,362,catch,"[(1174, 788)]",[],[1],[],vertical,"(390.0, 762.0)",1.7,nan,1,3027.938,3,0.02,same
0,363,catch,"[(1182, 808)]",[],[1],[],horizontal,"(890.0, 262.0)",1.7,nan,1,3034.043,3,0.02,same
0,364,catch,"[(1131, 802)]",[],[1],[],vertical,"(890.0, 262.0)",1.7,nan,1,3039.977,3,0.02,same
0,365,valid,"[(1137, 806)]",[],[1],[0.5333333333333333],horizontal,"(890.0, 262.0)",1.05,0.494,1,3045.61,3,0.02,same
0,366,valid,"[(1199, 786)]",[],[1],[0.45],vertical,"(890.0, 262.0)",1.4,0.408,1,3051.233,3,0.02,same
0,367,valid,"[(1176, 797)]",[],[1],[0.5166666666666666],horizontal,"(390.0, 262.0)",0.4166666666666667,0.492,1,3057.506,3,0.02,same
0,368,catch,"[(1161, 808)]",[],[1],[],horizontal,"(890.0, 262.0)",1.7,nan,1,3062.61,3,0.02,same
0,369,catch,"[(1167, 806)]",[],[1],[],horizontal,"(890.0, 762.0)",1.7,nan,1,3068.561,3,0.02,same
0,370,valid,"[(1165, 759)]",[],[1],[0.55],horizontal,"(890.0, 262.0)",1.2666666666666666,0.507,1,3074.826,3,0.02,same
0,371,valid,"[(1129, 781)]",[],[1],[0.6],horizontal,"(890.0, 762.0)",0.6833333333333333,0.556,1,3080.693,3,0.02,same
0,372,catch,"[(1136, 795)]",[],[1],[0.03333333333333333],horizontal,"(890.0, 262.0)",1.7,"0.019,nan",0,3086.393,0,0.04,same
0,373,valid,"[(1159, 815)]",[],[1],[0.5833333333333334],horizontal,"(890.0, 262.0)",0.7,0.544,1,3091.61,1,0.04,same
0,374,valid,"[(1153, 805)]",[],[1],[0.5],horizontal,"(390.0, 262.0)",0.7166666666666667,0.456,1,3096.491,1,0.04,same
0,375,valid,"[(1133, 809)]",[],[1],[0.6166666666666667],vertical,"(390.0, 762.0)",0.5666666666666667,0.576,1,3101.045,1,0.04,same
0,376,invalid_same_bar,"[(1162, 785)]",[],[1],[0.5166666666666666],horizontal,"(890.0, 762.0)",0.6666666666666666,0.476,1,3106.246,2,0.04,same
0,377,valid,"[(1165, 784)]",[],[1],[0.55],vertical,"(890.0, 262.0)",0.7333333333333333,0.505,1,3111.146,2,0.04,same
0,378,valid,"[(1165, 786)]",[],[1],[0.85],vertical,"(390.0, 262.0)",0.6666666666666666,nan,0,3116.261,0,0.04,same
0,379,valid,"[(1159, 791)]",[],[1],[0.5166666666666666],vertical,"(890.0, 262.0)",1.0833333333333333,0.474,1,3120.594,1,0.04,same
0,380,catch,"[(1129, 827)]",[],[1],[],horizontal,"(890.0, 262.0)",1.7,nan,1,3125.493,1,0.04,same
0,381,catch,"[(1178, 802)]",[],[1],[],vertical,"(890.0, 762.0)",1.7,nan,1,3130.8,1,0.04,same
0,382,valid,"[(1179, 795)]",[],[1],[0.85],vertical,"(390.0, 762.0)",0.4666666666666667,nan,0,3136.177,0,0.04,same
0,383,valid,"[(1146, 797)]",[],[1],[0.6166666666666667],horizontal,"(390.0, 262.0)",1.35,0.573,1,3140.694,1,0.04,same
0,384,valid,"[(1166, 799)]",[],[1],[0.5333333333333333],horizontal,"(390.0, 762.0)",1.0,0.497,1,3146.335,1,0.04,same
0,385,valid,"[(1171, 809)]",[],[1],[0.65],vertical,"(390.0, 262.0)",0.7,0.612,1,3151.778,1,0.04,same
0,386,valid,"[(1180, 794)]",[],[1],[0.55],horizontal,"(390.0, 762.0)",0.85,0.511,1,3156.759,2,0.04,same
0,387,valid,"[(1169, 794)]",[],[1],[0.6166666666666667],horizontal,"(390.0, 262.0)",0.7833333333333333,0.584,1,3162.211,2,0.04,same
0,388,invalid_same_bar,"[(1178, 793)]",[],[1],[0.5166666666666666],vertical,"(390.0, 762.0)",0.8,0.479,1,3167.242,2,0.04,same
0,389,valid,"[(1148, 847)]",[],[1],[0.55],vertical,"(390.0, 262.0)",1.3833333333333333,0.506,1,3172.594,3,0.04,same
0,390,valid,"[(1110, 784)]",[],[1],[0.6333333333333333],horizontal,"(890.0, 262.0)",1.3166666666666667,0.592,1,3179.325,3,0.04,same
0,391,valid,"[(1210, 795)]",[],[1],[0.48333333333333334],vertical,"(890.0, 262.0)",0.9666666666666667,0.441,1,3185.293,3,0.04,same
0,392,valid,"[(1169, 790)]",[],[1],[0.65],horizontal,"(390.0, 762.0)",0.4166666666666667,0.609,1,3190.817,3,0.04,same
0,393,valid,"[(1179, 775)]",[],[1],[0.48333333333333334],vertical,"(890.0, 262.0)",1.15,0.445,1,3196.616,3,0.04,same
0,394,valid,"[(1180, 790)]",[],[1],[0.5666666666666667],vertical,"(890.0, 262.0)",1.1,0.528,1,3202.811,3,0.04,same
0,395,catch,"[(1178, 804)]",[],[1],[],horizontal,"(890.0, 762.0)",1.7,nan,1,3208.652,3,0.04,same
0,396,valid,"[(1166, 800)]",[],[1],[0.6333333333333333],vertical,"(390.0, 262.0)",1.0166666666666666,0.591,1,3214.612,3,0.04,same
0,397,invalid_adjacent_other_bar,"[(1180, 814)]",[],[1],[0.5166666666666666],horizontal,"(890.0, 762.0)",0.9,0.479,1,3220.583,3,0.02,other
0,398,valid,"[(1181, 815)]",[],[1],[0.5333333333333333],horizontal,"(890.0, 262.0)",0.8666666666666667,0.491,1,3226.05,3,0.02,same
0,399,valid,"[(1189, 795)]",[],[1],[0.6166666666666667],horizontal,"(890.0, 762.0)",1.1833333333333333,0.583,1,3231.743,3,0.02,same
0,400,valid,"[(1175, 793)]",[],[1],[0.6],horizontal,"(890.0, 262.0)",1.4666666666666666,0.557,1,3237.778,3,0.02,same
0,401,catch,"[(1165, 791)]",[],[1],[],horizontal,"(390.0, 262.0)",1.7,nan,1,3243.85,3,0.02,same
0,402,valid,"[(1181, 805)]",[],[1],[0.5166666666666666],horizontal,"(890.0, 762.0)",0.48333333333333334,0.471,1,3249.679,3,0.02,same
0,403,valid,"[(1180, 791)]",[],[1],[0.6],vertical,"(890.0, 262.0)",1.1833333333333333,0.559,1,3254.745,3,0.02,same
0,404,invalid_same_bar,"[(1175, 800)]",[],[1],[0.5],horizontal,"(890.0, 762.0)",0.9833333333333333,0.46,1,3260.678,3,0.02,same
0,405,valid,"[(1175, 794)]",[],[1],[0.65],horizontal,"(390.0, 762.0)",0.43333333333333335,0.616,1,3266.471,3,0.02,same
0,406,valid,"[(1180, 785)]",[],[1],[0.5333333333333333],vertical,"(890.0, 262.0)",0.43333333333333335,0.495,1,3272.127,3,0.02,same
0,407,catch,"[(1170, 824)]",[],[1],[],vertical,"(890.0, 262.0)",1.7,nan,1,3276.912,3,0.02,same
0,408,valid,"[(1178, 789)]",[],[1],[0.6333333333333333],horizontal,"(890.0, 262.0)",0.4666666666666667,0.598,1,3283.405,3,0.02,same
0,409,invalid_adjacent_other_bar,"[(1166, 789)]",[],[1],[0.85],vertical,"(390.0, 262.0)",0.3833333333333333,nan,0,3288.376,0,0.02,other
0,410,valid,"[(1169, 793)]",[],[1],[0.5833333333333334],vertical,"(890.0, 762.0)",0.43333333333333335,0.546,1,3292.503,1,0.02,same
0,411,valid,"[(1175, 774)]",[],[1],[0.5166666666666666],horizontal,"(890.0, 262.0)",0.65,0.476,1,3296.944,1,0.02,same
0,412,catch,"[(1155, 804)]",[],[1],[],vertical,"(890.0, 262.0)",1.7,nan,1,3301.328,1,0.02,same
0,413,valid,"[(1131, 806)]",[],[1],[0.4166666666666667],vertical,"(890.0, 762.0)",1.45,0.376,1,3306.555,2,0.02,same
0,414,catch,"[(1161, 810)]",[],[1],[],vertical,"(890.0, 262.0)",1.7,nan,1,3312.515,2,0.02,same
0,415,catch,"[(1152, 785)]",[],[1],[],horizontal,"(890.0, 762.0)",,"('cti', 1.64),nan",0,3318.22,0,0.04,same
0,416,valid,"[(1169, 793)]",[],[1],[0.65],vertical,"(890.0, 262.0)",1.0333333333333332,0.605,1,3322.802,1,0.04,same
0,417,valid,"[(1175, 793)]",[],[1],[0.85],vertical,"(390.0, 762.0)",1.0,nan,0,3328.273,0,0.04,same
0,418,catch,"[(1135, 795)]",[],[1],[],vertical,"(390.0, 262.0)",1.7,nan,1,3333.294,1,0.04,same
0,419,catch,"[(1160, 791)]",[],[1],[],horizontal,"(390.0, 262.0)",1.7,nan,1,3338.661,1,0.04,same
0,420,valid,"[(1165, 781)]",[],[1],[0.5],horizontal,"(890.0, 262.0)",0.9666666666666667,0.465,1,3344.21,1,0.04,same
0,421,catch,"[(1104, 803)]",[],[1],[],vertical,"(890.0, 262.0)",1.7,nan,1,3349.261,2,0.04,same
0,422,valid,"[(1126, 828)]",[],[1],[0.5166666666666666],horizontal,"(890.0, 262.0)",1.2833333333333332,0.485,1,3354.828,2,0.02,same
0,423,valid,"[(1163, 806)]",[],[1],[0.85],vertical,"(390.0, 762.0)",0.8,nan,0,3360.9,0,0.02,same
0,424,catch,"[(1132, 786)]",[],[1],[],vertical,"(390.0, 762.0)",1.7,nan,1,3365.871,1,0.02,same
0,425,valid,"[(1169, 779)]",[],[1],[0.5833333333333334],horizontal,"(890.0, 262.0)",0.9666666666666667,0.544,1,3371.111,1,0.02,same
0,426,valid,"[(1157, 783)]",[],[1],[0.5],vertical,"(890.0, 762.0)",1.0333333333333332,0.46,1,3375.794,1,0.02,same
0,427,valid,"[(1165, 787)]",[],[1],[0.48333333333333334],vertical,"(890.0, 762.0)",1.4333333333333333,0.447,1,3380.827,2,0.02,same
0,428,catch,"[(1170, 798)]",[],[1],[],vertical,"(890.0, 762.0)",,"('cti', 1.671),nan",0,3386.79,0,0.04,same
0,429,catch,"[(1086, 823)]",[],[1],[],horizontal,"(390.0, 262.0)",1.7,nan,1,3391.678,1,0.04,same
0,430,valid,"[(1131, 813)]",[],[1],[0.48333333333333334],horizontal,"(890.0, 762.0)",1.3166666666666667,0.445,1,3401.572,1,0.04,same
0,431,catch,"[(1142, 794)]",[],[1],[],vertical,"(390.0, 262.0)",1.7,nan,1,3406.711,1,0.04,same
0,432,catch,"[(1145, 800)]",[],[1],[],horizontal,"(890.0, 762.0)",1.7,nan,1,3411.727,2,0.04,same
0,433,valid,"[(1161, 786)]",[],[1],[0.5833333333333334],horizontal,"(890.0, 762.0)",0.7666666666666666,0.545,1,3417.795,2,0.04,same
0,434,valid,"[(1164, 787)]",[],[1],[0.5166666666666666],vertical,"(890.0, 262.0)",0.5166666666666666,0.476,1,3422.756,2,0.04,same
0,435,catch,"[(1165, 782)]",[],[1],[],horizontal,"(890.0, 762.0)",1.7,nan,1,3427.577,3,0.04,same
0,436,valid,"[(1161, 783)]",[],[1],[0.48333333333333334],vertical,"(890.0, 762.0)",1.1333333333333333,0.447,1,3433.663,3,0.04,same
0,437,valid,"[(1210, 794)]",[],[1],[0.5],vertical,"(890.0, 262.0)",0.9,0.457,1,3439.361,3,0.04,same
0,438,valid,"[(1090, 793)]",[],[1],[0.6],horizontal,"(890.0, 262.0)",0.6666666666666666,0.559,1,3444.962,3,0.04,same
0,439,catch,"[(1180, 779)]",[],[1],[],vertical,"(890.0, 262.0)",1.7,nan,1,3450.244,3,0.04,same
0,440,valid,"[(1155, 791)]",[],[1],[0.5333333333333333],horizontal,"(390.0, 262.0)",0.5833333333333334,0.497,1,3456.361,3,0.04,same
0,441,valid,"[(1130, 807)]",[],[1],[0.5],horizontal,"(890.0, 262.0)",1.0333333333333332,0.465,1,3461.512,3,0.04,same
0,442,valid,"[(1163, 786)]",[],[1],[0.5166666666666666],horizontal,"(890.0, 762.0)",0.4166666666666667,0.476,1,3467.116,3,0.04,same
0,443,invalid_adjacent_other_bar,"[(1131, 813)]",[],[1],[0.6166666666666667],horizontal,"(890.0, 762.0)",0.9833333333333333,0.576,1,3472.451,3,0.04,other
0,444,invalid_adjacent_other_bar,"[(1181, 804)]",[],[1],[0.5166666666666666],horizontal,"(390.0, 262.0)",1.35,0.478,1,3478.355,3,0.04,other
0,445,valid,"[(1138, 797)]",[],[1],[0.5333333333333333],horizontal,"(390.0, 262.0)",0.6,0.493,1,3484.312,3,0.04,same
0,446,valid,"[(1155, 807)]",[],[1],[0.5],vertical,"(890.0, 762.0)",0.55,0.461,1,3489.9,3,0.04,same
0,447,catch,"[(1180, 817)]",[],[1],[],horizontal,"(390.0, 262.0)",,"('cti', 1.542),nan",0,3495.313,0,0.06,same
0,448,valid,"[(1141, 802)]",[],[1],[0.7],vertical,"(890.0, 762.0)",1.1833333333333333,0.66,1,3500.462,1,0.06,same
0,449,invalid_adjacent_other_bar,"[(1170, 809)]",[],[1],[0.85],horizontal,"(390.0, 262.0)",0.65,nan,0,3506.281,0,0.06,other
0,450,valid,"[(1082, 864)]",[],[1],[0.85],vertical,"(390.0, 262.0)",0.6166666666666667,nan,0,3510.889,0,0.06,same
0,451,valid,"[(1108, 813)]",[],[1],[0.5333333333333333],horizontal,"(390.0, 262.0)",0.6666666666666666,0.489,1,6961.671,1,0.06,same
0,452,catch,"[(1130, 828)]",[],[1],[],horizontal,"(390.0, 262.0)",1.7,nan,1,6966.451,1,0.06,same
0,453,valid,"[(1137, 829)]",[],[1],[0.6333333333333333],horizontal,"(390.0, 762.0)",0.4166666666666667,0.592,1,6971.653,1,0.06,same
0,454,catch,"[(1156, 821)]",[],[1],[],horizontal,"(390.0, 262.0)",1.7,nan,1,6976.323,2,0.06,same
0,455,valid,"[(1158, 791)]",[],[1],[0.5833333333333334],horizontal,"(890.0, 762.0)",1.45,0.539,1,6982.405,2,0.06,same
0,456,valid,"[(1146, 793)]",[],[1],[0.6],vertical,"(390.0, 262.0)",1.2166666666666666,0.565,1,6988.32,2,0.06,same
0,457,valid,"[(1141, 837)]",[],[1],[0.5666666666666667],vertical,"(890.0, 262.0)",0.35,0.527,1,6994.495,3,0.06,same
0,458,catch,"[(1157, 812)]",[],[1],[],horizontal,"(390.0, 762.0)",1.7,nan,1,7000.185,3,0.06,same
0,459,valid,"[(1134, 787)]",[],[1],[0.65],vertical,"(390.0, 262.0)",1.3666666666666667,0.607,1,7006.022,3,0.06,same
0,460,valid,"[(1135, 802)]",[],[1],[0.85],horizontal,"(390.0, 762.0)",1.2,nan,0,7012.321,0,0.06,same
0,461,valid,"[(1130, 802)]",[],[1],[0.5166666666666666],horizontal,"(390.0, 262.0)",1.0666666666666667,0.48,1,7017.22,1,0.06,same
0,462,catch,"[(1140, 813)]",[],[1],[],horizontal,"(890.0, 262.0)",1.7,nan,1,7022.238,1,0.06,same
0,463,valid,"[(1148, 806)]",[],[1],[0.5666666666666667],horizontal,"(890.0, 262.0)",1.3333333333333333,0.527,1,7027.538,1,0.06,same
0,464,valid,"[(1138, 816)]",[],[1],[0.5833333333333334],horizontal,"(890.0, 262.0)",0.95,0.543,1,7032.835,2,0.06,same
0,465,valid,"[(1156, 800)]",[],[1],[0.5833333333333334],vertical,"(390.0, 262.0)",1.5166666666666666,0.545,1,7038.005,2,0.04,same
0,466,valid,"[(1141, 801)]",[],[1],[0.5],horizontal,"(890.0, 262.0)",0.9333333333333333,0.46,1,7043.54,2,0.04,same
0,467,valid,"[(1137, 803)]",[],[1],[0.55],horizontal,"(390.0, 762.0)",1.4166666666666667,0.512,1,7048.806,3,0.04,same
0,468,valid,"[(1165, 792)]",[],[1],[0.85],vertical,"(890.0, 762.0)",1.4666666666666666,nan,0,7055.088,0,0.04,same
0,469,catch,"[(1121, 795)]",[],[1],[],horizontal,"(390.0, 762.0)",1.7,nan,1,7059.971,1,0.04,same
0,470,valid,"[(1093, 872)]",[],[1],[0.85],horizontal,"(890.0, 262.0)",0.5333333333333333,nan,0,7065.412,0,0.04,same
0,471,valid,"[(1112, 819)]",[],[1],[0.85],vertical,"(890.0, 262.0)",0.9666666666666667,nan,0,8350.01,0,0.04,same
0,472,valid,"[(1090, 827)]",[],[1],[0.85],vertical,"(390.0, 262.0)",1.1666666666666667,nan,0,8354.843,0,0.04,same
0,473,valid,"[(1130, 859)]",[],[1],[0.55],vertical,"(890.0, 762.0)",1.3166666666666667,0.51,1,8361.752,1,0.04,same
0,474,valid,"[(1076, 789)]",[],[1],[0.5833333333333334],horizontal,"(890.0, 762.0)",1.4333333333333333,0.539,1,8372.088,1,0.04,same
0,475,catch,"[(1145, 815)]",[],[1],[],horizontal,"(390.0, 262.0)",1.7,nan,1,8377.41,1,0.04,same
0,476,invalid_same_bar,"[(1160, 811)]",[],[1],[0.85],vertical,"(890.0, 762.0)",0.85,nan,0,8383.299,0,0.04,same
0,477,valid,"[(1140, 791)]",[],[1],[0.65],horizontal,"(890.0, 762.0)",1.0,0.608,1,8387.654,1,0.04,same
0,478,invalid_adjacent_other_bar,"[(1174, 805)]",[],[1],[0.85],vertical,"(890.0, 262.0)",0.3833333333333333,nan,0,8392.576,0,0.02,other
0,479,valid,"[(1121, 803)]",[],[1],[0.5166666666666666],horizontal,"(890.0, 762.0)",1.0,0.478,1,8397.014,1,0.02,same
0,480,valid,"[(1165, 788)]",[],[1],[0.85],horizontal,"(890.0, 762.0)",0.95,nan,0,8402.377,0,0.02,same
0,481,catch,"[(1140, 794)]",[],[1],[],horizontal,"(390.0, 762.0)",1.7,nan,1,8407.069,1,0.02,same
0,482,valid,"[(1158, 791)]",[],[1],[0.6333333333333333],horizontal,"(890.0, 262.0)",0.6666666666666666,0.593,1,8412.21,1,0.02,same
0,483,catch,"[(1145, 782)]",[],[1],[],vertical,"(890.0, 762.0)",1.7,nan,1,8417.376,1,0.02,same
0,484,invalid_adjacent_other_bar,"[(1140, 784)]",[],[1],[0.85],horizontal,"(890.0, 262.0)",0.9,nan,0,8422.463,0,0.02,other
0,485,valid,"[(1104, 786)]",[],[1],[0.55],horizontal,"(390.0, 762.0)",0.9,0.506,1,8427.776,1,0.02,same
0,486,valid,"[(1165, 799)]",[],[1],[0.85],horizontal,"(890.0, 762.0)",0.4666666666666667,nan,0,8432.744,0,0.02,same
0,487,catch,"[(1111, 815)]",[],[1],[],horizontal,"(890.0, 762.0)",1.7,nan,1,8436.598,1,0.02,same
0,488,catch,"[(1155, 783)]",[],[1],[],vertical,"(390.0, 262.0)",1.7,nan,1,8442.464,1,0.02,same
0,489,valid,"[(1160, 800)]",[],[1],[0.8166666666666667],vertical,"(390.0, 762.0)",0.36666666666666664,0.762,1,8447.41,1,0.02,same
0,490,catch,"[(1167, 809)]",[],[1],[],horizontal,"(390.0, 762.0)",1.7,nan,1,8452.006,2,0.02,same
0,491,valid,"[(1114, 820)]",[],[1],[0.5666666666666667],vertical,"(890.0, 262.0)",0.65,0.528,1,8458.505,2,0.02,same
0,492,catch,"[(1160, 777)]",[],[1],[],vertical,"(390.0, 762.0)",1.7,nan,1,8463.381,2,0.02,same
0,493,valid,"[(1164, 789)]",[],[1],[0.6166666666666667],horizontal,"(890.0, 262.0)",1.1666666666666667,0.576,1,8469.185,3,0.02,same
0,494,valid,"[(1130, 808)]",[],[1],[0.5833333333333334],vertical,"(390.0, 762.0)",0.35,0.544,1,8475.376,3,0.02,same
0,495,catch,"[(1138, 783)]",[],[1],[],vertical,"(390.0, 262.0)",1.7,nan,1,8480.978,3,0.02,same
0,496,valid,"[(1160, 799)]",[],[1],[0.7333333333333333],horizontal,"(890.0, 762.0)",1.4833333333333334,0.685,1,8487.204,3,0.02,same
0,497,catch,"[(1160, 801)]",[],[1],[],horizontal,"(890.0, 262.0)",1.7,nan,1,8493.522,3,0.0,same
0,498,invalid_adjacent_other_bar,"[(1148, 817)]",[],[1],[0.5166666666666666],horizontal,"(390.0, 262.0)",0.5166666666666666,0.479,1,8499.717,3,0.0,other
0,499,valid,"[(1162, 811)]",[],[1],[0.5333333333333333],horizontal,"(390.0, 262.0)",0.8666666666666667,0.493,1,8505.377,3,0.0,same
0,500,invalid_adjacent_other_bar,"[(1170, 810)]",[],[1],[0.55],horizontal,"(390.0, 762.0)",0.9833333333333333,0.506,1,8510.742,3,0.0,other
0,501,valid,"[(1165, 800)]",[],[1],[0.5666666666666667],horizontal,"(390.0, 762.0)",1.4166666666666667,0.537,1,8516.516,3,0.0,same
0,502,invalid_same_bar,"[(1133, 803)]",[],[1],[0.85],vertical,"(890.0, 262.0)",0.5666666666666667,nan,0,8522.724,0,0.0,same
0,503,valid,"[(1115, 794)]",[],[1],[0.85],vertical,"(890.0, 262.0)",0.5333333333333333,nan,0,8527.459,0,0.0,same
0,504,catch,"[(1115, 784)]",[],[1],[],vertical,"(390.0, 762.0)",1.7,nan,1,8531.743,1,0.0,same
0,505,valid,"[(1162, 800)]",[],[1],[0.6166666666666667],vertical,"(390.0, 262.0)",0.45,0.574,1,8537.143,1,0.0,same
0,506,valid,"[(1163, 811)]",[],[1],[0.48333333333333334],horizontal,"(890.0, 262.0)",0.75,0.442,1,8541.544,1,0.0,same
0,507,catch,"[(1179, 827)]",[],[1],[],horizontal,"(890.0, 762.0)",1.7,nan,1,8546.426,2,0.0,same
0,508,valid,"[(1156, 821)]",[],[1],[0.75],horizontal,"(890.0, 762.0)",1.0,0.706,1,8552.042,2,0.0,same
0,509,catch,"[(1157, 799)]",[],[1],[],horizontal,"(890.0, 262.0)",1.7,nan,1,8557.843,2,0.0,same
0,510,valid,"[(1160, 803)]",[],[1],[0.5166666666666666],horizontal,"(890.0, 262.0)",0.5666666666666667,0.474,1,8563.67,3,0.0,same
0,511,valid,"[(1162, 785)]",[],[1],[],vertical,"(890.0, 262.0)",,"('fix', 0.315)",0,8569.28,0,0.0,same
0,512,valid,"[(1145, 805)]",[],[1],[0.85],horizontal,"(890.0, 762.0)",0.5333333333333333,nan,0,8570.989,0,0.0,same
0,513,invalid_adjacent_other_bar,"[(1145, 798)]",[],[1],[0.6166666666666667],vertical,"(890.0, 762.0)",0.8666666666666667,0.571,1,8575.444,1,0.0,other
0,514,catch,"[(1158, 797)]",[],[1],[],vertical,"(890.0, 262.0)",1.7,nan,1,8580.543,1,0.0,same
0,515,valid,"[(1162, 789)]",[],[1],[0.6],horizontal,"(390.0, 262.0)",0.36666666666666664,0.554,1,8585.527,1,0.0,same
0,516,valid,"[(1161, 811)]",[],[1],[0.4666666666666667],horizontal,"(890.0, 262.0)",1.5,0.422,1,8590.273,2,0.0,same
0,517,invalid_adjacent_other_bar,"[(1124, 807)]",[],[1],[0.85],vertical,"(390.0, 762.0)",1.2,nan,0,8596.586,0,0.0,other
0,518,valid,"[(1145, 790)]",[],[1],[0.5333333333333333],horizontal,"(390.0, 262.0)",1.0333333333333332,0.492,1,8601.859,1,0.0,same
0,519,valid,"[(1115, 812)]",[],[1],[0.55],horizontal,"(890.0, 762.0)",0.7333333333333333,0.513,1,8606.986,1,0.0,same
0,520,catch,"[(1163, 805)]",[],[1],[],horizontal,"(390.0, 762.0)",1.7,nan,1,8612.126,1,0.0,same
0,521,valid,"[(1143, 811)]",[],[1],[0.55],horizontal,"(890.0, 762.0)",1.4333333333333333,0.507,1,8617.061,2,0.0,same
0,522,invalid_adjacent_other_bar,"[(1167, 785)]",[],[1],[0.5333333333333333],vertical,"(390.0, 762.0)",0.8,0.5,1,8623.384,2,0.0,other
0,523,valid,"[(1156, 776)]",[],[1],[0.5166666666666666],horizontal,"(390.0, 262.0)",0.6166666666666667,0.489,1,8628.542,2,0.0,same
0,524,valid,"[(1110, 846)]",[],[1],[0.6666666666666666],horizontal,"(890.0, 262.0)",0.9333333333333333,0.64,1,8633.442,3,0.0,same
0,525,valid,"[(1173, 784)]",[],[1],[0.5166666666666666],horizontal,"(890.0, 262.0)",0.9333333333333333,0.488,1,8639.508,3,0.0,same
0,526,catch,"[(1133, 820)]",[],[1],[],vertical,"(390.0, 762.0)",1.7,nan,1,8645.658,3,0.0,same
0,527,valid,"[(1144, 786)]",[],[1],[0.5],vertical,"(390.0, 262.0)",0.4,0.457,1,8651.984,3,0.0,same
0,528,valid,"[(1160, 800)]",[],[1],[0.6666666666666666],horizontal,"(890.0, 762.0)",1.3,0.626,1,8657.475,3,0.0,same
0,529,valid,"[(1158, 800)]",[],[1],[0.4666666666666667],horizontal,"(890.0, 762.0)",1.35,0.424,1,8663.494,3,0.0,same
0,530,catch,"[(1121, 809)]",[],[1],[],vertical,"(890.0, 762.0)",1.7,nan,1,8670.306,3,0.0,same
0,531,valid,"[(1136, 788)]",[],[1],[],vertical,"(390.0, 762.0)",,"('fix', 0.271)",0,8676.51,0,0.0,same
0,532,invalid_adjacent_other_bar,"[(1152, 829)]",[],[1],[0.65],horizontal,"(890.0, 762.0)",0.7666666666666666,0.61,1,8678.16,1,0.0,other
0,533,valid,"[(1164, 806)]",[],[1],[0.6166666666666667],horizontal,"(890.0, 762.0)",0.3833333333333333,0.573,1,8688.536,1,0.0,same
0,534,valid,"[(1171, 783)]",[],[1],[0.55],vertical,"(890.0, 762.0)",0.6166666666666667,0.508,1,8693.215,1,0.0,same
0,535,valid,"[(1165, 804)]",[],[1],[0.55],horizontal,"(390.0, 262.0)",0.4666666666666667,0.51,1,8697.822,2,0.0,same
0,536,catch,"[(1133, 803)]",[],[1],[],horizontal,"(890.0, 762.0)",1.7,nan,1,8703.627,2,0.0,same
0,537,valid,"[(1163, 797)]",[],[1],[0.5166666666666666],horizontal,"(390.0, 762.0)",0.95,0.479,1,8709.461,2,0.0,same
0,538,valid,"[(1162, 794)]",[],[1],"[0.85, 0.85]",horizontal,"(390.0, 262.0)",0.5,"0.804,nan",0,8714.744,0,0.0,same
0,539,invalid_same_bar,"[(1120, 811)]",[],[1],[0.5833333333333334],horizontal,"(390.0, 262.0)",1.1666666666666667,0.544,1,8719.51,1,0.0,same
0,540,valid,"[(1165, 798)]",[],[1],[0.7333333333333333],horizontal,"(390.0, 262.0)",0.9,0.689,1,8724.644,1,0.0,same
0,541,valid,"[(1164, 789)]",[],[1],[0.5333333333333333],horizontal,"(890.0, 762.0)",0.8666666666666667,0.49,1,8729.892,1,0.0,same
0,542,valid,"[(1146, 795)]",[],[1],[0.5666666666666667],horizontal,"(390.0, 762.0)",1.4,0.524,1,8734.95,2,0.0,same
0,543,valid,"[(1157, 801)]",[],[1],[0.5166666666666666],horizontal,"(390.0, 762.0)",1.4666666666666666,0.475,1,8740.948,2,0.0,same
0,544,catch,"[(1135, 813)]",[],[1],[],horizontal,"(890.0, 762.0)",1.7,nan,1,8746.598,2,0.0,same
0,545,valid,"[(1165, 819)]",[],[1],[0.5333333333333333],vertical,"(890.0, 762.0)",1.1666666666666667,0.493,1,8752.322,3,0.0,same
0,546,valid,"[(1141, 805)]",[],[1],[0.5],horizontal,"(390.0, 262.0)",1.3333333333333333,0.461,1,8758.377,3,0.0,same
0,547,valid,"[(1174, 799)]",[],[1],[0.5333333333333333],horizontal,"(890.0, 262.0)",1.2666666666666666,0.494,1,8764.811,3,0.0,same
0,548,valid,"[(1166, 782)]",[],[1],[0.4666666666666667],vertical,"(390.0, 762.0)",1.4166666666666667,0.43,1,8770.928,3,0.0,same
0,549,valid,"[(1160, 809)]",[],[1],[0.5],vertical,"(890.0, 262.0)",1.3666666666666667,0.464,1,8777.545,3,0.0,same
0,550,valid,"[(1164, 802)]",[],[1],[0.55],vertical,"(890.0, 762.0)",0.8833333333333333,0.511,1,8783.277,3,0.0,same
0,551,catch,"[(1133, 793)]",[],[1],[],horizontal,"(390.0, 762.0)",1.7,nan,1,8789.276,3,0.0,same
0,552,catch,"[(1111, 842)]",[],[1],[],horizontal,"(390.0, 262.0)",1.7,nan,1,8795.742,3,0.0,same
0,553,catch,"[(1170, 807)]",[],[1],[],vertical,"(390.0, 762.0)",1.7,nan,1,8802.46,3,0.0,same
0,554,valid,"[(1163, 792)]",[],[1],[0.5333333333333333],vertical,"(390.0, 762.0)",0.43333333333333335,0.491,1,8808.599,3,0.0,same
0,555,invalid_adjacent_other_bar,"[(1144, 849)]",[],[1],[0.85],vertical,"(890.0, 762.0)",0.43333333333333335,nan,0,8813.879,0,0.0,other
0,556,valid,"[(1118, 810)]",[],[1],[0.6833333333333333],horizontal,"(890.0, 262.0)",0.6166666666666667,0.647,1,8818.667,1,0.0,same
0,557,valid,"[(1165, 804)]",[],[1],[0.5666666666666667],horizontal,"(390.0, 262.0)",0.5166666666666666,0.527,1,8823.995,1,0.0,same
0,558,invalid_adjacent_other_bar,"[(1165, 809)]",[],[1],[0.5833333333333334],horizontal,"(390.0, 262.0)",1.0666666666666667,0.541,1,8829.067,1,0.0,other
0,559,valid,"[(1178, 794)]",[],[1],[0.5666666666666667],vertical,"(390.0, 762.0)",1.0,0.525,1,8834.205,2,0.0,same
0,560,catch,"[(1170, 786)]",[],[1],[],horizontal,"(390.0, 262.0)",1.7,nan,1,8839.58,2,0.0,same
0,561,valid,"[(1168, 796)]",[],[1],[0.48333333333333334],horizontal,"(390.0, 762.0)",1.4333333333333333,0.444,1,8845.178,2,0.0,same
0,562,valid,"[(1135, 794)]",[],[1],[0.5833333333333334],vertical,"(890.0, 262.0)",1.1833333333333333,0.545,1,8851.378,3,0.0,same
0,563,catch,"[(1143, 799)]",[],[1],[],vertical,"(890.0, 762.0)",1.7,nan,1,8857.995,3,0.0,same
0,564,catch,"[(1165, 782)]",[],[1],[],horizontal,"(890.0, 262.0)",1.7,nan,1,8864.127,3,0.0,same
0,565,invalid_adjacent_other_bar,"[(1128, 848)]",[],[1],[0.5333333333333333],horizontal,"(890.0, 762.0)",0.45,0.496,1,8870.318,3,0.0,other
0,566,valid,"[(1167, 797)]",[],[1],[0.48333333333333334],vertical,"(890.0, 262.0)",0.7833333333333333,0.443,1,8875.561,3,0.0,same
0,567,valid,"[(1155, 794)]",[],[1],[0.5333333333333333],horizontal,"(390.0, 762.0)",0.9166666666666666,0.496,1,8881.051,3,0.0,same
0,568,valid,"[(1115, 836)]",[],[1],[0.48333333333333334],horizontal,"(390.0, 762.0)",0.6833333333333333,0.447,1,8886.695,3,0.0,same
0,569,catch,"[(1168, 811)]",[],[1],[],vertical,"(890.0, 262.0)",1.7,nan,1,8892.548,3,0.0,same
0,570,valid,"[(1138, 816)]",[],[1],[0.45],horizontal,"(890.0, 762.0)",1.05,0.411,1,8898.792,3,0.0,same
0,571,catch,"[(1165, 836)]",[],[1],[],horizontal,"(890.0, 762.0)",1.7,nan,1,8904.377,3,0.0,same
0,572,valid,"[(1165, 799)]",[],[1],[0.8166666666666667],horizontal,"(890.0, 262.0)",1.1,0.766,1,8910.328,3,0.0,same
0,573,valid,"[(1164, 831)]",[],[1],[0.5],horizontal,"(890.0, 762.0)",1.05,0.466,1,8916.393,3,0.0,same
0,574,valid,"[(1128, 807)]",[],[1],[0.5],vertical,"(390.0, 762.0)",0.7666666666666666,0.459,1,8922.71,3,0.0,same
0,575,valid,"[(1165, 833)]",[],[1],[0.5166666666666666],horizontal,"(390.0, 762.0)",1.5166666666666666,0.478,1,8928.137,3,0.0,same
0,576,valid,"[(1165, 794)]",[],[1],[0.6666666666666666],horizontal,"(390.0, 762.0)",1.3833333333333333,0.626,1,8934.542,3,0.0,same
0,577,valid,"[(1137, 798)]",[],[1],[0.85],vertical,"(890.0, 762.0)",0.8,nan,0,8940.552,0,0.0,same
0,578,catch,"[(1115, 795)]",[],[1],[],vertical,"(390.0, 262.0)",1.7,nan,1,8944.995,1,0.0,same
0,579,catch,"[(1168, 804)]",[],[1],[],vertical,"(390.0, 762.0)",,"('cti', 1.268),nan",0,8950.078,0,0.02,same
0,580,valid,"[(1135, 793)]",[],[1],[0.6333333333333333],vertical,"(890.0, 262.0)",0.6,0.601,1,8954.463,1,0.02,same
0,581,catch,"[(1165, 795)]",[],[1],[],horizontal,"(890.0, 262.0)",1.7,nan,1,8959.289,1,0.02,same
0,582,valid,"[(1163, 801)]",[],[1],[0.48333333333333334],vertical,"(390.0, 762.0)",0.35,0.449,1,8964.377,1,0.02,same
0,583,valid,"[(1166, 800)]",[],[1],[0.5833333333333334],horizontal,"(390.0, 262.0)",1.0,0.54,1,8968.585,2,0.02,same
0,584,catch,"[(1165, 795)]",[],[1],[],vertical,"(890.0, 262.0)",1.7,nan,1,8974.327,2,0.02,same
0,585,valid,"[(1165, 803)]",[],[1],[0.55],horizontal,"(890.0, 762.0)",1.35,0.512,1,8980.095,2,0.02,same
0,586,catch,"[(1168, 802)]",[],[1],[],horizontal,"(390.0, 762.0)",1.7,nan,1,8985.617,3,0.02,same
0,587,invalid_adjacent_other_bar,"[(1176, 803)]",[],[1],[0.5166666666666666],vertical,"(390.0, 762.0)",0.9166666666666666,0.477,1,8992.122,3,0.02,other
0,588,valid,"[(1175, 779)]",[],[1],[0.48333333333333334],vertical,"(890.0, 262.0)",0.8166666666666667,0.456,1,8997.661,3,0.02,same
0,589,valid,"[(1136, 783)]",[],[1],[0.85],vertical,"(890.0, 262.0)",0.43333333333333335,nan,0,9002.961,0,0.02,same
0,590,invalid_same_bar,"[(1120, 787)]",[],[1],[0.85],vertical,"(890.0, 262.0)",0.35,nan,0,9007.362,0,0.02,same
0,591,invalid_same_bar,"[(1133, 793)]",[],[1],[0.5166666666666666],vertical,"(390.0, 762.0)",1.3,0.476,1,9011.446,1,0.02,same
0,592,invalid_same_bar,"[(1165, 779)]",[],[1],[0.8333333333333334],vertical,"(390.0, 762.0)",1.45,0.785,1,9017.337,1,0.02,same
0,593,invalid_adjacent_other_bar,"[(1121, 783)]",[],[1],[0.5833333333333334],vertical,"(890.0, 262.0)",0.7333333333333333,0.543,1,9023.481,1,0.02,other
0,594,valid,"[(1168, 801)]",[],[1],[0.85],horizontal,"(390.0, 762.0)",1.0666666666666667,nan,0,9028.293,0,0.02,same
0,595,catch,"[(1135, 787)]",[],[1],[],vertical,"(390.0, 262.0)",1.7,nan,1,9033.016,1,0.02,same
0,596,valid,"[(1132, 798)]",[],[1],[0.5333333333333333],horizontal,"(390.0, 262.0)",0.3833333333333333,0.495,1,9038.007,1,0.02,same
0,597,valid,"[(1143, 807)]",[],[1],[0.5333333333333333],vertical,"(390.0, 762.0)",1.25,0.496,1,9042.437,1,0.02,same
0,598,valid,"[(1153, 840)]",[],[1],[0.5666666666666667],vertical,"(890.0, 762.0)",1.0666666666666667,0.53,1,9048.128,2,0.02,same
0,599,catch,"[(1130, 819)]",[],[1],[],horizontal,"(390.0, 262.0)",1.7,nan,1,9054.129,2,0.02,same
0,600,valid,"[(1121, 827)]",[],[1],[0.5333333333333333],vertical,"(390.0, 262.0)",1.1833333333333333,0.489,1,9059.644,2,0.02,same
0,601,catch,"[(1139, 809)]",[],[1],[],horizontal,"(390.0, 262.0)",1.7,nan,1,9065.277,3,0.02,same
0,602,valid,"[(1173, 827)]",[],[1],[0.85],vertical,"(390.0, 262.0)",1.0166666666666666,nan,0,9071.271,0,0.02,same
0,603,valid,"[(1137, 807)]",[],[1],[0.55],horizontal,"(890.0, 262.0)",1.4166666666666667,0.508,1,9076.173,1,0.02,same
0,604,catch,"[(1166, 786)]",[],[1],[],vertical,"(390.0, 262.0)",1.7,nan,1,9081.967,1,0.02,same
0,605,valid,"[(1121, 805)]",[],[1],[0.55],vertical,"(390.0, 762.0)",0.45,0.508,1,9087.225,1,0.02,same
0,606,valid,"[(1115, 853)]",[],[1],[],vertical,"(390.0, 262.0)",,"('cti', 0.738)",0,9092.577,0,0.02,same
0,607,valid,"[(1107, 842)]",[],[1],[0.85],vertical,"(890.0, 262.0)",1.0,nan,0,9097.895,0,0.02,same
0,608,valid,"[(1115, 819)]",[],[1],[0.5333333333333333],vertical,"(890.0, 762.0)",1.1833333333333333,0.493,1,10981.168,1,0.02,same
0,609,valid,"[(1155, 800)]",[],[1],[0.6833333333333333],vertical,"(890.0, 262.0)",0.8333333333333334,0.646,1,10987.134,1,0.02,same
0,610,valid,"[(1138, 803)]",[],[1],[0.55],horizontal,"(390.0, 262.0)",1.05,0.504,1,10992.434,1,0.02,same
0,611,valid,"[(1143, 795)]",[],[1],[0.5833333333333334],horizontal,"(390.0, 262.0)",1.2333333333333334,0.545,1,10997.483,2,0.02,same
0,612,valid,"[(1145, 799)]",[],[1],[0.5333333333333333],horizontal,"(890.0, 762.0)",0.7166666666666667,0.486,1,11003.682,2,0.02,same
0,613,valid,"[(1157, 803)]",[],[1],[0.6833333333333333],vertical,"(390.0, 762.0)",1.05,0.641,1,11008.834,2,0.02,same
0,614,catch,"[(1161, 809)]",[],[1],[],horizontal,"(390.0, 262.0)",1.7,nan,1,11014.051,3,0.02,same
0,615,valid,"[(1139, 798)]",[],[1],[0.5166666666666666],horizontal,"(390.0, 762.0)",0.85,0.48,1,11020.317,3,0.02,same
0,616,valid,"[(1139, 791)]",[],[1],[0.5666666666666667],horizontal,"(890.0, 262.0)",1.4333333333333333,0.523,1,11025.863,3,0.02,same
0,617,valid,"[(1156, 791)]",[],[1],[0.55],horizontal,"(390.0, 262.0)",0.4,0.505,1,11031.901,3,0.02,same
0,618,catch,"[(1161, 800)]",[],[1],[],vertical,"(390.0, 262.0)",1.7,nan,1,11036.884,3,0.02,same
0,619,valid,"[(1149, 814)]",[],[1],[0.5166666666666666],vertical,"(390.0, 762.0)",1.3666666666666667,0.474,1,11042.617,3,0.02,same
0,620,valid,"[(1155, 789)]",[],[1],[0.5],vertical,"(890.0, 262.0)",0.8833333333333333,0.456,1,11049.072,3,0.02,same
0,621,valid,"[(1165, 789)]",[],[1],[0.5],horizontal,"(890.0, 762.0)",1.3,0.459,1,11054.212,3,0.02,same
0,622,valid,"[(1126, 813)]",[],[1],[0.5333333333333333],horizontal,"(390.0, 262.0)",0.9,0.489,1,11060.085,3,0.02,same
0,623,catch,"[(1158, 797)]",[],[1],[],vertical,"(390.0, 762.0)",,"('cti', 1.616),nan",0,11065.813,0,0.04,same
0,624,valid,"[(1135, 814)]",[],[1],[0.85],horizontal,"(390.0, 762.0)",0.9333333333333333,nan,0,11070.558,0,0.04,same
0,625,valid,"[(1116, 855)]",[],[1],[0.5333333333333333],horizontal,"(390.0, 262.0)",1.25,0.488,1,11074.905,1,0.04,same
0,626,valid,"[(1086, 810)]",[],[1],[0.85],vertical,"(890.0, 762.0)",0.43333333333333335,nan,0,14307.877,0,0.04,same
0,627,valid,"[(1130, 809)]",[],[1],[0.6166666666666667],vertical,"(890.0, 762.0)",0.5666666666666667,0.579,1,14313.328,1,0.04,same
0,628,invalid_same_bar,"[(1132, 782)]",[],[1],[0.6166666666666667],horizontal,"(890.0, 762.0)",0.7,0.577,1,14318.327,1,0.04,same
0,629,catch,"[(1161, 787)]",[],[1],[],horizontal,"(390.0, 762.0)",1.7,nan,1,14322.827,1,0.02,same
0,630,valid,"[(1165, 796)]",[],[1],[0.48333333333333334],vertical,"(390.0, 262.0)",0.45,0.448,1,14328.145,2,0.02,same
0,631,valid,"[(1138, 783)]",[],[1],[0.5166666666666666],vertical,"(890.0, 262.0)",0.65,0.476,1,14333.177,2,0.02,same
0,632,valid,"[(1138, 811)]",[],[1],[0.7833333333333333],vertical,"(390.0, 262.0)",1.3,0.74,1,14338.108,2,0.02,same
0,633,valid,"[(1139, 817)]",[],[1],[0.8],horizontal,"(390.0, 262.0)",0.6,0.756,1,14344.113,3,0.02,same
0,634,valid,"[(1146, 793)]",[],[1],[0.85],vertical,"(390.0, 762.0)",1.0333333333333332,nan,0,14349.893,0,0.02,same
0,635,valid,"[(1140, 798)]",[],[1],[],horizontal,"(390.0, 262.0)",,"('cti', 1.177)",0,14354.541,0,0.02,same
0,636,valid,"[(1082, 808)]",[],[1],[0.5166666666666666],vertical,"(890.0, 262.0)",0.6166666666666667,0.472,1,14358.677,1,0.02,same
0,637,invalid_same_bar,"[(1145, 803)]",[],[1],[0.5333333333333333],vertical,"(890.0, 762.0)",0.75,0.497,1,14363.345,1,0.02,same
0,638,valid,"[(1164, 777)]",[],[1],[0.5166666666666666],horizontal,"(890.0, 262.0)",1.2333333333333334,0.484,1,14368.201,1,0.02,same
0,639,valid,"[(1169, 795)]",[],[1],[0.5333333333333333],vertical,"(890.0, 262.0)",0.48333333333333334,0.489,1,14373.111,2,0.02,same
0,640,invalid_adjacent_other_bar,"[(1132, 782)]",[],[1],[0.7166666666666667],vertical,"(390.0, 762.0)",1.15,0.672,1,14378.53,2,0.02,other
0,641,catch,"[(1126, 833)]",[],[1],[],vertical,"(890.0, 762.0)",1.7,nan,1,14384.41,2,0.02,same
0,642,invalid_same_bar,"[(1155, 812)]",[],[1],[0.65],horizontal,"(890.0, 762.0)",0.95,0.605,1,14390.128,3,0.02,same
0,643,invalid_adjacent_other_bar,"[(1143, 810)]",[],[1],[0.55],horizontal,"(890.0, 262.0)",1.5333333333333332,0.525,1,14396.494,3,0.02,other
0,644,catch,"[(1165, 813)]",[],[1],[],horizontal,"(890.0, 262.0)",1.7,nan,1,14402.728,3,0.02,same
0,645,valid,"[(1165, 790)]",[],[1],[0.5166666666666666],vertical,"(890.0, 262.0)",1.1833333333333333,0.477,1,14408.693,3,0.02,same
0,646,valid,"[(1162, 812)]",[],[1],[0.55],horizontal,"(890.0, 762.0)",1.15,0.506,1,14414.677,3,0.02,same
0,647,catch,"[(1140, 789)]",[],[1],[],vertical,"(390.0, 762.0)",1.7,nan,1,14420.736,3,0.02,same
0,648,valid,"[(1170, 799)]",[],[1],[0.85],horizontal,"(390.0, 762.0)",0.8,nan,0,14426.569,0,0.02,same
0,649,valid,"[(1150, 790)]",[],[1],[0.45],horizontal,"(390.0, 762.0)",1.4333333333333333,0.412,1,14431.5,1,0.02,same
0,650,valid,"[(1166, 807)]",[],[1],[0.5166666666666666],vertical,"(890.0, 762.0)",0.9,0.475,1,14437.235,1,0.02,same
0,651,catch,"[(1163, 813)]",[],[1],[],vertical,"(390.0, 762.0)",1.7,nan,1,14442.055,1,0.02,same
0,652,invalid_same_bar,"[(1146, 783)]",[],[1],[0.7166666666666667],vertical,"(390.0, 762.0)",1.2166666666666666,0.672,1,14447.298,2,0.02,same
0,653,invalid_adjacent_other_bar,"[(1163, 799)]",[],[1],[0.5166666666666666],horizontal,"(890.0, 262.0)",0.65,0.475,1,14453.043,2,0.02,other
0,654,catch,"[(1161, 773)]",[],[1],[],vertical,"(390.0, 262.0)",1.7,nan,1,14458.123,2,0.02,same
0,655,catch,"[(1161, 806)]",[],[1],[],horizontal,"(390.0, 762.0)",1.7,nan,1,14463.619,3,0.02,same
0,656,valid,"[(1155, 798)]",[],[1],[0.5],vertical,"(390.0, 762.0)",1.2833333333333332,0.457,1,14469.922,3,0.02,same
0,657,catch,"[(1142, 789)]",[],[1],[],horizontal,"(390.0, 262.0)",1.7,nan,1,14476.094,3,0.02,same
0,658,catch,"[(1163, 799)]",[],[1],[],vertical,"(890.0, 262.0)",1.7,nan,1,14482.163,3,0.02,same
0,659,valid,"[(1161, 791)]",[],[1],[0.6333333333333333],horizontal,"(390.0, 262.0)",0.9666666666666667,0.603,1,14488.592,3,0.02,same
0,660,valid,"[(1150, 778)]",[],[1],[0.6833333333333333],horizontal,"(390.0, 262.0)",0.65,0.636,1,14494.09,3,0.02,same
0,661,valid,"[(1169, 789)]",[],[1],[0.85],vertical,"(890.0, 262.0)",0.8833333333333333,nan,0,14499.706,0,0.02,same
0,662,valid,"[(1140, 793)]",[],[1],[0.5166666666666666],vertical,"(890.0, 262.0)",1.0833333333333333,0.478,1,14504.004,1,0.02,same
0,663,catch,"[(1161, 824)]",[],[1],[],vertical,"(890.0, 762.0)",1.7,nan,1,14509.452,1,0.02,same
0,664,valid,"[(1151, 820)]",[],[1],[0.6833333333333333],horizontal,"(890.0, 762.0)",0.7166666666666667,0.644,1,14514.619,1,0.02,same
0,665,valid,"[(1160, 815)]",[],[1],[0.6666666666666666],vertical,"(890.0, 762.0)",1.1,0.627,1,14519.672,2,0.02,same
0,666,catch,"[(1140, 779)]",[],[1],[],vertical,"(890.0, 262.0)",1.7,nan,1,14525.445,2,0.02,same
0,667,valid,"[(1165, 808)]",[],[1],[0.4666666666666667],vertical,"(890.0, 762.0)",1.4666666666666666,0.423,1,14530.851,2,0.02,same
0,668,valid,"[(1134, 816)]",[],[1],[0.5333333333333333],vertical,"(390.0, 262.0)",1.3666666666666667,0.486,1,14536.912,3,0.02,same
0,669,valid,"[(1155, 794)]",[],[1],[0.5333333333333333],vertical,"(390.0, 262.0)",0.75,0.49,1,14543.526,3,0.02,same
0,670,catch,"[(1165, 815)]",[],[1],[],horizontal,"(390.0, 762.0)",1.7,nan,1,14549.163,3,0.02,same
0,671,valid,"[(1163, 825)]",[],[1],[0.5],horizontal,"(390.0, 262.0)",1.5166666666666666,0.455,1,14555.427,3,0.02,same
0,672,valid,"[(1086, 852)]",[],[1],[0.5],vertical,"(390.0, 262.0)",0.9833333333333333,0.455,1,14561.46,3,0.02,same
0,673,valid,"[(1132, 808)]",[],[1],[0.85],vertical,"(390.0, 262.0)",0.4666666666666667,nan,0,14567.795,0,0.0,same
0,674,valid,"[(1091, 845)]",[],[1],[0.55],vertical,"(890.0, 762.0)",0.4,0.506,1,14571.919,1,0.0,same
0,675,valid,"[(1150, 825)]",[],[1],[0.5],vertical,"(890.0, 262.0)",1.0,0.465,1,14576.616,1,0.0,same
0,676,catch,"[(1152, 835)]",[],[1],[],vertical,"(390.0, 762.0)",1.7,nan,1,14581.57,1,0.0,same
0,677,valid,"[(1136, 809)]",[],[1],[0.85],horizontal,"(890.0, 762.0)",0.6,nan,0,14586.729,0,0.0,same
0,678,catch,"[(1134, 813)]",[],[1],[],vertical,"(890.0, 262.0)",1.7,nan,1,14591.855,1,0.0,same
0,679,catch,"[(1136, 820)]",[],[1],[],horizontal,"(390.0, 262.0)",1.7,nan,1,14597.095,1,0.0,same
0,680,valid,"[(1134, 804)]",[],[1],[0.4166666666666667],horizontal,"(890.0, 762.0)",1.4333333333333333,0.379,1,14602.117,1,0.0,same
0,681,valid,"[(1121, 811)]",[],[1],[0.5833333333333334],horizontal,"(390.0, 762.0)",0.5166666666666666,0.537,1,14607.729,2,0.0,same
0,682,catch,"[(1141, 816)]",[],[1],[],vertical,"(390.0, 262.0)",1.7,nan,1,14613.195,2,0.0,same
0,683,valid,"[(1165, 811)]",[],[1],[0.5166666666666666],horizontal,"(390.0, 762.0)",0.5166666666666666,0.473,1,14618.662,2,0.0,same
0,684,catch,"[(1140, 811)]",[],[1],[],vertical,"(390.0, 762.0)",1.7,nan,1,14623.911,3,0.0,same
0,685,valid,"[(1163, 802)]",[],[1],[0.5666666666666667],horizontal,"(890.0, 262.0)",0.36666666666666664,0.526,1,14630.329,3,0.0,same
0,686,valid,"[(1142, 812)]",[],[1],[0.5],vertical,"(890.0, 762.0)",1.5,0.455,1,14635.393,3,0.0,same
0,687,valid,"[(1167, 792)]",[],[1],[0.5333333333333333],vertical,"(390.0, 762.0)",0.5833333333333334,0.494,1,14641.598,3,0.0,same
0,688,invalid_same_bar,"[(1166, 783)]",[],[1],[0.55],horizontal,"(390.0, 262.0)",1.2833333333333332,0.511,1,14646.938,3,0.0,same
0,689,valid,"[(1131, 791)]",[],[1],[0.5],vertical,"(890.0, 762.0)",0.8166666666666667,0.461,1,14653.178,3,0.0,same
0,690,valid,"[(1174, 820)]",[],[1],[0.5333333333333333],vertical,"(390.0, 762.0)",1.1333333333333333,0.488,1,14658.888,3,0.0,same
0,691,catch,"[(1129, 798)]",[],[1],[],vertical,"(890.0, 762.0)",1.7,nan,1,14664.611,3,0.0,same
0,692,valid,"[(1170, 810)]",[],[1],[0.5166666666666666],horizontal,"(390.0, 262.0)",1.3833333333333333,0.474,1,14670.379,3,0.0,same
0,693,catch,"[(1169, 777)]",[],[1],[],horizontal,"(390.0, 762.0)",1.7,nan,1,14676.191,3,0.0,same
0,694,valid,"[(1185, 780)]",[],[1],[0.45],horizontal,"(390.0, 262.0)",0.4666666666666667,0.41,1,14681.867,3,0.0,same
0,695,catch,"[(1170, 801)]",[],[1],[],horizontal,"(890.0, 762.0)",1.7,nan,1,14687.418,3,0.0,same
0,696,valid,"[(1175, 794)]",[],[1],[0.5],horizontal,"(390.0, 262.0)",1.2,0.455,1,14693.319,3,0.0,same
0,697,valid,"[(1160, 808)]",[],[1],[0.5166666666666666],horizontal,"(890.0, 262.0)",1.4333333333333333,0.478,1,14699.427,3,0.0,same
0,698,catch,"[(1179, 799)]",[],[1],[],vertical,"(390.0, 262.0)",1.7,nan,1,14705.81,3,0.0,same
0,699,invalid_adjacent_other_bar,"[(1165, 805)]",[],[1],[0.5166666666666666],vertical,"(890.0, 262.0)",0.6666666666666666,0.475,1,14712.074,3,0.0,other
0,700,valid,"[(1135, 786)]",[],[1],[0.6833333333333333],vertical,"(890.0, 762.0)",1.4666666666666666,0.637,1,14717.34,3,0.0,same
0,701,catch,"[(1165, 809)]",[],[1],[],vertical,"(890.0, 762.0)",1.7,nan,1,14723.905,3,0.0,same
0,702,valid,"[(1165, 808)]",[],[1],[0.45],horizontal,"(390.0, 762.0)",1.1,0.413,1,14730.136,3,0.0,same
0,703,valid,"[(1175, 808)]",[],[1],[0.5333333333333333],horizontal,"(890.0, 262.0)",1.4666666666666666,0.492,1,14736.244,3,0.0,same
0,704,catch,"[(1165, 796)]",[],[1],[],horizontal,"(890.0, 262.0)",1.7,nan,1,14742.312,3,0.0,same
0,705,catch,"[(1175, 804)]",[],[1],[],horizontal,"(390.0, 762.0)",1.7,nan,1,14748.302,3,0.0,same
0,706,valid,"[(1166, 792)]",[],[1],[0.5],horizontal,"(890.0, 762.0)",0.9,0.462,1,14754.732,3,0.0,same
0,707,invalid_adjacent_other_bar,"[(1167, 796)]",[],[1],[0.65],horizontal,"(890.0, 262.0)",1.4,0.608,1,14760.697,3,0.0,other
0,708,invalid_adjacent_other_bar,"[(1161, 794)]",[],[1],[0.55],horizontal,"(390.0, 262.0)",0.36666666666666664,0.502,1,14766.74,3,0.0,other
0,709,valid,"[(1175, 809)]",[],[1],[0.5833333333333334],vertical,"(390.0, 762.0)",0.3833333333333333,0.541,1,14772.012,3,0.0,same
0,710,valid,"[(1170, 800)]",[],[1],[0.5333333333333333],vertical,"(390.0, 762.0)",0.6333333333333333,0.496,1,14777.078,3,0.0,same
0,711,valid,"[(1170, 807)]",[],[1],[0.6],vertical,"(390.0, 762.0)",1.4666666666666666,0.569,1,14782.607,3,0.0,same
0,712,catch,"[(1175, 799)]",[],[1],[],vertical,"(390.0, 262.0)",1.7,nan,1,14788.828,3,0.0,same
0,713,valid,"[(1174, 794)]",[],[1],[0.55],vertical,"(890.0, 762.0)",0.9833333333333333,0.512,1,14794.612,3,0.0,same
0,714,valid,"[(1168, 812)]",[],[1],[0.5333333333333333],horizontal,"(390.0, 762.0)",1.1666666666666667,0.492,1,14800.584,3,0.0,same
0,715,catch,"[(1178, 810)]",[],[1],[],vertical,"(890.0, 762.0)",1.7,nan,1,14806.579,3,0.0,same
0,716,valid,"[(1177, 796)]",[],[1],[0.5166666666666666],horizontal,"(890.0, 262.0)",0.43333333333333335,0.476,1,14812.846,3,0.0,same
0,717,catch,"[(1165, 782)]",[],[1],[],horizontal,"(390.0, 762.0)",1.7,nan,1,14817.977,3,0.0,same
0,718,catch,"[(1165, 807)]",[],[1],[],horizontal,"(890.0, 262.0)",1.7,nan,1,14823.982,3,0.0,same
0,719,valid,"[(1132, 805)]",[],[1],[0.5333333333333333],vertical,"(890.0, 262.0)",0.4666666666666667,0.496,1,14829.645,3,0.0,same
0,720,valid,"[(1170, 806)]",[],[1],[0.6],vertical,"(390.0, 762.0)",1.5333333333333332,0.56,1,14835.487,3,0.0,same
0,721,valid,"[(1130, 789)]",[],[1],[0.6333333333333333],horizontal,"(890.0, 262.0)",0.35,0.59,1,14841.575,3,0.0,same
0,722,valid,"[(1180, 804)]",[],[1],[0.6166666666666667],horizontal,"(390.0, 762.0)",0.7833333333333333,0.574,1,14846.646,3,0.0,same
0,723,valid,"[(1173, 791)]",[],[1],[0.6666666666666666],vertical,"(390.0, 762.0)",1.45,0.625,1,14852.079,3,0.0,same
0,724,valid,"[(1130, 797)]",[],[1],[0.6166666666666667],horizontal,"(390.0, 262.0)",0.35,0.572,1,14858.501,3,0.0,same
0,725,catch,"[(1194, 804)]",[],[1],[],vertical,"(390.0, 262.0)",1.7,nan,1,14863.463,3,0.0,same
0,726,valid,"[(1140, 778)]",[],[1],[0.48333333333333334],vertical,"(890.0, 262.0)",1.5,0.445,1,14869.878,3,0.0,same
0,727,invalid_same_bar,"[(1165, 782)]",[],[1],[0.45],horizontal,"(890.0, 262.0)",0.7666666666666666,0.408,1,14876.442,3,0.0,same
0,728,valid,"[(1175, 785)]",[],[1],[0.5],horizontal,"(890.0, 762.0)",0.8833333333333333,0.459,1,14881.912,3,0.0,same
0,729,valid,"[(1175, 798)]",[],[1],[0.6333333333333333],horizontal,"(390.0, 762.0)",0.5,0.59,1,14887.738,3,0.0,same
0,730,valid,"[(1167, 780)]",[],[1],[0.48333333333333334],vertical,"(390.0, 262.0)",0.48333333333333334,0.448,1,14892.978,3,0.0,same
0,731,valid,"[(1141, 787)]",[],[1],[0.5],vertical,"(890.0, 762.0)",1.1166666666666667,0.455,1,14898.237,3,0.0,same
0,732,valid,"[(1165, 802)]",[],[1],[0.48333333333333334],horizontal,"(390.0, 262.0)",1.2166666666666666,0.445,1,14903.949,3,0.0,same
0,733,valid,"[(1135, 816)]",[],[1],[0.65],horizontal,"(890.0, 762.0)",1.0333333333333332,0.609,1,14910.079,3,0.0,same
0,734,catch,"[(1174, 791)]",[],[1],[],horizontal,"(390.0, 262.0)",1.7,nan,1,14916.112,3,0.0,same
0,735,valid,"[(1156, 816)]",[],[1],[0.5833333333333334],horizontal,"(890.0, 262.0)",0.5333333333333333,0.546,1,14922.029,3,0.0,same
0,736,valid,"[(1175, 781)]",[],[1],[0.48333333333333334],vertical,"(890.0, 762.0)",0.4666666666666667,0.444,1,14927.562,3,0.0,same
0,737,invalid_same_bar,"[(1171, 821)]",[],[1],[0.6833333333333333],horizontal,"(390.0, 262.0)",0.9,0.645,1,14932.612,3,0.0,same
0,738,valid,"[(1137, 794)]",[],[1],[0.5666666666666667],horizontal,"(890.0, 762.0)",1.2166666666666666,0.521,1,14938.862,3,0.0,same
0,739,valid,"[(1160, 796)]",[],[1],[0.85],horizontal,"(390.0, 762.0)",0.5666666666666667,nan,0,14945.148,0,0.0,same
0,740,valid,"[(1126, 789)]",[],[1],[0.5],vertical,"(890.0, 262.0)",1.3666666666666667,0.459,1,14949.812,1,0.0,same
0,741,valid,"[(1171, 811)]",[],[1],[0.5166666666666666],horizontal,"(390.0, 262.0)",0.7166666666666667,0.478,1,14955.038,1,0.0,same
0,742,catch,"[(1140, 799)]",[],[1],[],horizontal,"(890.0, 262.0)",1.7,nan,1,14959.58,1,0.0,same
0,743,valid,"[(1161, 793)]",[],[1],[0.5],vertical,"(890.0, 262.0)",0.5833333333333334,0.463,1,14964.447,2,0.0,same
0,744,catch,"[(1153, 778)]",[],[1],[],horizontal,"(890.0, 262.0)",1.7,nan,1,14969.446,2,0.0,same
0,745,valid,"[(1171, 790)]",[],[1],[0.5],vertical,"(890.0, 762.0)",0.6,0.458,1,14975.096,2,0.0,same
0,746,invalid_adjacent_other_bar,"[(1147, 808)]",[],[1],[0.5166666666666666],horizontal,"(890.0, 262.0)",0.75,0.475,1,14979.93,3,0.0,other
0,747,catch,"[(1170, 792)]",[],[1],[],horizontal,"(390.0, 262.0)",1.7,nan,1,14985.845,3,0.0,same
0,748,valid,"[(1165, 795)]",[],[1],[0.6333333333333333],vertical,"(890.0, 262.0)",0.3833333333333333,0.591,1,14991.714,3,0.0,same
0,749,valid,"[(1175, 798)]",[],[1],[0.5],vertical,"(890.0, 762.0)",0.75,0.458,1,14997.328,3,0.0,same
0,750,valid,"[(1170, 799)]",[],[1],[0.5333333333333333],vertical,"(890.0, 262.0)",0.45,0.494,1,15002.953,3,0.0,same
0,751,invalid_same_bar,"[(1175, 792)]",[],[1],[0.5333333333333333],vertical,"(890.0, 262.0)",0.9333333333333333,0.494,1,15008.022,3,0.0,same
0,752,invalid_same_bar,"[(1149, 826)]",[],[1],[0.48333333333333334],vertical,"(890.0, 262.0)",1.4666666666666666,0.439,1,15014.091,3,0.0,same
0,753,catch,"[(1160, 799)]",[],[1],[],horizontal,"(890.0, 262.0)",1.7,nan,1,15020.215,3,0.0,same
0,754,valid,"[(1167, 790)]",[],[1],[0.5666666666666667],horizontal,"(390.0, 762.0)",1.4333333333333333,0.527,1,15026.113,3,0.0,same
0,755,valid,"[(1175, 801)]",[],[1],[0.5333333333333333],horizontal,"(390.0, 262.0)",0.55,0.492,1,15032.395,3,0.0,same
0,756,valid,"[(1135, 799)]",[],[1],[0.5],vertical,"(890.0, 262.0)",1.35,0.461,1,15037.88,3,0.0,same
0,757,valid,"[(1165, 801)]",[],[1],[0.65],horizontal,"(890.0, 762.0)",1.0833333333333333,0.608,1,15044.311,3,0.0,same
0,758,valid,"[(1160, 816)]",[],[1],[0.5166666666666666],vertical,"(390.0, 762.0)",1.0333333333333332,0.475,1,15050.563,3,0.0,same
0,759,catch,"[(1161, 817)]",[],[1],[],horizontal,"(390.0, 762.0)",1.7,nan,1,15056.727,3,0.0,same
0,760,valid,"[(1170, 796)]",[],[1],[0.5166666666666666],vertical,"(890.0, 262.0)",1.3666666666666667,0.48,1,15062.563,3,0.0,same
0,761,valid,"[(1157, 787)]",[],[1],[0.5166666666666666],vertical,"(390.0, 262.0)",1.15,0.479,1,15068.763,3,0.0,same
0,762,valid,"[(1154, 799)]",[],[1],[0.5],vertical,"(890.0, 262.0)",0.7666666666666666,0.465,1,15074.602,3,0.0,same
0,763,valid,"[(1133, 798)]",[],[1],[0.5666666666666667],vertical,"(390.0, 762.0)",0.75,0.524,1,15079.88,3,0.0,same
0,764,valid,"[(1160, 782)]",[],[1],[0.6333333333333333],vertical,"(390.0, 762.0)",0.55,0.599,1,15085.494,3,0.0,same
0,765,valid,"[(1167, 808)]",[],[1],[0.5333333333333333],horizontal,"(390.0, 262.0)",1.3,0.497,1,15091.302,3,0.0,same
0,766,valid,"[(1131, 818)]",[],[1],[0.5333333333333333],horizontal,"(390.0, 762.0)",1.4833333333333334,0.491,1,15097.313,3,0.0,same
0,767,catch,"[(1170, 808)]",[],[1],[],vertical,"(890.0, 762.0)",1.7,nan,1,15104.008,3,0.0,same
0,768,valid,"[(1191, 801)]",[],[1],[0.5],horizontal,"(890.0, 262.0)",0.6833333333333333,0.462,1,15109.746,3,0.0,same
0,769,valid,"[(1178, 792)]",[],[1],[0.5166666666666666],vertical,"(390.0, 262.0)",0.85,0.471,1,15115.307,3,0.0,same
0,770,catch,"[(1178, 792)]",[],[1],[],vertical,"(390.0, 762.0)",1.7,nan,1,15120.674,3,0.0,same
0,771,invalid_same_bar,"[(1150, 795)]",[],[1],[0.85],horizontal,"(390.0, 762.0)",0.75,nan,0,15126.461,0,0.0,same
0,772,valid,"[(1133, 795)]",[],[1],[0.5833333333333334],vertical,"(390.0, 262.0)",1.25,0.538,1,15131.036,1,0.0,same
0,773,valid,"[(1160, 791)]",[],[1],[0.6166666666666667],horizontal,"(890.0, 262.0)",0.9166666666666666,0.575,1,15136.432,1,0.0,same
0,774,valid,"[(1153, 823)]",[],[1],[0.43333333333333335],vertical,"(890.0, 262.0)",1.3166666666666667,0.401,1,15141.64,1,0.0,same
0,775,catch,"[(1168, 808)]",[],[1],[],horizontal,"(390.0, 762.0)",1.7,nan,1,15146.85,2,0.0,same
0,776,valid,"[(1136, 813)]",[],[1],[0.35],horizontal,"(890.0, 262.0)",1.4833333333333334,0.314,1,15152.396,2,0.0,same
0,777,catch,"[(1135, 808)]",[],[1],[],vertical,"(890.0, 762.0)",1.7,nan,1,15158.008,2,0.0,same
0,778,catch,"[(1156, 806)]",[],[1],[],vertical,"(390.0, 762.0)",1.7,nan,1,15163.835,3,0.0,same
0,779,invalid_same_bar,"[(1173, 792)]",[],[1],[0.55],vertical,"(390.0, 262.0)",1.1166666666666667,0.514,1,15169.896,3,0.0,same
0,780,catch,"[(1175, 786)]",[],[1],[],horizontal,"(390.0, 762.0)",1.7,nan,1,15175.513,3,0.0,same
0,781,valid,"[(1175, 795)]",[],[1],[0.5666666666666667],vertical,"(890.0, 262.0)",0.5333333333333333,0.531,1,15181.528,3,0.0,same
0,782,invalid_same_bar,"[(1158, 786)]",[],[1],[0.7333333333333333],vertical,"(390.0, 762.0)",1.4,0.691,1,15186.901,3,0.0,same
0,783,valid,"[(1161, 781)]",[],[1],[0.5166666666666666],horizontal,"(890.0, 762.0)",1.0333333333333332,0.473,1,15193.096,3,0.0,same
0,784,valid,"[(1164, 805)]",[],[1],[0.5666666666666667],horizontal,"(890.0, 262.0)",0.8333333333333334,0.521,1,15199.131,3,0.0,same
0,785,valid,"[(1169, 774)]",[],[1],[0.55],vertical,"(390.0, 262.0)",0.7166666666666667,0.508,1,15205.031,3,0.0,same
0,786,valid,"[(1165, 817)]",[],[1],[0.85],vertical,"(390.0, 262.0)",1.2166666666666666,nan,0,15210.747,0,0.0,same
0,787,valid,"[(1137, 797)]",[],[1],[0.85],vertical,"(890.0, 762.0)",1.5,nan,0,15215.563,0,0.0,same
0,788,invalid_same_bar,"[(1108, 794)]",[],[1],[0.5333333333333333],horizontal,"(890.0, 262.0)",1.4,0.497,1,15220.781,1,0.0,same
0,789,valid,"[(1125, 802)]","[(1066, 904)]",[1],[0.4166666666666667],horizontal,"(390.0, 762.0)",,"('bar', 0.432)",0,15226.074,0,0.0,same
0,790,valid,"[(1101, 819)]",[],[1],[0.5],horizontal,"(390.0, 762.0)",1.3333333333333333,0.459,1,15228.847,1,0.0,same
0,791,catch,"[(1165, 782)]",[],[1],[],vertical,"(390.0, 762.0)",1.7,nan,1,15234.897,1,0.0,same
0,792,valid,"[(1146, 792)]",[],[1],[0.48333333333333334],vertical,"(390.0, 762.0)",1.3833333333333333,0.445,1,15239.968,1,0.0,same
0,793,catch,"[(1135, 805)]",[],[1],[],vertical,"(390.0, 262.0)",1.7,nan,1,15245.281,2,0.0,same
0,794,valid,"[(1165, 773)]",[],[1],[0.5666666666666667],vertical,"(890.0, 762.0)",1.25,0.527,1,15251.131,2,0.0,same
0,795,valid,"[(1160, 799)]",[],[1],[0.5333333333333333],horizontal,"(890.0, 762.0)",1.0833333333333333,0.496,1,15256.662,2,0.0,same
0,796,valid,"[(1145, 791)]",[],[1],[0.5333333333333333],vertical,"(890.0, 762.0)",0.6666666666666666,0.496,1,15261.78,3,0.0,same
0,797,valid,"[(1160, 813)]",[],[1],[0.5166666666666666],vertical,"(390.0, 762.0)",0.5833333333333334,0.473,1,15267.448,3,0.0,same
0,798,valid,"[(1180, 792)]",[],[1],[0.5333333333333333],horizontal,"(390.0, 762.0)",0.4166666666666667,0.492,1,15272.896,3,0.0,same
0,799,invalid_same_bar,"[(1161, 799)]",[],[1],[0.85],horizontal,"(890.0, 762.0)",0.5833333333333334,nan,0,15278.313,0,0.0,same
0,800,catch,"[(1127, 805)]",[],[1],[],horizontal,"(890.0, 262.0)",1.7,nan,1,15283.014,1,0.0,same
0,801,valid,"[(1175, 795)]",[],[1],[0.6666666666666666],vertical,"(890.0, 762.0)",1.2666666666666666,0.621,1,15288.248,1,0.0,same
0,802,catch,"[(1136, 818)]",[],[1],[],vertical,"(390.0, 762.0)",1.7,nan,1,15293.513,1,0.0,same
0,803,valid,"[(1132, 823)]",[],[1],[0.6],horizontal,"(890.0, 762.0)",1.5333333333333332,0.556,1,15298.829,2,0.0,same
0,804,invalid_same_bar,"[(1156, 799)]",[],[1],[0.85],vertical,"(390.0, 762.0)",0.7166666666666667,nan,0,15305.125,0,0.0,same
0,805,valid,"[(1112, 795)]",[],[1],[0.5666666666666667],vertical,"(390.0, 262.0)",0.5166666666666666,0.528,1,15309.932,1,0.0,same
0,806,valid,"[(1090, 848)]",[],[1],[0.85],vertical,"(390.0, 762.0)",1.1333333333333333,nan,0,15314.898,0,0.0,same
0,807,valid,"[(1100, 828)]",[],[1],[0.8333333333333334],horizontal,"(890.0, 262.0)",0.9833333333333333,0.797,1,17638.943,1,0.0,same
0,808,valid,"[(1103, 808)]",[],[1],[0.85],vertical,"(390.0, 262.0)",1.0666666666666667,nan,0,17649.121,0,0.0,same
0,809,valid,"[(1093, 799)]",[],[1],[0.85],horizontal,"(890.0, 262.0)",1.2166666666666666,nan,0,17653.652,0,0.0,same
0,810,valid,"[(1113, 799)]",[],[1],[0.6333333333333333],horizontal,"(890.0, 262.0)",0.4666666666666667,0.591,1,17658.502,1,0.0,same
0,811,valid,"[(1097, 881)]",[],[1],[0.85],vertical,"(890.0, 762.0)",0.6666666666666666,nan,0,17663.208,0,0.0,same
0,812,valid,"[(1154, 802)]",[],[1],[0.55],horizontal,"(890.0, 262.0)",1.5166666666666666,0.51,1,17668.104,1,0.0,same
0,813,valid,"[(1160, 799)]",[],[1],[0.85],vertical,"(890.0, 762.0)",0.45,nan,0,17673.321,0,0.0,same
0,814,valid,"[(1115, 848)]",[],[1],[0.6666666666666666],vertical,"(890.0, 262.0)",1.2,0.618,1,17677.521,1,0.0,same
0,815,valid,"[(1173, 829)]",[],[1],[0.65],horizontal,"(890.0, 262.0)",0.8333333333333334,0.613,1,17693.27,1,0.0,same
0,816,valid,"[(1160, 806)]",[],[1],[0.6833333333333333],vertical,"(890.0, 762.0)",1.3,0.641,1,17697.854,1,0.0,same
0,817,catch,"[(1155, 817)]",[],[1],[],horizontal,"(890.0, 762.0)",1.7,nan,1,17702.938,2,0.0,same
0,818,catch,"[(1162, 794)]",[],[1],[],vertical,"(390.0, 762.0)",1.7,nan,1,17708.552,2,0.0,same
0,819,valid,"[(1170, 798)]",[],[1],[0.5333333333333333],vertical,"(890.0, 262.0)",0.4166666666666667,0.498,1,17713.835,2,0.0,same
0,820,valid,"[(1167, 793)]",[],[1],[0.5666666666666667],vertical,"(890.0, 262.0)",1.25,0.532,1,17719.021,3,0.0,same
0,821,valid,"[(1160, 811)]",[],[1],[0.5166666666666666],vertical,"(890.0, 262.0)",1.5333333333333332,0.479,1,17725.221,3,0.0,same
0,822,valid,"[(1137, 818)]",[],[1],[0.75],vertical,"(890.0, 262.0)",0.6666666666666666,0.709,1,17731.504,3,0.0,same
0,823,catch,"[(1133, 812)]",[],[1],[],horizontal,"(890.0, 262.0)",1.7,nan,1,17737.183,3,0.0,same
0,824,valid,"[(1133, 815)]",[],[1],[0.5],horizontal,"(890.0, 762.0)",1.45,0.46,1,17743.947,3,0.0,same
0,825,valid,"[(1150, 787)]",[],[1],[0.85],vertical,"(390.0, 762.0)",1.05,nan,0,17750.198,0,0.0,same
0,826,valid,"[(1155, 786)]",[],[1],[0.65],horizontal,"(390.0, 262.0)",0.9166666666666666,0.608,1,17754.737,1,0.0,same
0,827,valid,"[(1143, 809)]",[],[1],[0.6333333333333333],horizontal,"(390.0, 262.0)",1.1333333333333333,0.596,1,17759.911,1,0.0,same
0,828,valid,"[(1175, 801)]",[],[1],[0.5833333333333334],horizontal,"(890.0, 762.0)",1.4333333333333333,0.544,1,17765.16,1,0.0,same
0,829,valid,"[(1124, 810)]",[],[1],[0.6833333333333333],vertical,"(890.0, 262.0)",1.45,0.636,1,17770.372,2,0.0,same
0,830,invalid_same_bar,"[(1160, 787)]",[],[1],[0.5166666666666666],horizontal,"(890.0, 262.0)",0.7666666666666666,0.473,1,17776.428,2,0.0,same
0,831,catch,"[(1160, 808)]",[],[1],[],horizontal,"(890.0, 262.0)",1.7,nan,1,17781.419,2,0.0,same
0,832,catch,"[(1170, 815)]",[],[1],[],vertical,"(890.0, 762.0)",1.7,nan,1,17787.34,3,0.0,same
0,833,valid,"[(1159, 783)]",[],[1],[0.5],vertical,"(890.0, 762.0)",0.8,0.457,1,17793.341,3,0.0,same
0,834,valid,"[(1140, 799)]",[],[1],[0.85],vertical,"(390.0, 262.0)",0.4666666666666667,nan,0,17798.621,0,0.0,same
0,835,valid,"[(1123, 806)]",[],[1],[0.5833333333333334],vertical,"(890.0, 762.0)",1.05,0.542,1,17803.073,1,0.0,same
0,836,catch,"[(1175, 807)]",[],[1],[],vertical,"(390.0, 262.0)",1.7,nan,1,17808.613,1,0.0,same
0,837,invalid_same_bar,"[(1165, 814)]",[],[1],[0.5333333333333333],vertical,"(890.0, 262.0)",0.4666666666666667,0.492,1,17813.595,1,0.0,same
0,838,valid,"[(1138, 799)]",[],[1],[0.5833333333333334],vertical,"(390.0, 762.0)",1.0666666666666667,0.541,1,17818.204,2,0.0,same
0,839,invalid_same_bar,"[(1175, 795)]",[],[1],[0.6],vertical,"(890.0, 262.0)",0.8333333333333334,0.559,1,17824.204,2,0.0,same
0,840,valid,"[(1165, 803)]",[],[1],[0.5],vertical,"(390.0, 262.0)",1.3833333333333333,0.464,1,17829.416,2,0.0,same
0,841,valid,"[(1174, 806)]",[],[1],[0.6333333333333333],vertical,"(890.0, 262.0)",1.2833333333333332,0.591,1,17835.538,3,0.0,same
0,842,valid,"[(1137, 796)]",[],[1],[0.5166666666666666],vertical,"(890.0, 262.0)",0.6,0.473,1,17841.764,3,0.0,same
0,843,invalid_adjacent_other_bar,"[(1171, 791)]",[],[1],[0.5333333333333333],vertical,"(890.0, 762.0)",0.7166666666666667,0.494,1,17847.166,3,0.0,other
0,844,invalid_adjacent_other_bar,"[(1174, 799)]",[],[1],[0.5333333333333333],vertical,"(890.0, 262.0)",0.8833333333333333,0.494,1,17852.615,3,0.0,other
0,845,invalid_same_bar,"[(1135, 808)]",[],[1],[0.5666666666666667],horizontal,"(390.0, 762.0)",1.3833333333333333,0.527,1,17858.153,3,0.0,same
0,846,catch,"[(1160, 781)]",[],[1],[],horizontal,"(390.0, 262.0)",1.7,nan,1,17864.406,3,0.0,same
0,847,catch,"[(1190, 794)]",[],[1],[],horizontal,"(390.0, 762.0)",,"('cti', 1.346),nan",0,17870.555,0,0.02,same
0,848,valid,"[(1141, 790)]",[],[1],[0.85],horizontal,"(390.0, 262.0)",1.3666666666666667,nan,0,17875.121,0,0.02,same
0,849,valid,"[(1135, 808)]",[],[1],[0.5333333333333333],vertical,"(890.0, 262.0)",1.0666666666666667,0.495,1,17880.586,1,0.02,same
0,850,valid,"[(1172, 813)]",[],[1],[0.5166666666666666],horizontal,"(890.0, 762.0)",0.75,0.478,1,17885.289,1,0.02,same
0,851,invalid_adjacent_other_bar,"[(1168, 794)]",[],[1],[0.6],horizontal,"(390.0, 762.0)",1.2833333333333332,0.553,1,17889.722,1,0.02,other
0,852,valid,"[(1163, 801)]",[],[1],[0.5166666666666666],vertical,"(390.0, 762.0)",0.7166666666666667,0.474,1,17895.104,2,0.02,same
0,853,invalid_adjacent_other_bar,"[(1161, 798)]",[],[1],[0.7666666666666666],vertical,"(390.0, 262.0)",0.8333333333333334,0.725,1,17899.874,2,0.02,other
0,854,valid,"[(1140, 805)]",[],[1],[0.5666666666666667],horizontal,"(890.0, 762.0)",1.1,0.52,1,17905.38,2,0.02,same
0,855,valid,"[(1167, 813)]",[],[1],[0.5],vertical,"(890.0, 262.0)",0.5833333333333334,0.454,1,17910.931,3,0.02,same
0,856,valid,"[(1165, 799)]",[],[1],[0.6333333333333333],horizontal,"(390.0, 762.0)",0.6333333333333333,0.583,1,17916.678,3,0.02,same
0,857,valid,"[(1165, 794)]",[],[1],[0.6333333333333333],horizontal,"(390.0, 262.0)",0.5833333333333334,0.585,1,17922.154,3,0.02,same
0,858,valid,"[(1165, 803)]",[],[1],[0.5166666666666666],horizontal,"(890.0, 262.0)",0.4666666666666667,0.475,1,17927.821,3,0.02,same
0,859,valid,"[(1170, 790)]",[],[1],[0.5166666666666666],horizontal,"(890.0, 762.0)",0.7333333333333333,0.475,1,17932.948,3,0.02,same
0,860,valid,"[(1160, 787)]",[],[1],[0.5166666666666666],vertical,"(890.0, 262.0)",1.4833333333333334,0.477,1,17938.471,3,0.02,same
