block,practice,trial,change_interval_s,change_interval_frames,taps_start_time_during_fix,taps_end_time_during_fix,taps_start_loc_during_fix,taps_end_loc_during_fix,taps_on_lever_during_fix,taps_on_lever_frame_during_fix,taps_on_lever_s_during_fix,fix_xy,bar_orientation,target_xy,rt,acc,time
1,True,1,1.411,84,[],[],"[(1112, 874)]",[],[1],[134],[2.2333333333333334],"[640.0, 512.0]",horizontal,"(890.0, 762.0)",[0.815],0,0.328
1,True,2,0.634,38,[],[],"[(1113, 929)]",[],[1],[88],[1.4666666666666666],"[640.0, 512.0]",horizontal,"(890.0, 762.0)",[0.816],0,59.114
1,True,3,1.164,69,[],[],"[(524, 308), (1141, 126), (936, 928), (1129, 416), (1078, 916)]",[],"[0, 0, 0, 0, 1]",[75],[1.25],"[640.0, 512.0]",horizontal,"(390.0, 262.0)",[0.083],1,62.118
1,True,4,1.243,74,[],[],"[(922, 790), (1105, 894)]",[],"[0, 1]",[84],[1.4],"[640.0, 512.0]",horizontal,"(390.0, 762.0)",[0.153],1,81.702
1,False,1,1.102,66,[],[],"[(1148, 893)]",[],[1],[72],[1.2],"[640.0, 512.0]",vertical,"(390.0, 762.0)",[0.084],1,85.486
1,False,2,0.471,28,[],[],"[(1147, 915)]",[],[1],[65],[1.0833333333333333],"[640.0, 512.0]",vertical,"(890.0, 262.0)",[0.591],1,88.211
1,False,3,1.194,71,[],[],"[(619, 1018), (1113, 918)]",[],"[0, 1]",[88],[1.4666666666666666],"[640.0, 512.0]",vertical,"(390.0, 262.0)",[0.27],1,90.836
1,False,4,1.391,83,[],[114560],"[(678, 501), (594, 495), (744, 709), (1112, 925)]","[(1078, 937)]","[0, 0, 0, 1]","[83, 133]","[1.3833333333333333, 2.216666666666667]","[640.0, 512.0]",horizontal,"(390.0, 762.0)","[0, 0.816]",0,93.856
1,False,5,0.668,40,[],[],"[(1154, 926)]",[],[1],[90],[1.5],"[640.0, 512.0]",horizontal,"(390.0, 262.0)",[0.806],0,102.023
1,False,6,1.334,80,[],[126111],"[(571, 563), (590, 558), (604, 696), (927, 838), (707, 868), (1118, 898)]","[(1086, 912)]","[0, 0, 0, 0, 0, 1]",[71],[1.1833333333333333],"[640.0, 512.0]",vertical,"(390.0, 762.0)",[0],0,105.158
1,False,7,1.166,69,[],[],"[(1131, 903)]",[],[1],[99],[1.65],"[640.0, 512.0]",horizontal,"(890.0, 262.0)",[0.474],1,112.756
1,False,8,1.493,89,[],[132362],"[(1111, 915)]","[(748, 200)]",[1],[87],[1.45],"[640.0, 512.0]",horizontal,"(890.0, 262.0)",[0],0,116.0
1,False,9,0.939,56,[],[],"[(1075, 928)]",[],[1],[85],[1.4166666666666667],"[640.0, 512.0]",vertical,"(890.0, 262.0)",[0.459],1,119.018
1,False,10,0.788,47,[],[],"[(1132, 919)]",[],[1],[60],[1.0],"[640.0, 512.0]",horizontal,"(390.0, 762.0)",[0.199],1,122.014
1,False,11,0.834,50,[],[],"[(1127, 900)]",[],[1],[69],[1.15],"[640.0, 512.0]",horizontal,"(890.0, 262.0)",[0.298],1,124.582
1,False,12,0.46,27,[],[],"[(1122, 893)]",[],[1],[77],[1.2833333333333332],"[640.0, 512.0]",vertical,"(390.0, 762.0)",[0.807],0,127.184
1,False,13,1.1,66,[],[],"[(1112, 912)]",[],[1],[68],[1.1333333333333333],"[640.0, 512.0]",vertical,"(390.0, 762.0)",[0.018],1,129.939
1,False,14,1.328,79,[],[150532],"[(1141, 919)]","[(1141, 919)]",[1],[49],[0.8166666666666667],"[640.0, 512.0]",vertical,"(390.0, 762.0)",[0],0,134.724
1,False,15,1.283,76,[],[164962],"[(1086, 937)]","[(1079, 942)]",[1],[48],[0.8],"[640.0, 512.0]",horizontal,"(890.0, 262.0)",[0],0,137.178
1,False,16,0.664,39,[],[],"[(1124, 932)]",[],[1],[89],[1.4833333333333334],"[640.0, 512.0]",horizontal,"(390.0, 762.0)",[0.823],0,151.613
1,False,17,0.649,38,[],[],"[(1116, 912)]",[],[1],[72],[1.2],"[640.0, 512.0]",horizontal,"(390.0, 762.0)",[0.536],1,155.188
1,False,18,0.471,28,[],[],"[(1127, 902)]",[],[1],[48],[0.8],"[640.0, 512.0]",vertical,"(890.0, 262.0)",[0.313],1,157.895
1,False,19,1.272,76,[],[176066],"[(1130, 910)]","[(1128, 923)]",[1],[59],[0.9833333333333333],"[640.0, 512.0]",horizontal,"(390.0, 262.0)",[0],0,160.207
1,False,20,0.517,31,[],[],"[(1123, 909)]",[],[1],[63],[1.05],"[640.0, 512.0]",horizontal,"(390.0, 762.0)",[0.511],1,162.73
1,False,21,0.761,45,[],[],"[(1107, 902)]",[],[1],[75],[1.25],"[640.0, 512.0]",vertical,"(890.0, 262.0)",[0.479],1,165.466
1,False,22,1.04,62,[],[187563],"[(1137, 902)]","[(1091, 916)]",[1],[60],[1.0],"[640.0, 512.0]",vertical,"(390.0, 762.0)",[0],0,171.619
1,False,23,1.5,90,[],[190973],"[(1151, 918)]","[(1135, 932)]",[1],[80],[1.3333333333333333],"[640.0, 512.0]",vertical,"(390.0, 262.0)",[0],0,174.216
1,False,24,1.152,69,[],[],"[(1129, 902)]",[],[1],[108],[1.8],"[640.0, 512.0]",horizontal,"(390.0, 262.0)",[0.625],1,177.626
1,False,25,0.496,29,[],[],"[(1128, 893)]",[],[1],[61],[1.0166666666666666],"[640.0, 512.0]",horizontal,"(890.0, 262.0)",[0.512],1,182.201
1,False,26,0.855,51,[],[200587],"[(1146, 898)]","[(1111, 911)]",[1],[50],[0.8333333333333334],"[640.0, 512.0]",horizontal,"(390.0, 762.0)",[0],0,184.86
1,False,27,1.187,71,[],[],"[(1117, 907)]",[],[1],[76],[1.2666666666666666],"[640.0, 512.0]",vertical,"(890.0, 262.0)",[0.067],1,187.233
1,False,28,0.991,59,[],[],"[(1134, 904)]",[],[1],[109],[1.8166666666666667],"[640.0, 512.0]",vertical,"(890.0, 762.0)",[0.799],0,190.294
1,False,29,0.654,39,[],[],"[(1117, 910)]",[],[1],[71],[1.1833333333333333],"[640.0, 512.0]",horizontal,"(390.0, 262.0)",[0.515],1,193.594
1,False,30,1.186,71,[],[],"[(1136, 899)]",[],[1],[93],[1.55],"[640.0, 512.0]",horizontal,"(390.0, 262.0)",[0.343],1,196.311
1,False,31,0.711,42,[],[],"[(1123, 906)]",[],[1],[72],[1.2],"[640.0, 512.0]",horizontal,"(890.0, 262.0)",[0.475],1,199.379
1,False,32,0.721,43,[],[],"[(1137, 907)]",[],[1],[93],[1.55],"[640.0, 512.0]",vertical,"(390.0, 762.0)",[0.803],0,202.109
1,False,33,0.903,54,[],[],"[(1105, 906)]",[],[1],[82],[1.3666666666666667],"[640.0, 512.0]",horizontal,"(890.0, 762.0)",[0.442],1,205.133
1,False,34,0.774,46,[],[],"[(1126, 899)]",[],[1],[75],[1.25],"[640.0, 512.0]",vertical,"(890.0, 262.0)",[0.474],1,208.006
1,False,35,0.989,59,[],[],"[(1131, 901)]",[],[1],[89],[1.4833333333333334],"[640.0, 512.0]",horizontal,"(890.0, 262.0)",[0.476],1,210.758
1,False,36,1.008,60,[],[],"[(1132, 902)]",[],[1],[91],[1.5166666666666666],"[640.0, 512.0]",horizontal,"(890.0, 762.0)",[0.494],1,213.737
1,False,37,1.494,89,[],[],"[(1147, 907)]",[],[1],[102],[1.7],"[640.0, 512.0]",vertical,"(890.0, 762.0)",[0.195],1,216.696
1,False,38,1.063,63,[],[],"[(1141, 907)]",[],[1],[91],[1.5166666666666666],"[640.0, 512.0]",vertical,"(890.0, 262.0)",[0.442],1,219.844
1,False,39,1.127,67,[],[],"[(1142, 907)]",[],[1],[99],[1.65],"[640.0, 512.0]",vertical,"(390.0, 762.0)",[0.517],1,222.861
1,False,40,1.241,74,[],[],"[(1133, 901)]",[],[1],[107],[1.7833333333333332],"[640.0, 512.0]",horizontal,"(390.0, 762.0)",[0.529],1,226.07
1,False,41,0.845,50,[],[],"[(1126, 902)]",[],[1],[79],[1.3166666666666667],"[640.0, 512.0]",vertical,"(890.0, 262.0)",[0.46],1,229.344
1,False,42,1.394,83,[],[],"[(1146, 909)]",[],[1],[133],[2.216666666666667],"[640.0, 512.0]",vertical,"(890.0, 762.0)",[0.799],0,232.141
1,False,43,1.393,83,[],[],"[(1131, 902)]",[],[1],[110],[1.8333333333333333],"[640.0, 512.0]",horizontal,"(390.0, 762.0)",[0.435],1,235.799
1,False,44,0.689,41,[],[],"[(1141, 907)]",[],[1],[91],[1.5166666666666666],"[640.0, 512.0]",vertical,"(890.0, 262.0)",[0.811],0,243.885
1,False,45,0.698,41,[],[],"[(1107, 919)]",[],[1],[74],[1.2333333333333334],"[640.0, 512.0]",vertical,"(390.0, 762.0)",[0.529],1,246.892
1,False,46,0.327,19,[],[],"[(1141, 901)]",[],[1],[69],[1.15],"[640.0, 512.0]",horizontal,"(390.0, 262.0)",[0.805],0,249.986
1,False,47,1.121,67,[],[],"[(1146, 894)]",[],[1],[90],[1.5],"[640.0, 512.0]",horizontal,"(390.0, 262.0)",[0.361],1,252.653
1,False,48,0.798,47,[],[],"[(1144, 916)]",[],[1],[92],[1.5333333333333332],"[640.0, 512.0]",vertical,"(390.0, 262.0)",[0.725],1,255.694
1,False,49,1.062,63,[],[],"[(1137, 914)]",[],[1],[113],[1.8833333333333333],"[640.0, 512.0]",vertical,"(390.0, 762.0)",[0.804],0,258.73
1,False,50,1.093,65,[],[],"[(1109, 902)]",[],[1],[95],[1.5833333333333333],"[640.0, 512.0]",vertical,"(390.0, 762.0)",[0.475],1,262.098
1,False,51,1.223,73,[],[],"[(1131, 909)]",[],[1],[103],[1.7166666666666666],"[640.0, 512.0]",vertical,"(890.0, 262.0)",[0.484],1,273.029
1,False,52,0.802,48,[],[],"[(1141, 902)]",[],[1],[86],[1.4333333333333333],"[640.0, 512.0]",horizontal,"(890.0, 762.0)",[0.602],1,276.746
1,False,53,0.91,54,[],[],"[(1132, 910)]",[],[1],[104],[1.7333333333333334],"[640.0, 512.0]",vertical,"(890.0, 262.0)",[0.799],0,279.657
1,False,54,0.854,51,[],[],"[(1131, 922)]",[],[1],[84],[1.4],"[640.0, 512.0]",horizontal,"(390.0, 262.0)",[0.524],1,282.864
1,False,55,1.183,70,[],[],"[(1132, 907)]",[],[1],[98],[1.6333333333333333],"[640.0, 512.0]",horizontal,"(890.0, 262.0)",[0.448],1,293.683
1,False,56,1.499,89,[],[],"[(1131, 902)]",[],[1],[118],[1.9666666666666666],"[640.0, 512.0]",vertical,"(390.0, 262.0)",[0.46],1,296.829
1,False,57,0.943,56,[],[],"[(1134, 902)]",[],[1],[89],[1.4833333333333334],"[640.0, 512.0]",vertical,"(390.0, 262.0)",[0.53],1,300.317
1,False,58,0.327,19,[],[],"[(1151, 909)]",[],[1],[57],[0.95],"[640.0, 512.0]",horizontal,"(390.0, 762.0)",[0.607],1,303.292
1,False,59,1.442,86,[],[],"[(1142, 901)]",[],[1],[106],[1.7666666666666666],"[640.0, 512.0]",horizontal,"(390.0, 262.0)",[0.314],1,305.781
1,False,60,0.886,53,[],[],"[(1115, 904)]",[],[1],[87],[1.45],"[640.0, 512.0]",vertical,"(890.0, 262.0)",[0.543],1,309.043
2,False,61,1.112,66,[],[],"[(1130, 919)]",[],[1],[98],[1.6333333333333333],"[640.0, 512.0]",vertical,"(890.0, 262.0)",[0.507],1,312.005
2,False,62,0.749,44,[],[],"[(1141, 904)]",[],[1],[94],[1.5666666666666667],"[640.0, 512.0]",vertical,"(890.0, 262.0)",[0.804],0,315.134
2,False,63,0.377,22,[],[],"[(1122, 886)]",[],[1],[64],[1.0666666666666667],"[640.0, 512.0]",vertical,"(890.0, 262.0)",[0.679],1,318.187
2,False,64,0.729,43,[],[],"[(1122, 917)]",[],[1],[74],[1.2333333333333334],"[640.0, 512.0]",horizontal,"(890.0, 262.0)",[0.495],1,320.811
2,False,65,0.972,58,[],[],"[(1122, 893)]",[],[1],[108],[1.8],"[640.0, 512.0]",horizontal,"(890.0, 262.0)",[0.796],0,323.495
2,False,66,0.77,46,[],[],"[(1107, 910)]",[],[1],[79],[1.3166666666666667],"[640.0, 512.0]",vertical,"(890.0, 262.0)",[0.531],1,326.746
2,False,67,1.315,78,[],[],"[(1149, 898)]",[],[1],[89],[1.4833333333333334],"[640.0, 512.0]",vertical,"(890.0, 262.0)",[0.166],1,332.424
2,False,68,1.142,68,[],[],"[(1136, 918)]",[],[1],[94],[1.5666666666666667],"[640.0, 512.0]",vertical,"(390.0, 762.0)",[0.419],1,335.451
2,False,69,0.316,18,[],[],"[(1146, 902)]",[],[1],[59],[0.9833333333333333],"[640.0, 512.0]",vertical,"(890.0, 762.0)",[0.653],1,338.546
2,False,70,1.393,83,[],[357324],"[(1128, 912)]","[(1091, 927)]",[1],"[83, 133]","[1.3833333333333333, 2.216666666666667]","[640.0, 512.0]",vertical,"(390.0, 762.0)","[0, 0.806]",0,341.014
2,False,71,0.935,56,[],[],"[(1123, 898)]",[],[1],[84],[1.4],"[640.0, 512.0]",vertical,"(890.0, 262.0)",[0.442],1,344.768
2,False,72,1.243,74,[],[],"[(1128, 913)]",[],[1],[124],[2.0666666666666664],"[640.0, 512.0]",horizontal,"(890.0, 262.0)",[0.805],0,347.704
2,False,73,0.789,47,[],[],"[(1131, 914)]",[],[1],[79],[1.3166666666666667],"[640.0, 512.0]",horizontal,"(890.0, 262.0)",[0.518],1,351.266
2,False,74,0.641,38,[],[],"[(1132, 903)]",[],[1],[72],[1.2],"[640.0, 512.0]",vertical,"(390.0, 762.0)",[0.545],1,354.121
2,False,75,1.417,85,[],[],"[(1151, 909)]",[],[1],[108],[1.8],"[640.0, 512.0]",horizontal,"(390.0, 262.0)",[0.362],1,356.796
2,False,76,1.072,64,[],[],"[(1136, 912)]",[],[1],[97],[1.6166666666666667],"[640.0, 512.0]",vertical,"(890.0, 762.0)",[0.531],1,360.019
2,False,77,0.789,47,[],[],"[(1131, 925)]",[],[1],[89],[1.4833333333333334],"[640.0, 512.0]",horizontal,"(390.0, 262.0)",[0.672],1,363.143
2,False,78,1.346,80,[],[],"[(1146, 902)]",[],[1],[111],[1.8499999999999999],"[640.0, 512.0]",horizontal,"(390.0, 762.0)",[0.495],1,366.134
2,False,79,0.775,46,[],[],"[(1122, 922)]",[],[1],[80],[1.3333333333333333],"[640.0, 512.0]",vertical,"(890.0, 262.0)",[0.544],1,369.508
2,False,80,0.647,38,[],[],"[(1131, 904)]",[],[1],[88],[1.4666666666666666],"[640.0, 512.0]",vertical,"(390.0, 262.0)",[0.807],0,372.955
2,False,81,0.821,49,[],[],"[(1130, 899)]",[],[1],[80],[1.3333333333333333],"[640.0, 512.0]",horizontal,"(890.0, 262.0)",[0.495],1,375.938
2,False,82,0.616,36,[],[],"[(1114, 902)]",[],[1],[70],[1.1666666666666667],"[640.0, 512.0]",horizontal,"(890.0, 762.0)",[0.541],1,378.806
2,False,83,1.277,76,[],[],"[(1114, 904)]",[],[1],[118],[1.9666666666666666],"[640.0, 512.0]",vertical,"(890.0, 262.0)",[0.672],1,381.443
2,False,84,0.632,37,[],[],"[(1127, 907)]",[],[1],[80],[1.3333333333333333],"[640.0, 512.0]",horizontal,"(890.0, 262.0)",[0.694],1,384.888
2,False,85,0.664,39,[],[],"[(1137, 931)]",[],[1],[82],[1.3666666666666667],"[640.0, 512.0]",vertical,"(390.0, 762.0)",[0.685],1,387.718
2,False,86,1.421,85,[],[],"[(1128, 921)]",[],[1],[120],[2.0],"[640.0, 512.0]",vertical,"(890.0, 762.0)",[0.568],1,391.5
2,False,87,1.028,61,[],[],"[(1125, 911)]",[],[1],[94],[1.5666666666666667],"[640.0, 512.0]",vertical,"(390.0, 762.0)",[0.526],1,395.005
2,False,88,0.769,46,[],[],"[(1102, 897)]",[],[1],[80],[1.3333333333333333],"[640.0, 512.0]",vertical,"(390.0, 762.0)",[0.55],1,398.06
2,False,89,0.802,48,[],[],"[(1122, 911)]",[],[1],[82],[1.3666666666666667],"[640.0, 512.0]",vertical,"(890.0, 262.0)",[0.542],1,400.877
2,False,90,1.158,69,[],[],"[(1117, 912)]",[],[1],[102],[1.7],"[640.0, 512.0]",vertical,"(390.0, 262.0)",[0.526],1,403.758
2,False,91,0.662,39,[],[],"[(1112, 912)]",[],[1],[74],[1.2333333333333334],"[640.0, 512.0]",horizontal,"(890.0, 762.0)",[0.558],1,406.949
2,False,92,1.316,78,[],[],"[(1126, 923)]",[],[1],[113],[1.8833333333333333],"[640.0, 512.0]",horizontal,"(390.0, 762.0)",[0.561],1,409.698
2,False,93,0.716,42,[],[],"[(1127, 912)]",[],[1],[78],[1.3],"[640.0, 512.0]",horizontal,"(390.0, 262.0)",[0.576],1,413.078
2,False,94,0.752,45,[],[],"[(1125, 922)]",[],[1],[79],[1.3166666666666667],"[640.0, 512.0]",horizontal,"(390.0, 762.0)",[0.551],1,415.869
2,False,95,0.936,56,[],[],"[(1117, 907)]",[],[1],[91],[1.5166666666666666],"[640.0, 512.0]",vertical,"(390.0, 262.0)",[0.559],1,418.751
2,False,96,1.46,87,[],[],"[(1136, 899)]",[],[1],[114],[1.9],"[640.0, 512.0]",vertical,"(890.0, 262.0)",[0.425],1,421.78
2,False,97,0.951,57,[],[],"[(1129, 911)]",[],[1],[86],[1.4333333333333333],"[640.0, 512.0]",horizontal,"(890.0, 762.0)",[0.459],1,425.184
2,False,98,1.195,71,[],[],"[(1107, 919)]",[],[1],[106],[1.7666666666666666],"[640.0, 512.0]",vertical,"(890.0, 762.0)",[0.565],1,428.103
2,False,99,1.436,86,[],[],"[(1107, 916)]",[],[1],[118],[1.9666666666666666],"[640.0, 512.0]",horizontal,"(390.0, 262.0)",[0.517],1,431.376
2,False,100,0.886,53,[],[],"[(1130, 918)]",[],[1],[86],[1.4333333333333333],"[640.0, 512.0]",vertical,"(890.0, 762.0)",[0.526],1,434.917
2,False,101,1.485,89,[],[],"[(1141, 912)]",[],[1],[110],[1.8333333333333333],"[640.0, 512.0]",horizontal,"(390.0, 262.0)",[0.329],1,437.856
2,False,102,1.395,83,[],[],"[(1128, 917)]",[],[1],[114],[1.9],"[640.0, 512.0]",vertical,"(890.0, 762.0)",[0.495],1,441.206
2,False,103,1.449,86,[],[],"[(1102, 909)]",[],[1],[109],[1.8166666666666667],"[640.0, 512.0]",horizontal,"(890.0, 262.0)",[0.364],1,444.634
2,False,104,1.144,68,[],[],"[(1134, 921)]",[],[1],[100],[1.6666666666666667],"[640.0, 512.0]",horizontal,"(890.0, 262.0)",[0.511],1,447.954
2,False,105,1.093,65,[],[],"[(1127, 911)]",[],[1],[100],[1.6666666666666667],"[640.0, 512.0]",vertical,"(890.0, 262.0)",[0.562],1,451.173
2,False,106,0.963,57,[],[],"[(1131, 898)]",[],[1],[90],[1.5],"[640.0, 512.0]",vertical,"(390.0, 762.0)",[0.526],1,454.326
2,False,107,0.336,20,[],[],"[(1107, 923)]",[],[1],[69],[1.15],"[640.0, 512.0]",horizontal,"(890.0, 262.0)",[0.79],1,457.313
2,False,108,0.915,54,[],[],"[(1118, 912)]",[],[1],[95],[1.5833333333333333],"[640.0, 512.0]",horizontal,"(390.0, 762.0)",[0.655],1,461.16
2,False,109,0.651,39,[],[],"[(1123, 917)]",[],[1],[70],[1.1666666666666667],"[640.0, 512.0]",vertical,"(890.0, 262.0)",[0.498],1,464.861
2,False,110,0.538,32,[],[],"[(1131, 899)]",[],[1],[67],[1.1166666666666667],"[640.0, 512.0]",horizontal,"(390.0, 762.0)",[0.559],1,467.55
2,False,111,1.266,75,[],[],"[(1122, 909)]",[],[1],[110],[1.8333333333333333],"[640.0, 512.0]",horizontal,"(390.0, 762.0)",[0.566],1,470.142
2,False,112,0.9,54,[],[],"[(1110, 907)]",[],[1],[85],[1.4166666666666667],"[640.0, 512.0]",vertical,"(890.0, 762.0)",[0.493],1,473.506
2,False,113,1.329,79,[],[],"[(1131, 910)]",[],[1],[109],[1.8166666666666667],"[640.0, 512.0]",horizontal,"(390.0, 262.0)",[0.48],1,476.412
2,False,114,1.245,74,[],[],"[(1119, 916)]",[],[1],[110],[1.8333333333333333],"[640.0, 512.0]",vertical,"(390.0, 762.0)",[0.583],1,479.726
2,False,115,0.527,31,[],[],"[(1102, 909)]",[],[1],[64],[1.0666666666666667],"[640.0, 512.0]",vertical,"(890.0, 262.0)",[0.527],1,483.055
2,False,116,1.355,81,[],[],"[(1094, 903)]",[],[1],[113],[1.8833333333333333],"[640.0, 512.0]",horizontal,"(890.0, 762.0)",[0.511],1,486.267
2,False,117,0.576,34,[],[],"[(1112, 912)]",[],[1],[71],[1.1833333333333333],"[640.0, 512.0]",horizontal,"(390.0, 762.0)",[0.589],1,489.667
2,False,118,1.244,74,[],[],"[(1131, 911)]",[],[1],[102],[1.7],"[640.0, 512.0]",vertical,"(890.0, 262.0)",[0.44],1,492.322
2,False,119,1.483,88,[],[],"[(1128, 916)]",[],[1],[115],[1.9166666666666667],"[640.0, 512.0]",horizontal,"(390.0, 262.0)",[0.429],1,495.498
2,False,120,1.182,70,[],[],"[(1129, 907)]",[],[1],[100],[1.6666666666666667],"[640.0, 512.0]",horizontal,"(390.0, 262.0)",[0.478],1,498.952
3,False,121,1.129,67,[],[],"[(1113, 903)]",[],[1],[100],[1.6666666666666667],"[640.0, 512.0]",vertical,"(390.0, 762.0)",[0.526],1,502.132
3,False,122,1.234,74,[],[],"[(1098, 914)]",[],[1],[112],[1.8666666666666667],"[640.0, 512.0]",vertical,"(390.0, 762.0)",[0.612],1,505.284
3,False,123,1.345,80,[],[],"[(1126, 910)]",[],[1],[109],[1.8166666666666667],"[640.0, 512.0]",vertical,"(390.0, 262.0)",[0.465],1,508.651
3,False,124,0.994,59,[],[],"[(1120, 907)]",[],[1],[91],[1.5166666666666666],"[640.0, 512.0]",horizontal,"(390.0, 262.0)",[0.524],1,511.992
3,False,125,0.549,32,[],[],"[(1102, 918)]",[],[1],[77],[1.2833333333333332],"[640.0, 512.0]",vertical,"(390.0, 262.0)",[0.728],1,515.077
3,False,126,1.399,83,[],[],"[(1137, 915)]",[],[1],[110],[1.8333333333333333],"[640.0, 512.0]",horizontal,"(890.0, 262.0)",[0.429],1,522.395
3,False,127,0.58,34,[],[],"[(1112, 905)]",[],[1],[72],[1.2],"[640.0, 512.0]",vertical,"(890.0, 762.0)",[0.612],1,525.746
3,False,128,1.391,83,[],[],"[(1107, 922)]",[],[1],[85],[1.4166666666666667],"[640.0, 512.0]",horizontal,"(390.0, 762.0)",[0.018],1,528.478
3,False,129,1.05,63,[],[],"[(1117, 922)]",[],[1],[95],[1.5833333333333333],"[640.0, 512.0]",vertical,"(890.0, 762.0)",[0.508],1,531.817
3,False,130,0.847,50,[],[],"[(1127, 916)]",[],[1],[84],[1.4],"[640.0, 512.0]",horizontal,"(390.0, 762.0)",[0.546],1,534.922
3,False,131,1.491,89,[],[],"[(1119, 919)]",[],[1],[94],[1.5666666666666667],"[640.0, 512.0]",vertical,"(390.0, 262.0)",[0.067],1,537.825
3,False,132,0.981,58,[],[],"[(1102, 921)]",[],[1],[101],[1.6833333333333333],"[640.0, 512.0]",horizontal,"(390.0, 762.0)",[0.699],1,540.887
3,False,133,1.369,82,[],[],"[(1109, 907)]",[],[1],[112],[1.8666666666666667],"[640.0, 512.0]",horizontal,"(890.0, 262.0)",[0.476],1,544.094
3,False,134,0.664,39,[],[],"[(1128, 916)]",[],[1],[74],[1.2333333333333334],"[640.0, 512.0]",horizontal,"(890.0, 762.0)",[0.566],1,547.508
3,False,135,0.787,47,[],[],"[(1141, 912)]",[],[1],[91],[1.5166666666666666],"[640.0, 512.0]",horizontal,"(390.0, 262.0)",[0.712],1,550.286
3,False,136,0.859,51,[],[],"[(1118, 902)]",[],[1],[82],[1.3666666666666667],"[640.0, 512.0]",horizontal,"(890.0, 262.0)",[0.494],1,553.357
3,False,137,1.386,83,[],[],"[(1116, 917)]",[],[1],[119],[1.9833333333333334],"[640.0, 512.0]",vertical,"(390.0, 762.0)",[0.576],1,556.237
3,False,138,0.414,24,[],[],"[(1122, 927)]",[],[1],[59],[0.9833333333333333],"[640.0, 512.0]",vertical,"(890.0, 262.0)",[0.57],1,559.722
3,False,139,1.386,83,[],[],"[(1124, 906)]",[],[1],[112],[1.8666666666666667],"[640.0, 512.0]",horizontal,"(390.0, 262.0)",[0.456],1,562.277
3,False,140,0.396,23,[],[],"[(1133, 915)]",[],[1],[60],[1.0],"[640.0, 512.0]",horizontal,"(890.0, 262.0)",[0.596],1,565.625
3,False,141,0.86,51,[],[],"[(1107, 922)]",[],[1],[79],[1.3166666666666667],"[640.0, 512.0]",vertical,"(890.0, 262.0)",[0.442],1,568.153
3,False,142,0.427,25,[],[],"[(1105, 925)]",[],[1],[67],[1.1166666666666667],"[640.0, 512.0]",vertical,"(390.0, 762.0)",[0.669],1,574.015
3,False,143,0.734,44,[],[],"[(1102, 905)]",[],[1],[81],[1.35],"[640.0, 512.0]",horizontal,"(890.0, 762.0)",[0.59],1,576.665
3,False,144,0.855,51,[],[],"[(1103, 911)]",[],[1],[90],[1.5],"[640.0, 512.0]",vertical,"(390.0, 262.0)",[0.622],1,579.554
3,False,145,1.098,65,[],[],"[(1122, 929)]",[],[1],[98],[1.6333333333333333],"[640.0, 512.0]",vertical,"(890.0, 262.0)",[0.528],1,582.537
3,False,146,0.808,48,[],[],"[(1107, 917)]",[],[1],[85],[1.4166666666666667],"[640.0, 512.0]",vertical,"(390.0, 262.0)",[0.595],1,585.69
3,False,147,0.943,56,[],[],"[(1117, 919)]",[],[1],[86],[1.4333333333333333],"[640.0, 512.0]",horizontal,"(890.0, 262.0)",[0.48],1,588.647
3,False,148,0.866,51,[],[],"[(1112, 906)]",[],[1],[90],[1.5],"[640.0, 512.0]",vertical,"(890.0, 762.0)",[0.635],1,591.643
3,False,149,0.664,39,[],[],"[(1098, 908)]",[],[1],[73],[1.2166666666666666],"[640.0, 512.0]",vertical,"(390.0, 762.0)",[0.541],1,594.64
3,False,150,0.31,18,[],[],"[(1096, 901)]",[],[1],[62],[1.0333333333333332],"[640.0, 512.0]",vertical,"(890.0, 262.0)",[0.707],1,597.371
3,False,151,0.356,21,[],[],"[(1107, 908)]",[],[1],[60],[1.0],"[640.0, 512.0]",vertical,"(890.0, 762.0)",[0.63],1,601.23
3,False,152,0.78,46,[],[],"[(1128, 917)]",[],[1],[78],[1.3],"[640.0, 512.0]",horizontal,"(390.0, 762.0)",[0.508],1,603.753
3,False,153,0.335,20,[],[],"[(1102, 928)]",[],[1],[56],[0.9333333333333333],"[640.0, 512.0]",horizontal,"(390.0, 262.0)",[0.569],1,606.55
3,False,154,0.839,50,[],[],"[(1122, 915)]",[],[1],[83],[1.3833333333333333],"[640.0, 512.0]",horizontal,"(890.0, 762.0)",[0.526],1,609.021
3,False,155,0.549,32,[],[],"[(1099, 906)]",[],[1],[68],[1.1333333333333333],"[640.0, 512.0]",horizontal,"(390.0, 762.0)",[0.572],1,611.907
3,False,156,0.36,21,[],[],"[(1125, 920)]",[],[1],[55],[0.9166666666666666],"[640.0, 512.0]",vertical,"(890.0, 762.0)",[0.545],1,614.529
3,False,157,0.589,35,[],[],"[(1127, 923)]",[],[1],[69],[1.15],"[640.0, 512.0]",vertical,"(390.0, 262.0)",[0.545],1,616.951
3,False,158,0.86,51,[],[],"[(1102, 902)]",[],[1],[82],[1.3666666666666667],"[640.0, 512.0]",vertical,"(390.0, 262.0)",[0.493],1,619.591
3,False,159,1.365,81,[],[],"[(1118, 914)]",[],[1],[102],[1.7],"[640.0, 512.0]",horizontal,"(890.0, 262.0)",[0.328],1,622.473
3,False,160,1.438,86,[],[],"[(1102, 902)]",[],[1],[118],[1.9666666666666666],"[640.0, 512.0]",vertical,"(390.0, 262.0)",[0.508],1,625.717
3,False,161,1.405,84,[],[],"[(1106, 925)]",[],[1],[108],[1.8],"[640.0, 512.0]",horizontal,"(890.0, 262.0)",[0.385],1,629.18
3,False,162,0.704,42,[],[],"[(1128, 917)]",[],[1],[73],[1.2166666666666666],"[640.0, 512.0]",horizontal,"(890.0, 762.0)",[0.496],1,632.462
3,False,163,1.275,76,[],[],"[(1105, 922)]",[],[1],[119],[1.9833333333333334],"[640.0, 512.0]",horizontal,"(890.0, 762.0)",[0.688],1,635.192
3,False,164,0.897,53,[],[],"[(1125, 907)]",[],[1],[91],[1.5166666666666666],"[640.0, 512.0]",vertical,"(890.0, 262.0)",[0.614],1,638.689
3,False,165,1.454,87,[],[],"[(1108, 909)]",[],[1],[114],[1.9],"[640.0, 512.0]",vertical,"(890.0, 762.0)",[0.425],1,641.692
3,False,166,1.258,75,[],[],"[(1124, 933)]",[],[1],[115],[1.9166666666666667],"[640.0, 512.0]",vertical,"(890.0, 762.0)",[0.635],1,645.059
3,False,167,0.84,50,[],[],"[(1107, 923)]",[],[1],[81],[1.35],"[640.0, 512.0]",vertical,"(390.0, 262.0)",[0.492],1,648.488
3,False,168,0.374,22,[],[],"[(1141, 916)]",[],[1],[62],[1.0333333333333332],"[640.0, 512.0]",vertical,"(890.0, 762.0)",[0.64],1,651.361
3,False,169,0.421,25,[],[],"[(1107, 924)]",[],[1],[58],[0.9666666666666667],"[640.0, 512.0]",vertical,"(890.0, 262.0)",[0.528],1,653.916
3,False,170,0.931,55,[],[],"[(1128, 914)]",[],[1],[87],[1.45],"[640.0, 512.0]",vertical,"(890.0, 262.0)",[0.513],1,656.379
3,False,171,0.508,30,[],[],"[(1109, 927)]",[],[1],[80],[1.3333333333333333],"[640.0, 512.0]",vertical,"(390.0, 262.0)",[0.805],0,659.345
3,False,172,0.494,29,[],[],"[(1093, 916)]",[],[1],[68],[1.1333333333333333],"[640.0, 512.0]",horizontal,"(390.0, 762.0)",[0.629],1,662.196
3,False,173,0.976,58,[],[],"[(1107, 913)]",[],[1],[94],[1.5666666666666667],"[640.0, 512.0]",vertical,"(890.0, 262.0)",[0.577],1,667.167
3,False,174,0.709,42,[],[],"[(1116, 927)]",[],[1],[76],[1.2666666666666666],"[640.0, 512.0]",vertical,"(890.0, 262.0)",[0.544],1,670.232
3,False,175,1.379,82,[],[],"[(1112, 922)]",[],[1],[105],[1.75],"[640.0, 512.0]",vertical,"(890.0, 762.0)",[0.36],1,673.011
3,False,176,1.103,66,[],[],"[(1125, 909)]",[],[1],[95],[1.5833333333333333],"[640.0, 512.0]",vertical,"(890.0, 262.0)",[0.456],1,676.277
3,False,177,0.769,46,[],[],"[(1100, 904)]",[],[1],[79],[1.3166666666666667],"[640.0, 512.0]",horizontal,"(390.0, 762.0)",[0.533],1,679.406
3,False,178,0.504,30,[],[],"[(1102, 909)]",[],[1],[61],[1.0166666666666666],"[640.0, 512.0]",vertical,"(890.0, 262.0)",[0.489],1,682.231
3,False,179,0.437,26,[],[],"[(1107, 912)]",[],[1],[63],[1.05],"[640.0, 512.0]",vertical,"(890.0, 262.0)",[0.594],1,684.776
3,False,180,1.496,89,[],[],"[(1122, 913)]",[],[1],[122],[2.033333333333333],"[640.0, 512.0]",vertical,"(890.0, 762.0)",[0.538],1,687.339
4,False,181,1.236,74,[],[],"[(1102, 925)]",[],[1],[113],[1.8833333333333333],"[640.0, 512.0]",horizontal,"(890.0, 762.0)",[0.624],1,690.886
4,False,182,0.531,31,[],[],"[(1087, 932)]",[],[1],[67],[1.1166666666666667],"[640.0, 512.0]",horizontal,"(890.0, 762.0)",[0.575],1,696.517
4,False,183,0.464,27,[],[],"[(1096, 929)]",[],[1],[60],[1.0],"[640.0, 512.0]",horizontal,"(390.0, 762.0)",[0.524],1,699.82
4,False,184,0.346,20,[],[],"[(1112, 912)]",[],[1],[53],[0.8833333333333333],"[640.0, 512.0]",vertical,"(890.0, 762.0)",[0.533],1,702.967
4,False,185,0.564,33,[],[],"[(1122, 926)]",[],[1],[69],[1.15],"[640.0, 512.0]",vertical,"(890.0, 262.0)",[0.577],1,705.395
4,False,186,0.43,25,[],[],"[(1127, 920)]",[],[1],[59],[0.9833333333333333],"[640.0, 512.0]",horizontal,"(390.0, 262.0)",[0.542],1,708.04
4,False,187,1.211,72,[],[],"[(1102, 907)]",[],[1],[91],[1.5166666666666666],"[640.0, 512.0]",vertical,"(890.0, 262.0)",[0.297],1,710.528
4,False,188,0.818,49,[],[],"[(1132, 914)]",[],[1],[80],[1.3333333333333333],"[640.0, 512.0]",horizontal,"(390.0, 262.0)",[0.489],1,713.554
4,False,189,0.897,53,[],[],"[(1122, 919)]",[],[1],[94],[1.5666666666666667],"[640.0, 512.0]",vertical,"(390.0, 262.0)",[0.66],1,716.392
4,False,190,0.73,43,[],[],"[(1102, 929)]",[],[1],[75],[1.25],"[640.0, 512.0]",vertical,"(390.0, 762.0)",[0.51],1,719.45
4,False,191,1.359,81,[],[],"[(1084, 927)]",[],[1],[90],[1.5],"[640.0, 512.0]",horizontal,"(890.0, 762.0)",[0.134],1,723.745
4,False,192,0.333,19,[],[],"[(1097, 923)]",[],[1],[53],[0.8833333333333333],"[640.0, 512.0]",horizontal,"(390.0, 262.0)",[0.537],1,728.286
4,False,193,0.812,48,[],[],"[(1093, 919)]",[],[1],[81],[1.35],"[640.0, 512.0]",vertical,"(390.0, 762.0)",[0.526],1,730.691
4,False,194,1.137,68,[],[],"[(1093, 917)]",[],[1],[99],[1.65],"[640.0, 512.0]",vertical,"(890.0, 262.0)",[0.503],1,735.237
4,False,195,0.928,55,[],[],"[(1099, 927)]",[],[1],[85],[1.4166666666666667],"[640.0, 512.0]",horizontal,"(390.0, 262.0)",[0.476],1,738.462
4,False,196,0.302,18,[],[],"[(1122, 917)]",[],[1],[56],[0.9333333333333333],"[640.0, 512.0]",horizontal,"(390.0, 262.0)",[0.615],1,741.389
4,False,197,0.647,38,[],[],"[(1102, 917)]",[],[1],[69],[1.15],"[640.0, 512.0]",vertical,"(390.0, 762.0)",[0.497],1,743.841
4,False,198,1.012,60,[],[],"[(1122, 929)]",[],[1],[92],[1.5333333333333332],"[640.0, 512.0]",horizontal,"(890.0, 762.0)",[0.508],1,746.49
4,False,199,0.456,27,[],[],"[(1100, 912)]",[],[1],[62],[1.0333333333333332],"[640.0, 512.0]",horizontal,"(890.0, 762.0)",[0.558],1,749.537
4,False,200,1.272,76,[],[],"[(1127, 914)]",[],[1],[107],[1.7833333333333332],"[640.0, 512.0]",vertical,"(390.0, 762.0)",[0.501],1,752.042
4,False,201,0.765,45,[],[],"[(1116, 904)]",[],[1],[75],[1.25],"[640.0, 512.0]",horizontal,"(890.0, 262.0)",[0.474],1,755.359
4,False,202,1.492,89,[],[],"[(1105, 903)]",[],[1],[111],[1.8499999999999999],"[640.0, 512.0]",horizontal,"(390.0, 762.0)",[0.344],1,758.103
4,False,203,1.108,66,[],[],"[(1122, 907)]",[],[1],[100],[1.6666666666666667],"[640.0, 512.0]",vertical,"(390.0, 762.0)",[0.543],1,761.436
4,False,204,0.414,24,[],[],"[(1101, 913)]",[],[1],[62],[1.0333333333333332],"[640.0, 512.0]",horizontal,"(390.0, 762.0)",[0.609],1,765.295
4,False,205,1.191,71,[],[],"[(1098, 918)]",[],[1],[99],[1.65],"[640.0, 512.0]",horizontal,"(390.0, 262.0)",[0.446],1,769.321
4,False,206,0.748,44,[],[],"[(1093, 910)]",[],[1],[80],[1.3333333333333333],"[640.0, 512.0]",vertical,"(890.0, 262.0)",[0.575],1,772.472
4,False,207,0.749,44,[],[],"[(1105, 915)]",[],[1],[75],[1.25],"[640.0, 512.0]",vertical,"(390.0, 262.0)",[0.49],1,775.299
4,False,208,0.641,38,[],[],"[(1127, 921)]",[],[1],[76],[1.2666666666666666],"[640.0, 512.0]",horizontal,"(890.0, 762.0)",[0.616],1,778.107
4,False,209,1.309,78,[],[],"[(1126, 919)]",[],[1],[107],[1.7833333333333332],"[640.0, 512.0]",vertical,"(390.0, 762.0)",[0.458],1,780.9
4,False,210,0.675,40,[],[],"[(1128, 909)]",[],[1],[72],[1.2],"[640.0, 512.0]",horizontal,"(890.0, 762.0)",[0.508],1,784.164
4,False,211,1.291,77,[],[],"[(1117, 901)]",[],[1],[103],[1.7166666666666666],"[640.0, 512.0]",vertical,"(890.0, 262.0)",[0.413],1,786.951
4,False,212,1.284,77,[],[],"[(1122, 922)]",[],[1],[92],[1.5333333333333332],"[640.0, 512.0]",horizontal,"(890.0, 762.0)",[0.231],1,790.191
4,False,213,0.771,46,[],[],"[(1100, 922)]",[],[1],[77],[1.2833333333333332],"[640.0, 512.0]",horizontal,"(390.0, 762.0)",[0.498],1,793.214
4,False,214,0.683,40,[],[],"[(1120, 918)]",[],[1],[83],[1.3833333333333333],"[640.0, 512.0]",vertical,"(390.0, 262.0)",[0.687],1,796.179
4,False,215,0.868,52,[],[],"[(1138, 912)]",[],[1],[83],[1.3833333333333333],"[640.0, 512.0]",horizontal,"(390.0, 762.0)",[0.495],1,799.079
4,False,216,1.278,76,[],[],"[(1107, 920)]",[],[1],[103],[1.7166666666666666],"[640.0, 512.0]",horizontal,"(390.0, 762.0)",[0.426],1,801.978
4,False,217,1.433,85,[],[],"[(1093, 928)]",[],[1],[99],[1.65],"[640.0, 512.0]",vertical,"(390.0, 762.0)",[0.213],1,805.343
4,False,218,0.428,25,[],[],"[(1112, 923)]",[],[1],[64],[1.0666666666666667],"[640.0, 512.0]",horizontal,"(390.0, 762.0)",[0.625],1,810.313
4,False,219,0.782,46,[],[],"[(1094, 935)]",[],[1],[75],[1.25],"[640.0, 512.0]",vertical,"(890.0, 262.0)",[0.457],1,812.897
4,False,220,1.241,74,[],[],"[(1101, 902)]",[],[1],[101],[1.6833333333333333],"[640.0, 512.0]",vertical,"(390.0, 762.0)",[0.437],1,815.657
4,False,221,0.778,46,[],[],"[(1107, 922)]",[],[1],[77],[1.2833333333333332],"[640.0, 512.0]",vertical,"(890.0, 762.0)",[0.491],1,818.877
4,False,222,0.564,33,[],[],"[(1112, 922)]",[],[1],[65],[1.0833333333333333],"[640.0, 512.0]",horizontal,"(390.0, 262.0)",[0.512],1,821.675
4,False,223,1.066,63,[],[],"[(1077, 935)]",[],[1],[92],[1.5333333333333332],"[640.0, 512.0]",horizontal,"(890.0, 262.0)",[0.462],1,824.255
4,False,224,0.994,59,[],[],"[(1122, 907)]",[],[1],[87],[1.45],"[640.0, 512.0]",horizontal,"(890.0, 262.0)",[0.449],1,827.413
4,False,225,1.394,83,[],[],"[(1109, 909)]",[],[1],[113],[1.8833333333333333],"[640.0, 512.0]",vertical,"(390.0, 762.0)",[0.474],1,830.357
4,False,226,0.734,44,[],[],"[(1083, 910)]",[],[1],[88],[1.4666666666666666],"[640.0, 512.0]",vertical,"(890.0, 262.0)",[0.699],1,833.74
4,False,227,1.479,88,[],[],"[(1105, 918)]",[],[1],[120],[2.0],"[640.0, 512.0]",vertical,"(390.0, 762.0)",[0.508],1,836.71
4,False,228,1.42,85,[],[],"[(1102, 917)]",[],[1],[117],[1.95],"[640.0, 512.0]",vertical,"(890.0, 762.0)",[0.511],1,840.184
4,False,229,0.767,46,[],[],"[(1107, 918)]",[],[1],[77],[1.2833333333333332],"[640.0, 512.0]",horizontal,"(890.0, 262.0)",[0.491],1,843.604
4,False,230,1.061,63,[],[],"[(1106, 918)]",[],[1],[97],[1.6166666666666667],"[640.0, 512.0]",vertical,"(390.0, 262.0)",[0.543],1,846.363
4,False,231,1.169,70,[],[],"[(1128, 910)]",[],[1],[103],[1.7166666666666666],"[640.0, 512.0]",vertical,"(390.0, 762.0)",[0.525],1,849.528
4,False,232,1.155,69,[],[],"[(1117, 916)]",[],[1],[99],[1.65],"[640.0, 512.0]",horizontal,"(390.0, 262.0)",[0.479],1,852.758
4,False,233,0.811,48,[],[],"[(1126, 914)]",[],[1],[81],[1.35],"[640.0, 512.0]",vertical,"(390.0, 762.0)",[0.525],1,855.934
4,False,234,0.598,35,[],[],"[(1102, 912)]",[],[1],[68],[1.1333333333333333],"[640.0, 512.0]",horizontal,"(890.0, 262.0)",[0.531],1,858.791
4,False,235,1.491,89,[],[],"[(1107, 921)]",[],[1],[93],[1.55],"[640.0, 512.0]",horizontal,"(890.0, 762.0)",[0.05],1,868.961
4,False,236,1.336,80,[],[],"[(1100, 908)]",[],[1],[109],[1.8166666666666667],"[640.0, 512.0]",horizontal,"(890.0, 762.0)",[0.47],1,872.031
4,False,237,0.838,50,[],[],"[(1107, 915)]",[],[1],[93],[1.55],"[640.0, 512.0]",horizontal,"(890.0, 262.0)",[0.695],1,875.393
4,False,238,1.124,67,[],[],"[(1127, 921)]",[],[1],[97],[1.6166666666666667],"[640.0, 512.0]",horizontal,"(890.0, 262.0)",[0.477],1,878.465
4,False,239,0.32,19,[],[],"[(1122, 922)]",[],[1],[56],[0.9333333333333333],"[640.0, 512.0]",vertical,"(890.0, 262.0)",[0.596],1,881.586
4,False,240,1.459,87,[],[],"[(1107, 897)]",[],[1],[116],[1.9333333333333333],"[640.0, 512.0]",vertical,"(390.0, 262.0)",[0.462],1,884.03
5,False,241,0.571,34,[],[],"[(1109, 923)]",[],[1],[77],[1.2833333333333332],"[640.0, 512.0]",horizontal,"(390.0, 262.0)",[0.687],1,887.445
5,False,242,0.545,32,[],[],"[(1121, 922)]",[],[1],[65],[1.0833333333333333],"[640.0, 512.0]",horizontal,"(890.0, 762.0)",[0.529],1,890.267
5,False,243,1.426,85,[],[908953],"[(1122, 935)]","[(1092, 942)]",[1],[76],[1.2666666666666666],"[640.0, 512.0]",horizontal,"(890.0, 762.0)",[0],0,892.862
5,False,244,0.681,40,[],[],"[(1107, 910)]",[],[1],[70],[1.1666666666666667],"[640.0, 512.0]",horizontal,"(390.0, 762.0)",[0.488],1,895.6
5,False,245,0.615,36,[],[],"[(1107, 922)]",[],[1],[68],[1.1333333333333333],"[640.0, 512.0]",horizontal,"(890.0, 262.0)",[0.511],1,899.034
5,False,246,0.344,20,[],[],"[(1107, 933)]",[],[1],[61],[1.0166666666666666],"[640.0, 512.0]",horizontal,"(390.0, 762.0)",[0.664],1,901.696
5,False,247,0.978,58,[],[],"[(1099, 923)]",[],[1],[88],[1.4666666666666666],"[640.0, 512.0]",vertical,"(390.0, 762.0)",[0.483],1,904.274
5,False,248,1.477,88,[],[],"[(1122, 918)]",[],[1],[114],[1.9],"[640.0, 512.0]",vertical,"(390.0, 762.0)",[0.414],1,907.248
5,False,249,1.27,76,[],[],"[(1092, 932)]",[],[1],[103],[1.7166666666666666],"[640.0, 512.0]",vertical,"(390.0, 262.0)",[0.427],1,910.666
5,False,250,1.399,83,[],[],"[(1107, 920)]",[],[1],[114],[1.9],"[640.0, 512.0]",vertical,"(890.0, 762.0)",[0.495],1,913.952
5,False,251,1.123,67,[],[],"[(1107, 922)]",[],[1],[103],[1.7166666666666666],"[640.0, 512.0]",horizontal,"(390.0, 762.0)",[0.576],1,917.377
5,False,252,1.248,74,[],[],"[(1140, 921)]",[],[1],[103],[1.7166666666666666],"[640.0, 512.0]",horizontal,"(390.0, 262.0)",[0.463],1,920.619
5,False,253,1.275,76,[],[],"[(1094, 912)]",[],[1],[109],[1.8166666666666667],"[640.0, 512.0]",horizontal,"(390.0, 762.0)",[0.528],1,923.826
5,False,254,1.256,75,[],[],"[(1103, 933)]",[],[1],[107],[1.7833333333333332],"[640.0, 512.0]",horizontal,"(890.0, 262.0)",[0.511],1,927.162
5,False,255,0.9,54,[],[],"[(1083, 919)]",[],[1],[80],[1.3333333333333333],"[640.0, 512.0]",horizontal,"(890.0, 262.0)",[0.408],1,930.408
5,False,256,0.426,25,[],[],"[(1121, 908)]",[],[1],[65],[1.0833333333333333],"[640.0, 512.0]",horizontal,"(890.0, 762.0)",[0.647],1,933.261
5,False,257,0.488,29,[],[],"[(1096, 930)]",[],[1],[62],[1.0333333333333332],"[640.0, 512.0]",vertical,"(390.0, 262.0)",[0.529],1,935.86
5,False,258,1.352,81,[],[],"[(1107, 900)]",[],[1],[115],[1.9166666666666667],"[640.0, 512.0]",horizontal,"(390.0, 762.0)",[0.548],1,938.415
5,False,259,1.462,87,[],[],"[(1103, 917)]",[],[1],[114],[1.9],"[640.0, 512.0]",horizontal,"(890.0, 262.0)",[0.429],1,941.869
5,False,260,1.384,83,[],[],"[(1112, 907)]",[],[1],[108],[1.8],"[640.0, 512.0]",horizontal,"(390.0, 262.0)",[0.397],1,945.279
5,False,261,1.44,86,[],[],"[(1107, 922)]",[],[1],[116],[1.9333333333333333],"[640.0, 512.0]",vertical,"(890.0, 762.0)",[0.476],1,948.659
5,False,262,0.493,29,[],[],"[(1100, 923)]",[],[1],[69],[1.15],"[640.0, 512.0]",vertical,"(890.0, 762.0)",[0.642],1,952.132
5,False,263,0.811,48,[],[],"[(1100, 907)]",[],[1],[92],[1.5333333333333332],"[640.0, 512.0]",vertical,"(390.0, 262.0)",[0.712],1,954.84
5,False,264,0.688,41,[],[],"[(1107, 919)]",[],[1],[75],[1.25],"[640.0, 512.0]",vertical,"(890.0, 762.0)",[0.549],1,957.914
5,False,265,0.454,27,[],[],"[(1102, 922)]",[],[1],[60],[1.0],"[640.0, 512.0]",vertical,"(390.0, 262.0)",[0.528],1,960.705
5,False,266,0.47,28,[],[],"[(1101, 901)]",[],[1],[64],[1.0666666666666667],"[640.0, 512.0]",horizontal,"(390.0, 262.0)",[0.58],1,963.241
5,False,267,0.45,27,[],[],"[(1112, 915)]",[],[1],[63],[1.05],"[640.0, 512.0]",horizontal,"(890.0, 262.0)",[0.574],1,965.82
5,False,268,0.365,21,[],[],"[(1107, 915)]",[],[1],[56],[0.9333333333333333],"[640.0, 512.0]",vertical,"(390.0, 762.0)",[0.561],1,968.399
5,False,269,0.788,47,[],[],"[(1097, 907)]",[],[1],[85],[1.4166666666666667],"[640.0, 512.0]",horizontal,"(890.0, 262.0)",[0.61],1,970.841
5,False,270,0.875,52,[],[],"[(1096, 917)]",[],[1],[81],[1.35],"[640.0, 512.0]",vertical,"(390.0, 262.0)",[0.458],1,973.78
5,False,271,1.26,75,[],[],"[(1131, 920)]",[],[1],[103],[1.7166666666666666],"[640.0, 512.0]",horizontal,"(890.0, 762.0)",[0.44],1,976.646
5,False,272,0.931,55,[],[],"[(1088, 915)]",[],[1],[87],[1.45],"[640.0, 512.0]",vertical,"(890.0, 762.0)",[0.51],1,979.874
5,False,273,1.342,80,[],[],"[(1122, 912)]",[],[1],[96],[1.6],"[640.0, 512.0]",horizontal,"(890.0, 762.0)",[0.251],1,982.845
5,False,274,1.443,86,[],[],"[(1106, 907)]",[],[1],[115],[1.9166666666666667],"[640.0, 512.0]",horizontal,"(890.0, 762.0)",[0.462],1,986.031
5,False,275,1.019,61,[],[],"[(1102, 923)]",[],[1],[89],[1.4833333333333334],"[640.0, 512.0]",vertical,"(890.0, 262.0)",[0.452],1,989.478
5,False,276,0.379,22,[],[],"[(1107, 917)]",[],[1],[58],[0.9666666666666667],"[640.0, 512.0]",horizontal,"(890.0, 262.0)",[0.581],1,992.491
5,False,277,0.579,34,[],[],"[(1131, 906)]",[],[1],[67],[1.1166666666666667],"[640.0, 512.0]",vertical,"(390.0, 762.0)",[0.528],1,995.023
5,False,278,1.498,89,[],[],"[(1098, 910)]",[],[1],[119],[1.9833333333333334],"[640.0, 512.0]",vertical,"(890.0, 762.0)",[0.49],1,997.627
5,False,279,0.783,46,[],[],"[(1105, 917)]",[],[1],[75],[1.25],"[640.0, 512.0]",vertical,"(890.0, 262.0)",[0.464],1,1001.164
5,False,280,1.295,77,[],[],"[(1110, 929)]",[],[1],[116],[1.9333333333333333],"[640.0, 512.0]",vertical,"(890.0, 762.0)",[0.624],1,1003.942
5,False,281,0.868,52,[],[],"[(1097, 918)]",[],[1],[82],[1.3666666666666667],"[640.0, 512.0]",horizontal,"(390.0, 262.0)",[0.488],1,1007.362
5,False,282,0.465,27,[],[],"[(1117, 914)]",[],[1],[63],[1.05],"[640.0, 512.0]",vertical,"(890.0, 762.0)",[0.582],1,1010.268
5,False,283,1.473,88,[],[],"[(1111, 921)]",[],[1],[99],[1.65],"[640.0, 512.0]",horizontal,"(390.0, 262.0)",[0.164],1,1012.871
5,False,284,0.551,33,[],[],"[(1102, 919)]",[],[1],[65],[1.0833333333333333],"[640.0, 512.0]",vertical,"(390.0, 262.0)",[0.514],1,1016.015
5,False,285,0.424,25,[],[],"[(1122, 912)]",[],[1],[55],[0.9166666666666666],"[640.0, 512.0]",vertical,"(890.0, 262.0)",[0.476],1,1018.615
5,False,286,1.05,63,[],[],"[(1132, 914)]",[],[1],[94],[1.5666666666666667],"[640.0, 512.0]",vertical,"(890.0, 762.0)",[0.493],1,1021.051
5,False,287,0.862,51,[],[],"[(1107, 920)]",[],[1],[82],[1.3666666666666667],"[640.0, 512.0]",vertical,"(890.0, 762.0)",[0.498],1,1024.117
5,False,288,1.397,83,[],[],"[(1109, 907)]",[],[1],[109],[1.8166666666666667],"[640.0, 512.0]",vertical,"(390.0, 262.0)",[0.411],1,1026.995
5,False,289,1.429,85,[],[],"[(1109, 910)]",[],[1],[112],[1.8666666666666667],"[640.0, 512.0]",horizontal,"(390.0, 262.0)",[0.424],1,1030.247
5,False,290,0.645,38,[],[],"[(1107, 922)]",[],[1],[70],[1.1666666666666667],"[640.0, 512.0]",horizontal,"(890.0, 262.0)",[0.508],1,1033.601
5,False,291,0.855,51,[],[],"[(1101, 907)]",[],[1],[83],[1.3833333333333333],"[640.0, 512.0]",horizontal,"(890.0, 762.0)",[0.506],1,1036.263
5,False,292,1.149,68,[],[],"[(1102, 917)]",[],[1],[100],[1.6666666666666667],"[640.0, 512.0]",vertical,"(390.0, 762.0)",[0.523],1,1039.195
5,False,293,0.535,32,[],[],"[(1129, 917)]",[],[1],[64],[1.0666666666666667],"[640.0, 512.0]",vertical,"(890.0, 762.0)",[0.511],1,1042.4
5,False,294,1.162,69,[],[],"[(1115, 917)]",[],[1],[102],[1.7],"[640.0, 512.0]",vertical,"(390.0, 762.0)",[0.528],1,1044.97
5,False,295,0.704,42,[],[],"[(1117, 915)]",[],[1],[84],[1.4],"[640.0, 512.0]",horizontal,"(890.0, 262.0)",[0.676],1,1048.217
5,False,296,0.61,36,[],[],"[(1102, 904)]",[],[1],[67],[1.1166666666666667],"[640.0, 512.0]",horizontal,"(890.0, 262.0)",[0.496],1,1051.145
5,False,297,0.52,31,[],[],"[(1110, 904)]",[],[1],[64],[1.0666666666666667],"[640.0, 512.0]",vertical,"(890.0, 762.0)",[0.53],1,1053.813
5,False,298,1.182,70,[],[],"[(1117, 919)]",[],[1],[92],[1.5333333333333332],"[640.0, 512.0]",horizontal,"(890.0, 262.0)",[0.348],1,1056.391
5,False,299,0.648,38,[],[],"[(1107, 902)]",[],[1],[75],[1.25],"[640.0, 512.0]",horizontal,"(890.0, 262.0)",[0.599],1,1059.431
5,False,300,0.671,40,[],[],"[(1112, 922)]",[],[1],[82],[1.3666666666666667],"[640.0, 512.0]",vertical,"(390.0, 262.0)",[0.67],1,1062.203
6,False,301,1.365,81,[],[],"[(1103, 932)]",[],[1],[114],[1.9],"[640.0, 512.0]",vertical,"(390.0, 762.0)",[0.523],1,1065.076
6,False,302,1.349,80,[],[],"[(1122, 914)]",[],[1],[112],[1.8666666666666667],"[640.0, 512.0]",horizontal,"(890.0, 762.0)",[0.506],1,1068.5
6,False,303,0.691,41,[],[],"[(1089, 916)]",[],[1],[77],[1.2833333333333332],"[640.0, 512.0]",vertical,"(890.0, 262.0)",[0.587],1,1071.874
6,False,304,1.458,87,[],[],"[(1102, 922)]",[],[1],[122],[2.033333333333333],"[640.0, 512.0]",vertical,"(890.0, 762.0)",[0.564],1,1074.704
6,False,305,0.761,45,[],[],"[(1089, 898)]",[],[1],[78],[1.3],"[640.0, 512.0]",horizontal,"(390.0, 262.0)",[0.532],1,1078.283
6,False,306,0.435,26,[],[],"[(1122, 927)]",[],[1],[57],[0.95],"[640.0, 512.0]",vertical,"(390.0, 262.0)",[0.494],1,1081.096
6,False,307,0.662,39,[],[],"[(1120, 906)]",[],[1],[72],[1.2],"[640.0, 512.0]",horizontal,"(390.0, 762.0)",[0.526],1,1083.56
6,False,308,0.819,49,[],[],"[(1107, 917)]",[],[1],[84],[1.4],"[640.0, 512.0]",horizontal,"(890.0, 762.0)",[0.558],1,1086.276
6,False,309,0.968,58,[],[],"[(1125, 927)]",[],[1],[91],[1.5166666666666666],"[640.0, 512.0]",vertical,"(390.0, 762.0)",[0.523],1,1089.172
6,False,310,0.793,47,[],[],"[(1107, 917)]",[],[1],[79],[1.3166666666666667],"[640.0, 512.0]",vertical,"(390.0, 262.0)",[0.508],1,1092.209
6,False,311,1.407,84,[],[],"[(1117, 922)]",[],[1],[112],[1.8666666666666667],"[640.0, 512.0]",horizontal,"(390.0, 262.0)",[0.442],1,1094.981
6,False,312,0.621,37,[],[],"[(1099, 914)]",[],[1],[69],[1.15],"[640.0, 512.0]",vertical,"(390.0, 262.0)",[0.509],1,1098.273
6,False,313,1.326,79,[],[],"[(1102, 914)]",[],[1],[108],[1.8],"[640.0, 512.0]",vertical,"(890.0, 262.0)",[0.466],1,1100.949
6,False,314,0.844,50,[],[],"[(1104, 919)]",[],[1],[81],[1.35],"[640.0, 512.0]",vertical,"(390.0, 262.0)",[0.5],1,1104.273
6,False,315,0.996,59,[],[],"[(1109, 920)]",[],[1],[91],[1.5166666666666666],"[640.0, 512.0]",vertical,"(390.0, 762.0)",[0.511],1,1107.198
6,False,316,0.552,33,[],[],"[(1112, 915)]",[],[1],[69],[1.15],"[640.0, 512.0]",vertical,"(890.0, 762.0)",[0.58],1,1110.263
6,False,317,0.874,52,[],[],"[(1101, 903)]",[],[1],[87],[1.45],"[640.0, 512.0]",horizontal,"(390.0, 262.0)",[0.563],1,1113.031
6,False,318,0.745,44,[],[],"[(1107, 907)]",[],[1],[80],[1.3333333333333333],"[640.0, 512.0]",horizontal,"(390.0, 762.0)",[0.578],1,1116.053
6,False,319,0.819,49,[],[],"[(1092, 927)]",[],[1],[80],[1.3333333333333333],"[640.0, 512.0]",vertical,"(390.0, 262.0)",[0.5],1,1118.933
6,False,320,0.884,53,[],[],"[(1107, 911)]",[],[1],[88],[1.4666666666666666],"[640.0, 512.0]",horizontal,"(890.0, 262.0)",[0.556],1,1121.996
6,False,321,1.089,65,[],[],"[(1109, 915)]",[],[1],[95],[1.5833333333333333],"[640.0, 512.0]",vertical,"(390.0, 762.0)",[0.478],1,1124.941
6,False,322,1.321,79,[],[],"[(1122, 931)]",[],[1],[110],[1.8333333333333333],"[640.0, 512.0]",vertical,"(890.0, 762.0)",[0.492],1,1128.047
6,False,323,1.266,75,[],[],"[(1106, 909)]",[],[1],[92],[1.5333333333333332],"[640.0, 512.0]",horizontal,"(390.0, 762.0)",[0.268],1,1131.417
6,False,324,1.487,89,[],[],"[(1112, 923)]",[],[1],[119],[1.9833333333333334],"[640.0, 512.0]",horizontal,"(890.0, 762.0)",[0.481],1,1134.501
6,False,325,0.88,52,[],[],"[(1103, 926)]",[],[1],[82],[1.3666666666666667],"[640.0, 512.0]",horizontal,"(890.0, 262.0)",[0.48],1,1137.987
6,False,326,1.296,77,[],[],"[(1111, 914)]",[],[1],[127],[2.1166666666666667],"[640.0, 512.0]",vertical,"(390.0, 262.0)",[0.803],0,1140.971
6,False,327,0.595,35,[],[1173138],"[(217, 859), (1213, 765), (683, 698), (7, 884), (384, 556), (4, 691), (1219, 957), (448, 898), (1185, 794)]","[(1185, 794)]","[0, 0, 0, 0, 0, 0, 0, 0, 1]",[4],[0.06666666666666667],"[640.0, 512.0]",horizontal,"(890.0, 762.0)",[0],0,1144.626
6,False,328,0.343,20,[],[],"[(1253, 873), (1215, 573), (116, 977), (1132, 908)]",[],"[0, 0, 0, 1]",[58],[0.9666666666666667],"[640.0, 512.0]",vertical,"(390.0, 262.0)",[0.603],1,1159.784
6,False,329,0.355,21,[],[],"[(1113, 902)]",[],[1],[60],[1.0],"[640.0, 512.0]",horizontal,"(390.0, 762.0)",[0.625],1,1164.538
6,False,330,0.629,37,[],[],"[(1215, 558), (1063, 939)]",[],"[0, 1]",[69],[1.15],"[640.0, 512.0]",horizontal,"(890.0, 262.0)",[0.504],1,1167.127
6,False,331,0.78,46,[],[],"[(1116, 910)]",[],[1],[75],[1.25],"[640.0, 512.0]",horizontal,"(890.0, 262.0)",[0.464],1,1169.886
6,False,332,0.32,19,[],[],"[(927, 780), (844, 740), (746, 612), (917, 686), (888, 570), (746, 696), (761, 460), (961, 612), (326, 514), (888, 414), (956, 790), (1253, 568), (365, 578), (766, 742), (775, 773), (716, 769), (775, 629), (931, 411), (931, 607), (858, 751), (761, 499), (1102, 935)]",[],"[0, 0, 0, 0, 0, 0, 0, 0, 0, 0, 0, 0, 0, 0, 0, 0, 0, 0, 0, 0, 0, 1]",[56],[0.9333333333333333],"[640.0, 512.0]",horizontal,"(890.0, 762.0)",[0.589],1,1172.659
6,False,333,1.421,85,[],[1216390],"[(829, 786), (1102, 922)]","[(1057, 939)]","[0, 1]","[85, 135]","[1.4166666666666667, 2.25]","[640.0, 512.0]",vertical,"(890.0, 262.0)","[0, 0.804]",0,1199.968
6,False,334,1.27,76,[],[1220035],"[(1130, 877)]","[(741, 873)]",[1],[75],[1.25],"[640.0, 512.0]",vertical,"(390.0, 762.0)",[0],0,1203.82
6,False,335,1.22,73,[],[],"[(1112, 908)]",[],[1],[123],[2.05],"[640.0, 512.0]",horizontal,"(390.0, 262.0)",[0.801],0,1206.679
6,False,336,0.724,43,[],[],"[(1077, 912)]",[],[1],[93],[1.55],"[640.0, 512.0]",horizontal,"(890.0, 262.0)",[0.806],0,1210.283
6,False,337,1.282,76,[],[],"[(1088, 914)]",[],[1],[100],[1.6666666666666667],"[640.0, 512.0]",horizontal,"(890.0, 262.0)",[0.371],1,1213.475
6,False,338,0.351,21,[],[],"[(1093, 928)]",[],[1],[56],[0.9333333333333333],"[640.0, 512.0]",vertical,"(390.0, 262.0)",[0.564],1,1216.691
6,False,339,1.161,69,[],[],"[(853, 760), (1116, 921)]",[],"[0, 1]",[84],[1.4],"[640.0, 512.0]",vertical,"(890.0, 262.0)",[0.236],1,1219.172
6,False,340,0.785,47,[],[],"[(1099, 923)]",[],[1],[97],[1.6166666666666667],"[640.0, 512.0]",vertical,"(390.0, 262.0)",[0.811],0,1223.062
6,False,341,0.342,20,[],[],"[(1125, 922)]",[],[1],[56],[0.9333333333333333],"[640.0, 512.0]",horizontal,"(890.0, 262.0)",[0.575],1,1226.168
6,False,342,1.488,89,[],[1245777],"[(798, 711), (1112, 940)]","[(1079, 943)]","[0, 1]",[68],[1.1333333333333333],"[640.0, 512.0]",horizontal,"(390.0, 262.0)",[0],0,1228.629
6,False,343,0.698,41,[],[],"[(1107, 907)]",[],[1],[74],[1.2333333333333334],"[640.0, 512.0]",vertical,"(890.0, 262.0)",[0.536],1,1232.411
6,False,344,1.329,79,[],[],"[(1118, 924)]",[],[1],[105],[1.75],"[640.0, 512.0]",vertical,"(390.0, 762.0)",[0.407],1,1235.984
6,False,345,1.211,72,[],[],"[(1110, 898)]",[],[1],[111],[1.8499999999999999],"[640.0, 512.0]",vertical,"(390.0, 262.0)",[0.63],1,1239.223
6,False,346,0.895,53,[],[],"[(1102, 902)]",[],[1],[91],[1.5166666666666666],"[640.0, 512.0]",horizontal,"(890.0, 262.0)",[0.604],1,1242.763
6,False,347,0.588,35,[],[],"[(1109, 905)]",[],[1],[78],[1.3],"[640.0, 512.0]",horizontal,"(890.0, 762.0)",[0.684],1,1245.834
6,False,348,0.997,59,[],[],"[(1112, 908)]",[],[1],[95],[1.5833333333333333],"[640.0, 512.0]",vertical,"(390.0, 762.0)",[0.568],1,1248.647
6,False,349,1.434,86,[],[],"[(1087, 922)]",[],[1],[136],[2.2666666666666666],"[640.0, 512.0]",horizontal,"(390.0, 262.0)",[0.804],0,1251.79
6,False,350,1.303,78,[],[],"[(1106, 914)]",[],[1],[104],[1.7333333333333334],"[640.0, 512.0]",vertical,"(390.0, 262.0)",[0.411],1,1255.618
6,False,351,0.659,39,[],[],"[(1106, 917)]",[],[1],[89],[1.4833333333333334],"[640.0, 512.0]",vertical,"(390.0, 262.0)",[0.806],0,1258.928
6,False,352,0.953,57,[],[],"[(1093, 920)]",[],[1],[85],[1.4166666666666667],"[640.0, 512.0]",horizontal,"(890.0, 762.0)",[0.444],1,1261.922
6,False,353,0.997,59,[],[],"[(1109, 920)]",[],[1],[109],[1.8166666666666667],"[640.0, 512.0]",vertical,"(390.0, 762.0)",[0.795],0,1264.879
6,False,354,0.557,33,[],[],"[(1105, 939)]",[],[1],[83],[1.3833333333333333],"[640.0, 512.0]",vertical,"(890.0, 762.0)",[0.817],0,1268.229
6,False,355,1.247,74,[],[],"[(1075, 928)]",[],[1],[101],[1.6833333333333333],"[640.0, 512.0]",vertical,"(890.0, 262.0)",[0.43],1,1271.58
6,False,356,0.529,31,[],[],"[(1102, 925)]",[],[1],[45],[0.75],"[640.0, 512.0]",vertical,"(390.0, 262.0)",[0.214],1,1274.849
6,False,357,0.349,20,[],[],"[(1107, 917)]",[],[1],[70],[1.1666666666666667],"[640.0, 512.0]",horizontal,"(890.0, 762.0)",[0.824],0,1277.136
6,False,358,0.569,34,[],[],"[(1102, 909)]",[],[1],[72],[1.2],"[640.0, 512.0]",vertical,"(390.0, 762.0)",[0.622],1,1279.927
6,False,359,1.05,63,[],[],"[(1107, 911)]",[],[1],[84],[1.4],"[640.0, 512.0]",horizontal,"(890.0, 262.0)",[0.331],1,1283.617
6,False,360,1.307,78,[],[],"[(1107, 913)]",[],[1],[128],[2.1333333333333333],"[640.0, 512.0]",horizontal,"(890.0, 262.0)",[0.808],0,1286.579
7,False,361,1.152,69,[],[],"[(980, 479), (1123, 923)]",[],"[0, 1]",[80],[1.3333333333333333],"[640.0, 512.0]",horizontal,"(390.0, 262.0)",[0.166],1,1290.236
7,False,362,1.39,83,[],[],"[(1116, 932)]",[],[1],[94],[1.5666666666666667],"[640.0, 512.0]",vertical,"(390.0, 262.0)",[0.169],1,1299.697
7,False,363,0.31,18,[],[],"[(1102, 909)]",[],[1],[68],[1.1333333333333333],"[640.0, 512.0]",horizontal,"(890.0, 762.0)",[0.821],0,1302.822
7,False,364,1.362,81,[],[],"[(1062, 925)]",[],[1],[105],[1.75],"[640.0, 512.0]",horizontal,"(390.0, 262.0)",[0.38],1,1305.959
7,False,365,0.742,44,[],[],"[(1109, 927)]",[],[1],[94],[1.5666666666666667],"[640.0, 512.0]",horizontal,"(890.0, 262.0)",[0.808],0,1309.287
7,False,366,0.956,57,[],[],"[(1127, 902)]",[],[1],[107],[1.7833333333333332],"[640.0, 512.0]",vertical,"(390.0, 262.0)",[0.805],0,1312.393
7,False,367,0.655,39,[],[],"[(1118, 918)]",[],[1],[89],[1.4833333333333334],"[640.0, 512.0]",horizontal,"(890.0, 262.0)",[0.805],0,1315.761
7,False,368,0.788,47,[],[],"[(1109, 927)]",[],[1],[97],[1.6166666666666667],"[640.0, 512.0]",horizontal,"(390.0, 762.0)",[0.806],0,1318.802
7,False,369,1.455,87,[],[],"[(1145, 936)]",[],[1],[124],[2.0666666666666664],"[640.0, 512.0]",vertical,"(890.0, 262.0)",[0.59],1,1324.066
7,False,370,0.477,28,[],[],"[(1107, 916)]",[],[1],[61],[1.0166666666666666],"[640.0, 512.0]",vertical,"(890.0, 762.0)",[0.529],1,1327.682
7,False,371,0.412,24,[],[],"[(1114, 931)]",[],[1],[61],[1.0166666666666666],"[640.0, 512.0]",horizontal,"(390.0, 762.0)",[0.586],1,1331.098
7,False,372,0.98,58,[],[],"[(1117, 925)]",[],[1],[85],[1.4166666666666667],"[640.0, 512.0]",vertical,"(390.0, 262.0)",[0.427],1,1333.639
7,False,373,1.494,89,[],[],"[(891, 912), (1120, 919)]",[],"[0, 1]",[139],[2.3166666666666664],"[640.0, 512.0]",vertical,"(390.0, 762.0)",[0.818],0,1336.633
7,False,374,0.348,20,[],[],"[(1119, 908)]",[],[1],[66],[1.1],"[640.0, 512.0]",vertical,"(890.0, 262.0)",[0.744],1,1347.237
7,False,375,1.493,89,[],[],"[(1114, 922)]",[],[1],[139],[2.3166666666666664],"[640.0, 512.0]",vertical,"(390.0, 762.0)",[0.809],0,1349.933
7,False,376,0.319,19,[],[],"[(1098, 901)]",[],[1],[56],[0.9333333333333333],"[640.0, 512.0]",horizontal,"(390.0, 762.0)",[0.594],1,1353.794
7,False,377,0.338,20,[],[],"[(1095, 932)]",[],[1],[58],[0.9666666666666667],"[640.0, 512.0]",vertical,"(890.0, 262.0)",[0.607],1,1356.3
7,False,378,0.695,41,[],[],"[(1099, 907)]",[],[1],[91],[1.5166666666666666],"[640.0, 512.0]",horizontal,"(390.0, 262.0)",[0.797],0,1358.78
7,False,379,1.258,75,[],[],"[(1102, 937)]",[],[1],[98],[1.6333333333333333],"[640.0, 512.0]",horizontal,"(890.0, 262.0)",[0.364],1,1361.828
7,False,380,0.381,22,[],[],"[(1112, 925)]",[],[1],[72],[1.2],"[640.0, 512.0]",vertical,"(890.0, 762.0)",[0.806],0,1365.238
7,False,381,0.814,48,[],[],"[(1126, 894)]",[],[1],[80],[1.3333333333333333],"[640.0, 512.0]",vertical,"(890.0, 762.0)",[0.505],1,1368.012
7,False,382,1.327,79,[],[],"[(1122, 907)]",[],[1],[107],[1.7833333333333332],"[640.0, 512.0]",vertical,"(390.0, 262.0)",[0.443],1,1370.892
7,False,383,0.716,42,[],[],"[(1102, 916)]",[],[1],[84],[1.4],"[640.0, 512.0]",vertical,"(390.0, 762.0)",[0.672],1,1374.194
7,False,384,0.842,50,[],[],"[(1110, 907)]",[],[1],[81],[1.35],"[640.0, 512.0]",horizontal,"(890.0, 762.0)",[0.491],1,1377.139
7,False,385,0.659,39,[],[],"[(951, 473), (1127, 921)]",[],"[0, 1]",[75],[1.25],"[640.0, 512.0]",horizontal,"(890.0, 262.0)",[0.575],1,1379.999
7,False,386,1.183,70,[],[],"[(1093, 907)]",[],[1],[102],[1.7],"[640.0, 512.0]",horizontal,"(390.0, 262.0)",[0.511],1,1383.861
7,False,387,1.439,86,[],[],"[(1124, 906)]",[],[1],[136],[2.2666666666666666],"[640.0, 512.0]",vertical,"(890.0, 762.0)",[0.804],0,1391.826
7,False,388,0.954,57,[],[],"[(1097, 904)]",[],[1],[107],[1.7833333333333332],"[640.0, 512.0]",horizontal,"(390.0, 762.0)",[0.808],0,1395.613
7,False,389,0.912,54,[],[],"[(1102, 912)]",[],[1],[104],[1.7333333333333334],"[640.0, 512.0]",horizontal,"(890.0, 762.0)",[0.812],0,1398.924
7,False,390,0.663,39,[],[],"[(892, 821), (1097, 899)]",[],"[0, 1]",[71],[1.1833333333333333],"[640.0, 512.0]",horizontal,"(890.0, 262.0)",[0.515],1,1402.249
7,False,391,1.226,73,[],[],"[(1102, 900)]",[],[1],[123],[2.05],"[640.0, 512.0]",vertical,"(890.0, 762.0)",[0.807],0,1408.647
7,False,392,0.438,26,[],[],"[(1122, 918)]",[],[1],[76],[1.2666666666666666],"[640.0, 512.0]",horizontal,"(890.0, 262.0)",[0.82],0,1412.216
7,False,393,1.029,61,[],[],"[(1088, 918)]",[],[1],[74],[1.2333333333333334],"[640.0, 512.0]",vertical,"(390.0, 762.0)",[0.2],1,1415.07
7,False,394,1.43,85,[],[1439339],"[(1112, 910)]","[(1074, 923)]",[1],[73],[1.2166666666666666],"[640.0, 512.0]",vertical,"(890.0, 762.0)",[0],0,1423.21
7,False,395,0.972,58,[],[],"[(1129, 905)]",[],[1],[99],[1.65],"[640.0, 512.0]",horizontal,"(890.0, 762.0)",[0.66],1,1425.998
7,False,396,0.728,43,[],[],"[(1116, 910)]",[],[1],[72],[1.2],"[640.0, 512.0]",horizontal,"(390.0, 262.0)",[0.46],1,1429.196
7,False,397,1.273,76,[],[],"[(1111, 907)]",[],[1],[126],[2.1],"[640.0, 512.0]",vertical,"(390.0, 262.0)",[0.805],0,1431.98
7,False,398,1.168,70,[],[],"[(1117, 902)]",[],[1],[100],[1.6666666666666667],"[640.0, 512.0]",vertical,"(890.0, 262.0)",[0.477],1,1435.552
7,False,399,0.779,46,[],[],"[(1113, 926)]",[],[1],[77],[1.2833333333333332],"[640.0, 512.0]",vertical,"(890.0, 262.0)",[0.494],1,1438.766
7,False,400,1.486,89,[],[],"[(1122, 902)]",[],[1],[139],[2.3166666666666664],"[640.0, 512.0]",horizontal,"(890.0, 762.0)",[0.803],0,1441.563
7,False,401,1.189,71,[],[],"[(1112, 902)]",[],[1],[98],[1.6333333333333333],"[640.0, 512.0]",vertical,"(390.0, 762.0)",[0.431],1,1445.39
7,False,402,0.746,44,[],[],"[(1101, 906)]",[],[1],[94],[1.5666666666666667],"[640.0, 512.0]",horizontal,"(390.0, 262.0)",[0.809],0,1448.546
7,False,403,0.43,25,[],[],"[(1102, 907)]",[],[1],[70],[1.1666666666666667],"[640.0, 512.0]",horizontal,"(390.0, 262.0)",[0.716],1,1451.604
7,False,404,0.747,44,[],[],"[(1091, 917)]",[],[1],[81],[1.35],"[640.0, 512.0]",horizontal,"(890.0, 762.0)",[0.593],1,1454.302
7,False,405,1.434,86,[],[],"[(1106, 907)]",[],[1],[103],[1.7166666666666666],"[640.0, 512.0]",horizontal,"(390.0, 762.0)",[0.268],1,1457.179
7,False,406,1.42,85,[],[],"[(1117, 915)]",[],[1],[113],[1.8833333333333333],"[640.0, 512.0]",vertical,"(390.0, 762.0)",[0.446],1,1460.426
7,False,407,1.299,77,[],[],"[(1083, 908)]",[],[1],[118],[1.9666666666666666],"[640.0, 512.0]",horizontal,"(890.0, 262.0)",[0.658],1,1463.835
7,False,408,1.213,72,[],[],"[(1128, 902)]",[],[1],[101],[1.6833333333333333],"[640.0, 512.0]",vertical,"(390.0, 762.0)",[0.467],1,1467.373
7,False,409,0.96,57,[],[],"[(1116, 917)]",[],[1],[87],[1.45],"[640.0, 512.0]",vertical,"(390.0, 762.0)",[0.474],1,1470.763
7,False,410,0.663,39,[],[],"[(1102, 903)]",[],[1],[70],[1.1666666666666667],"[640.0, 512.0]",vertical,"(890.0, 262.0)",[0.501],1,1473.771
7,False,411,0.722,43,[],[],"[(1110, 917)]",[],[1],[78],[1.3],"[640.0, 512.0]",horizontal,"(890.0, 762.0)",[0.555],1,1476.435
7,False,412,0.764,45,[],[],"[(1107, 917)]",[],[1],[79],[1.3166666666666667],"[640.0, 512.0]",vertical,"(890.0, 762.0)",[0.542],1,1479.315
7,False,413,1.182,70,[],[],"[(1096, 913)]",[],[1],[102],[1.7],"[640.0, 512.0]",vertical,"(890.0, 762.0)",[0.51],1,1482.161
7,False,414,1.15,69,[],[],"[(1115, 916)]",[],[1],[103],[1.7166666666666666],"[640.0, 512.0]",vertical,"(390.0, 262.0)",[0.538],1,1485.399
7,False,415,0.941,56,[],[],"[(1097, 918)]",[],[1],[86],[1.4333333333333333],"[640.0, 512.0]",horizontal,"(890.0, 762.0)",[0.482],1,1488.618
7,False,416,1.472,88,[],[],"[(1099, 916)]",[],[1],[100],[1.6666666666666667],"[640.0, 512.0]",horizontal,"(890.0, 262.0)",[0.182],1,1491.572
7,False,417,0.772,46,[],[],"[(1106, 918)]",[],[1],[76],[1.2666666666666666],"[640.0, 512.0]",vertical,"(890.0, 762.0)",[0.47],1,1494.765
7,False,418,1.044,62,[],[],"[(1098, 917)]",[],[1],[112],[1.8666666666666667],"[640.0, 512.0]",vertical,"(390.0, 762.0)",[0.801],0,1497.522
7,False,419,0.465,27,[],[],"[(1097, 922)]",[],[1],[64],[1.0666666666666667],"[640.0, 512.0]",vertical,"(390.0, 762.0)",[0.589],1,1500.891
7,False,420,0.635,38,[],[],"[(1122, 915)]",[],[1],[72],[1.2],"[640.0, 512.0]",vertical,"(390.0, 762.0)",[0.553],1,1503.872
8,False,421,0.976,58,[],[],"[(1107, 912)]",[],[1],[89],[1.4833333333333334],"[640.0, 512.0]",horizontal,"(890.0, 762.0)",[0.495],1,1506.603
8,False,422,1.371,82,[],[],"[(1110, 907)]",[],[1],[118],[1.9666666666666666],"[640.0, 512.0]",horizontal,"(390.0, 262.0)",[0.572],1,1509.648
8,False,423,1.361,81,[],[],"[(1088, 917)]",[],[1],[93],[1.55],"[640.0, 512.0]",horizontal,"(390.0, 262.0)",[0.183],1,1513.122
8,False,424,0.646,38,[],[],"[(1102, 907)]",[],[1],[79],[1.3166666666666667],"[640.0, 512.0]",vertical,"(890.0, 262.0)",[0.658],1,1516.679
8,False,425,1.251,75,[],[],"[(1107, 912)]",[],[1],[93],[1.55],"[640.0, 512.0]",horizontal,"(890.0, 262.0)",[0.287],1,1519.549
8,False,426,0.693,41,[],[],"[(1107, 914)]",[],[1],[91],[1.5166666666666666],"[640.0, 512.0]",vertical,"(390.0, 762.0)",[0.799],0,1522.603
8,False,427,0.375,22,[],[],"[(1100, 917)]",[],[1],[72],[1.2],"[640.0, 512.0]",vertical,"(390.0, 262.0)",[0.803],0,1525.633
8,False,428,0.785,47,[],[],"[(1112, 922)]",[],[1],[87],[1.45],"[640.0, 512.0]",vertical,"(890.0, 262.0)",[0.639],1,1528.399
8,False,429,0.328,19,[],[],"[(1122, 930)]",[],[1],[57],[0.95],"[640.0, 512.0]",horizontal,"(890.0, 262.0)",[0.607],1,1531.411
8,False,430,0.357,21,[],[],"[(1107, 920)]",[],[1],[71],[1.1833333333333333],"[640.0, 512.0]",horizontal,"(390.0, 262.0)",[0.804],0,1533.904
8,False,431,1.382,82,[],[],"[(1084, 923)]",[],[1],[89],[1.4833333333333334],"[640.0, 512.0]",vertical,"(890.0, 762.0)",[0.101],1,1536.606
8,False,432,0.97,58,[],[],"[(1107, 927)]",[],[1],[83],[1.3833333333333333],"[640.0, 512.0]",vertical,"(890.0, 262.0)",[0.395],1,1539.861
8,False,433,0.486,29,[],[],"[(1112, 917)]",[],[1],[62],[1.0333333333333332],"[640.0, 512.0]",horizontal,"(890.0, 762.0)",[0.528],1,1542.748
8,False,434,1.095,65,[],[],"[(1079, 906)]",[],[1],[86],[1.4333333333333333],"[640.0, 512.0]",horizontal,"(890.0, 762.0)",[0.331],1,1545.33
8,False,435,0.875,52,[],[],"[(1102, 917)]",[],[1],[80],[1.3333333333333333],"[640.0, 512.0]",horizontal,"(390.0, 262.0)",[0.445],1,1548.288
8,False,436,1.484,89,[],[],"[(1127, 909)]",[],[1],[139],[2.3166666666666664],"[640.0, 512.0]",vertical,"(390.0, 762.0)",[0.816],0,1551.132
8,False,437,0.644,38,[],[],"[(1109, 902)]",[],[1],[71],[1.1833333333333333],"[640.0, 512.0]",horizontal,"(890.0, 762.0)",[0.521],1,1554.987
8,False,438,0.556,33,[],[],"[(1102, 914)]",[],[1],[69],[1.15],"[640.0, 512.0]",vertical,"(890.0, 262.0)",[0.579],1,1557.689
8,False,439,1.101,66,[],[],"[(1101, 907)]",[],[1],[100],[1.6666666666666667],"[640.0, 512.0]",vertical,"(390.0, 762.0)",[0.539],1,1560.339
8,False,440,1.07,64,[],[],"[(1088, 922)]",[],[1],[90],[1.5],"[640.0, 512.0]",horizontal,"(890.0, 762.0)",[0.407],1,1563.509
8,False,441,0.65,39,[],[],"[(1103, 906)]",[],[1],[73],[1.2166666666666666],"[640.0, 512.0]",vertical,"(390.0, 762.0)",[0.541],1,1566.565
8,False,442,0.371,22,[],[],"[(1091, 902)]",[],[1],[61],[1.0166666666666666],"[640.0, 512.0]",vertical,"(390.0, 762.0)",[0.622],1,1569.413
8,False,443,1.122,67,[],[],"[(1102, 906)]",[],[1],[97],[1.6166666666666667],"[640.0, 512.0]",vertical,"(390.0, 262.0)",[0.476],1,1572.019
8,False,444,1.33,79,[],[],"[(1102, 903)]",[],[1],[109],[1.8166666666666667],"[640.0, 512.0]",vertical,"(890.0, 262.0)",[0.479],1,1575.176
8,False,445,1.04,62,[],[],"[(1103, 907)]",[],[1],[112],[1.8666666666666667],"[640.0, 512.0]",horizontal,"(890.0, 762.0)",[0.8],0,1578.489
8,False,446,0.768,46,[],[],"[(920, 477), (1131, 903)]",[],"[0, 1]",[62],[1.0333333333333332],"[640.0, 512.0]",vertical,"(890.0, 762.0)",[0.248],1,1581.955
8,False,447,0.967,58,[],[],"[(1097, 893)]",[],[1],[63],[1.05],"[640.0, 512.0]",horizontal,"(390.0, 762.0)",[0.066],1,1606.395
8,False,448,1.1,66,[],[],"[(1112, 913)]",[],[1],[116],[1.9333333333333333],"[640.0, 512.0]",vertical,"(890.0, 762.0)",[0.793],0,1609.256
8,False,449,1.174,70,[],[],"[(1088, 912)]",[],[1],[88],[1.4666666666666666],"[640.0, 512.0]",vertical,"(890.0, 762.0)",[0.279],1,1612.702
8,False,450,0.923,55,[],[],"[(1088, 898)]",[],[1],[68],[1.1333333333333333],"[640.0, 512.0]",horizontal,"(890.0, 762.0)",[0.198],1,1616.134
8,False,451,0.556,33,[],[],"[(1120, 912)]",[],[1],[65],[1.0833333333333333],"[640.0, 512.0]",horizontal,"(890.0, 762.0)",[0.508],1,1619.346
8,False,452,0.854,51,[],[],"[(1099, 912)]",[],[1],[82],[1.3666666666666667],"[640.0, 512.0]",horizontal,"(890.0, 262.0)",[0.495],1,1621.929
8,False,453,1.344,80,[],[],"[(1123, 902)]",[],[1],[107],[1.7833333333333332],"[640.0, 512.0]",vertical,"(390.0, 262.0)",[0.427],1,1624.789
8,False,454,1.304,78,[],[],"[(1118, 922)]",[],[1],[107],[1.7833333333333332],"[640.0, 512.0]",horizontal,"(890.0, 262.0)",[0.456],1,1628.031
8,False,455,0.874,52,[],[],"[(1127, 916)]",[],[1],[83],[1.3833333333333333],"[640.0, 512.0]",horizontal,"(890.0, 762.0)",[0.502],1,1631.318
8,False,456,1.207,72,[],[],"[(1112, 909)]",[],[1],[104],[1.7333333333333334],"[640.0, 512.0]",horizontal,"(390.0, 262.0)",[0.51],1,1634.4
8,False,457,0.8,48,[],[],"[(1107, 909)]",[],[1],[80],[1.3333333333333333],"[640.0, 512.0]",vertical,"(390.0, 762.0)",[0.51],1,1637.624
8,False,458,0.546,32,[],[],"[(1127, 911)]",[],[1],[65],[1.0833333333333333],"[640.0, 512.0]",horizontal,"(890.0, 262.0)",[0.521],1,1640.452
8,False,459,1.224,73,[],[],"[(1130, 928)]",[],[1],[104],[1.7333333333333334],"[640.0, 512.0]",horizontal,"(390.0, 262.0)",[0.491],1,1643.031
8,False,460,0.976,58,[],[],"[(1102, 916)]",[],[1],[103],[1.7166666666666666],"[640.0, 512.0]",vertical,"(890.0, 262.0)",[0.728],1,1646.312
8,False,461,1.44,86,[],[1675774],"[(1122, 923)]","[(1080, 936)]",[1],[63],[1.05],"[640.0, 512.0]",vertical,"(390.0, 262.0)",[0],0,1649.786
8,False,462,1.07,64,[],[],"[(1121, 906)]",[],[1],[83],[1.3833333333333333],"[640.0, 512.0]",horizontal,"(890.0, 762.0)",[0.294],1,1662.416
8,False,463,1.456,87,[],[1681570],"[(1118, 914)]","[(1086, 923)]",[1],[80],[1.3333333333333333],"[640.0, 512.0]",vertical,"(390.0, 262.0)",[0],0,1665.363
8,False,464,1.387,83,[],[1684459],"[(1127, 899)]","[(1082, 924)]",[1],[80],[1.3333333333333333],"[640.0, 512.0]",horizontal,"(890.0, 762.0)",[0],0,1668.22
8,False,465,0.739,44,[],[],"[(1127, 905)]",[],[1],[73],[1.2166666666666666],"[640.0, 512.0]",horizontal,"(390.0, 262.0)",[0.456],1,1671.101
8,False,466,1.068,64,[],[],"[(1112, 915)]",[],[1],[88],[1.4666666666666666],"[640.0, 512.0]",vertical,"(390.0, 262.0)",[0.378],1,1674.173
8,False,467,0.988,59,[],[],"[(1097, 915)]",[],[1],[80],[1.3333333333333333],"[640.0, 512.0]",horizontal,"(390.0, 762.0)",[0.328],1,1677.158
8,False,468,0.537,32,[],[],"[(1107, 920)]",[],[1],[67],[1.1166666666666667],"[640.0, 512.0]",vertical,"(890.0, 762.0)",[0.572],1,1679.994
8,False,469,0.328,19,[],[],"[(1092, 917)]",[],[1],[54],[0.9],"[640.0, 512.0]",vertical,"(890.0, 262.0)",[0.559],1,1682.688
8,False,470,0.681,40,[],[],"[(1117, 918)]",[],[1],[75],[1.25],"[640.0, 512.0]",vertical,"(390.0, 262.0)",[0.564],1,1685.169
8,False,471,0.565,33,[],[],"[(1100, 912)]",[],[1],[62],[1.0333333333333332],"[640.0, 512.0]",vertical,"(890.0, 262.0)",[0.464],1,1687.935
8,False,472,1.302,78,[],[],"[(1119, 910)]",[],[1],[128],[2.1333333333333333],"[640.0, 512.0]",vertical,"(390.0, 262.0)",[0.803],0,1690.5
8,False,473,0.675,40,[],[],"[(1109, 909)]",[],[1],[71],[1.1833333333333333],"[640.0, 512.0]",vertical,"(890.0, 762.0)",[0.492],1,1694.122
8,False,474,0.935,56,[],[],"[(1102, 908)]",[],[1],[91],[1.5166666666666666],"[640.0, 512.0]",vertical,"(390.0, 262.0)",[0.553],1,1696.851
8,False,475,1.01,60,[],[],"[(1114, 919)]",[],[1],[93],[1.55],"[640.0, 512.0]",vertical,"(890.0, 762.0)",[0.523],1,1699.894
8,False,476,0.7,42,[],[],"[(1107, 910)]",[],[1],[72],[1.2],"[640.0, 512.0]",vertical,"(890.0, 262.0)",[0.482],1,1702.974
8,False,477,0.383,22,[],[],"[(1107, 898)]",[],[1],[59],[0.9833333333333333],"[640.0, 512.0]",vertical,"(890.0, 762.0)",[0.593],1,1705.699
8,False,478,0.97,58,[],[],"[(1094, 904)]",[],[1],[87],[1.45],"[640.0, 512.0]",horizontal,"(390.0, 762.0)",[0.46],1,1708.2
8,False,479,1.441,86,[],[],"[(1102, 914)]",[],[1],[98],[1.6333333333333333],"[640.0, 512.0]",vertical,"(890.0, 262.0)",[0.183],1,1711.171
8,False,480,1.18,70,[],[],"[(1102, 924)]",[],[1],[90],[1.5],"[640.0, 512.0]",horizontal,"(890.0, 762.0)",[0.317],1,1714.325
9,False,481,1.261,75,[],[],"[(1109, 907)]",[],[1],[102],[1.7],"[640.0, 512.0]",vertical,"(390.0, 762.0)",[0.431],1,1717.356
9,False,482,1.409,84,[],[],"[(1107, 909)]",[],[1],[105],[1.75],"[640.0, 512.0]",vertical,"(890.0, 262.0)",[0.33],1,1720.551
9,False,483,1.023,61,[],[],"[(1075, 917)]",[],[1],[88],[1.4666666666666666],"[640.0, 512.0]",horizontal,"(890.0, 262.0)",[0.43],1,1723.83
9,False,484,0.629,37,[],[],"[(1078, 919)]",[],[1],[69],[1.15],"[640.0, 512.0]",horizontal,"(390.0, 262.0)",[0.512],1,1726.828
9,False,485,0.37,22,[],[],"[(1141, 917)]",[],[1],[62],[1.0333333333333332],"[640.0, 512.0]",horizontal,"(390.0, 762.0)",[0.642],1,1729.553
9,False,486,0.392,23,[],[],"[(1106, 913)]",[],[1],[64],[1.0666666666666667],"[640.0, 512.0]",vertical,"(390.0, 762.0)",[0.657],1,1732.083
9,False,487,1.278,76,[],[],"[(1107, 917)]",[],[1],[98],[1.6333333333333333],"[640.0, 512.0]",vertical,"(890.0, 262.0)",[0.344],1,1734.694
9,False,488,1.313,78,[],[],"[(1103, 912)]",[],[1],[96],[1.6],"[640.0, 512.0]",horizontal,"(390.0, 762.0)",[0.28],1,1737.791
9,False,489,0.318,19,[],[],"[(1104, 916)]",[],[1],[55],[0.9166666666666666],"[640.0, 512.0]",horizontal,"(390.0, 262.0)",[0.575],1,1740.89
9,False,490,1.349,80,[],[1759539],"[(1102, 917)]","[(1068, 933)]",[1],[79],[1.3166666666666667],"[640.0, 512.0]",horizontal,"(890.0, 762.0)",[0],0,1743.297
9,False,491,0.71,42,[],[],"[(1118, 911)]",[],[1],[71],[1.1833333333333333],"[640.0, 512.0]",horizontal,"(890.0, 262.0)",[0.464],1,1746.192
9,False,492,0.437,26,[],[],"[(1104, 903)]",[],[1],[60],[1.0],"[640.0, 512.0]",vertical,"(390.0, 262.0)",[0.541],1,1749.022
9,False,493,1.266,75,[],[],"[(1095, 899)]",[],[1],[102],[1.7],"[640.0, 512.0]",horizontal,"(890.0, 762.0)",[0.425],1,1751.554
9,False,494,0.914,54,[],[],"[(1107, 936)]",[],[1],[104],[1.7333333333333334],"[640.0, 512.0]",horizontal,"(890.0, 262.0)",[0.806],0,1754.77
9,False,495,0.57,34,[],[],"[(1127, 912)]",[],[1],[65],[1.0833333333333333],"[640.0, 512.0]",vertical,"(390.0, 262.0)",[0.493],1,1757.987
9,False,496,0.393,23,[],[],"[(1093, 915)]",[],[1],[63],[1.05],"[640.0, 512.0]",vertical,"(890.0, 762.0)",[0.647],1,1760.613
9,False,497,0.668,40,[],[],"[(1079, 911)]",[],[1],[69],[1.15],"[640.0, 512.0]",horizontal,"(890.0, 262.0)",[0.464],1,1763.179
9,False,498,0.445,26,[],[],"[(1097, 922)]",[],[1],[60],[1.0],"[640.0, 512.0]",horizontal,"(390.0, 262.0)",[0.541],1,1766.051
9,False,499,0.543,32,[],[],"[(1083, 910)]",[],[1],[69],[1.15],"[640.0, 512.0]",horizontal,"(390.0, 762.0)",[0.593],1,1768.532
9,False,500,0.875,52,[],[],"[(1091, 907)]",[],[1],[83],[1.3833333333333333],"[640.0, 512.0]",horizontal,"(890.0, 762.0)",[0.497],1,1771.214
9,False,501,1.265,75,[],[],"[(1089, 904)]",[],[1],[100],[1.6666666666666667],"[640.0, 512.0]",horizontal,"(390.0, 262.0)",[0.395],1,1774.101
9,False,502,0.824,49,[],[],"[(1102, 917)]",[],[1],[88],[1.4666666666666666],"[640.0, 512.0]",horizontal,"(890.0, 762.0)",[0.631],1,1777.292
9,False,503,1.243,74,[],[],"[(1086, 911)]",[],[1],[96],[1.6],"[640.0, 512.0]",horizontal,"(890.0, 262.0)",[0.35],1,1780.245
9,False,504,0.396,23,[],[],"[(1127, 922)]",[],[1],[67],[1.1166666666666667],"[640.0, 512.0]",vertical,"(390.0, 262.0)",[0.703],1,1783.45
9,False,505,0.462,27,[],[],"[(1088, 918)]",[],[1],[66],[1.1],"[640.0, 512.0]",vertical,"(890.0, 762.0)",[0.627],1,1786.069
9,False,506,0.316,18,[],[],"[(1097, 924)]",[],[1],[58],[0.9666666666666667],"[640.0, 512.0]",vertical,"(390.0, 762.0)",[0.639],1,1788.684
9,False,507,1.439,86,[],[],"[(1101, 914)]",[],[1],[89],[1.4833333333333334],"[640.0, 512.0]",horizontal,"(390.0, 262.0)",[0.033],1,1791.164
9,False,508,0.905,54,[],[],"[(1089, 919)]",[],[1],[90],[1.5],"[640.0, 512.0]",horizontal,"(890.0, 762.0)",[0.575],1,1794.16
9,False,509,1.167,70,[],[],"[(1097, 917)]",[],[1],[75],[1.25],"[640.0, 512.0]",vertical,"(390.0, 762.0)",[0.068],1,1797.178
9,False,510,0.788,47,[],[],"[(1107, 902)]",[],[1],[75],[1.25],"[640.0, 512.0]",vertical,"(390.0, 262.0)",[0.443],1,1799.95
9,False,511,1.205,72,[],[],"[(1103, 917)]",[],[1],[84],[1.4],"[640.0, 512.0]",horizontal,"(890.0, 262.0)",[0.186],1,1802.706
9,False,512,0.595,35,[],[],"[(1107, 913)]",[],[1],[73],[1.2166666666666666],"[640.0, 512.0]",vertical,"(890.0, 762.0)",[0.611],1,1805.613
9,False,513,1.372,82,[],[1824574],"[(1097, 921)]","[(1068, 937)]",[1],[80],[1.3333333333333333],"[640.0, 512.0]",horizontal,"(890.0, 262.0)",[0],0,1808.316
9,False,514,1.275,76,[],[],"[(1109, 901)]",[],[1],[103],[1.7166666666666666],"[640.0, 512.0]",horizontal,"(890.0, 262.0)",[0.426],1,1811.22
9,False,515,1.315,78,[],[1830630],"[(1102, 907)]","[(1068, 927)]",[1],[71],[1.1833333333333333],"[640.0, 512.0]",vertical,"(890.0, 262.0)",[0],0,1814.546
9,False,516,0.766,45,[],[],"[(1107, 914)]",[],[1],[77],[1.2833333333333332],"[640.0, 512.0]",vertical,"(890.0, 762.0)",[0.508],1,1817.278
9,False,517,0.948,56,[],[],"[(1103, 901)]",[],[1],[87],[1.45],"[640.0, 512.0]",vertical,"(890.0, 262.0)",[0.492],1,1820.229
9,False,518,0.956,57,[],[],"[(1102, 907)]",[],[1],[90],[1.5],"[640.0, 512.0]",vertical,"(390.0, 762.0)",[0.519],1,1823.201
9,False,519,1.061,63,[],[],"[(1102, 888)]",[],[1],[95],[1.5833333333333333],"[640.0, 512.0]",horizontal,"(390.0, 762.0)",[0.51],1,1826.208
9,False,520,1.006,60,[],[],"[(1097, 919)]",[],[1],[98],[1.6333333333333333],"[640.0, 512.0]",vertical,"(890.0, 262.0)",[0.61],1,1829.339
9,False,521,0.395,23,[],[],"[(1104, 910)]",[],[1],[58],[0.9666666666666667],"[640.0, 512.0]",vertical,"(390.0, 262.0)",[0.571],1,1832.46
9,False,522,0.787,47,[],[],"[(1088, 903)]",[],[1],[78],[1.3],"[640.0, 512.0]",vertical,"(390.0, 262.0)",[0.497],1,1834.969
9,False,523,1.451,87,[],[1854068],"[(1098, 917)]","[(1067, 935)]",[1],[81],[1.35],"[640.0, 512.0]",horizontal,"(390.0, 262.0)",[0],0,1837.763
9,False,524,0.332,19,[],[],"[(1084, 907)]",[],[1],[52],[0.8666666666666667],"[640.0, 512.0]",vertical,"(890.0, 762.0)",[0.529],1,1840.716
9,False,525,1.013,60,[],[],"[(1093, 914)]",[],[1],[89],[1.4833333333333334],"[640.0, 512.0]",vertical,"(890.0, 262.0)",[0.459],1,1843.163
9,False,526,0.842,50,[],[],"[(1127, 915)]",[],[1],[78],[1.3],"[640.0, 512.0]",vertical,"(890.0, 262.0)",[0.44],1,1846.133
9,False,527,1.283,76,[],[],"[(1093, 912)]",[],[1],[88],[1.4666666666666666],"[640.0, 512.0]",horizontal,"(390.0, 262.0)",[0.179],1,1848.873
9,False,528,1.463,87,[],[],"[(1101, 914)]",[],[1],[96],[1.6],"[640.0, 512.0]",horizontal,"(890.0, 762.0)",[0.133],1,1851.842
9,False,529,1.018,61,[],[],"[(1078, 908)]",[],[1],[100],[1.6666666666666667],"[640.0, 512.0]",vertical,"(890.0, 762.0)",[0.633],1,1854.968
9,False,530,0.879,52,[],[],"[(1102, 907)]",[],[1],[82],[1.3666666666666667],"[640.0, 512.0]",horizontal,"(890.0, 762.0)",[0.485],1,1858.212
9,False,531,0.364,21,[],[],"[(1118, 907)]",[],[1],[60],[1.0],"[640.0, 512.0]",horizontal,"(890.0, 262.0)",[0.621],1,1861.13
9,False,532,1.374,82,[],[],"[(1097, 902)]",[],[1],[90],[1.5],"[640.0, 512.0]",horizontal,"(390.0, 762.0)",[0.118],1,1863.676
9,False,533,0.705,42,[],[],"[(1103, 910)]",[],[1],[74],[1.2333333333333334],"[640.0, 512.0]",horizontal,"(390.0, 762.0)",[0.509],1,1866.691
9,False,534,0.453,27,[],[],"[(1081, 920)]",[],[1],[62],[1.0333333333333332],"[640.0, 512.0]",vertical,"(890.0, 762.0)",[0.555],1,1869.481
9,False,535,1.201,72,[],[],"[(1110, 902)]",[],[1],[100],[1.6666666666666667],"[640.0, 512.0]",vertical,"(390.0, 262.0)",[0.447],1,1872.053
9,False,536,1.277,76,[],[],"[(1105, 900)]",[],[1],[94],[1.5666666666666667],"[640.0, 512.0]",horizontal,"(890.0, 262.0)",[0.282],1,1875.245
9,False,537,1.435,86,[],[],"[(1094, 902)]",[],[1],[97],[1.6166666666666667],"[640.0, 512.0]",horizontal,"(390.0, 262.0)",[0.164],1,1878.33
9,False,538,0.353,21,[],[],"[(1102, 902)]",[],[1],[56],[0.9333333333333333],"[640.0, 512.0]",horizontal,"(390.0, 762.0)",[0.562],1,1881.407
9,False,539,0.479,28,[],[],"[(1127, 922)]",[],[1],[61],[1.0166666666666666],"[640.0, 512.0]",vertical,"(390.0, 262.0)",[0.521],1,1883.915
9,False,540,1.16,69,[],[],"[(1101, 919)]",[],[1],[105],[1.75],"[640.0, 512.0]",horizontal,"(390.0, 262.0)",[0.578],1,1886.421
10,False,541,0.315,18,[],[],"[(1102, 910)]",[],[1],[52],[0.8666666666666667],"[640.0, 512.0]",vertical,"(890.0, 262.0)",[0.54],1,1889.702
10,False,542,0.334,20,[],[],"[(1097, 917)]",[],[1],[57],[0.95],"[640.0, 512.0]",horizontal,"(390.0, 262.0)",[0.602],1,1892.158
10,False,543,0.87,52,[],[],"[(1093, 915)]",[],[1],[86],[1.4333333333333333],"[640.0, 512.0]",horizontal,"(390.0, 262.0)",[0.542],1,1894.582
10,False,544,1.097,65,[],[],"[(1107, 919)]",[],[1],[77],[1.2833333333333332],"[640.0, 512.0]",horizontal,"(390.0, 762.0)",[0.18],1,1897.555
10,False,545,1.332,79,[],[],"[(1101, 915)]",[],[1],[98],[1.6333333333333333],"[640.0, 512.0]",vertical,"(390.0, 262.0)",[0.296],1,1900.342
10,False,546,0.42,25,[],[],"[(1095, 904)]",[],[1],[58],[0.9666666666666667],"[640.0, 512.0]",horizontal,"(390.0, 762.0)",[0.536],1,1903.503
10,False,547,0.659,39,[],[],"[(1098, 917)]",[],[1],[69],[1.15],"[640.0, 512.0]",horizontal,"(890.0, 262.0)",[0.479],1,1906.03
10,False,548,0.314,18,[],[],"[(1083, 912)]",[],[1],[57],[0.95],"[640.0, 512.0]",vertical,"(390.0, 762.0)",[0.626],1,1908.701
10,False,549,0.696,41,[],[],"[(1097, 911)]",[],[1],[72],[1.2],"[640.0, 512.0]",vertical,"(390.0, 762.0)",[0.497],1,1911.185
10,False,550,1.097,65,[],[],"[(1063, 924)]",[],[1],[96],[1.6],"[640.0, 512.0]",horizontal,"(890.0, 262.0)",[0.494],1,1913.903
10,False,551,0.722,43,[],[],"[(1082, 912)]",[],[1],[83],[1.3833333333333333],"[640.0, 512.0]",vertical,"(890.0, 762.0)",[0.64],1,1917.563
10,False,552,1.261,75,[],[],"[(1099, 916)]",[],[1],[107],[1.7833333333333332],"[640.0, 512.0]",vertical,"(390.0, 762.0)",[0.509],1,1920.537
10,False,553,1.489,89,[],[],"[(1092, 915)]",[],[1],[103],[1.7166666666666666],"[640.0, 512.0]",horizontal,"(890.0, 262.0)",[0.215],1,1923.881
10,False,554,1.263,75,[],[],"[(1100, 915)]",[],[1],[94],[1.5666666666666667],"[640.0, 512.0]",vertical,"(890.0, 762.0)",[0.299],1,1927.132
10,False,555,0.954,57,[],[],"[(1097, 899)]",[],[1],[88],[1.4666666666666666],"[640.0, 512.0]",horizontal,"(390.0, 262.0)",[0.496],1,1930.178
10,False,556,1.458,87,[],[],"[(1115, 910)]",[],[1],[94],[1.5666666666666667],"[640.0, 512.0]",vertical,"(890.0, 262.0)",[0.1],1,1933.166
10,False,557,0.701,42,[],[],"[(1105, 910)]",[],[1],[72],[1.2],"[640.0, 512.0]",horizontal,"(390.0, 262.0)",[0.487],1,1936.229
10,False,558,1.09,65,[],[],"[(1119, 910)]",[],[1],[95],[1.5833333333333333],"[640.0, 512.0]",horizontal,"(890.0, 762.0)",[0.477],1,1938.989
10,False,559,1.447,86,[],[],"[(1088, 919)]",[],[1],[107],[1.7833333333333332],"[640.0, 512.0]",vertical,"(890.0, 262.0)",[0.324],1,1942.092
10,False,560,1.256,75,[],[],"[(1100, 912)]",[],[1],[106],[1.7666666666666666],"[640.0, 512.0]",vertical,"(390.0, 762.0)",[0.49],1,1945.427
10,False,561,0.962,57,[],[],"[(1098, 916)]",[],[1],[94],[1.5666666666666667],"[640.0, 512.0]",horizontal,"(390.0, 762.0)",[0.592],1,1948.665
10,False,562,0.922,55,[],[],"[(1097, 916)]",[],[1],[87],[1.45],"[640.0, 512.0]",horizontal,"(390.0, 762.0)",[0.522],1,1951.717
10,False,563,0.49,29,[],[],"[(1093, 914)]",[],[1],[63],[1.05],"[640.0, 512.0]",horizontal,"(390.0, 762.0)",[0.542],1,1954.714
10,False,564,1.106,66,[],[],"[(1093, 918)]",[],[1],[100],[1.6666666666666667],"[640.0, 512.0]",horizontal,"(390.0, 262.0)",[0.542],1,1957.323
10,False,565,1.292,77,[],[],"[(1099, 907)]",[],[1],[96],[1.6],"[640.0, 512.0]",vertical,"(390.0, 262.0)",[0.296],1,1960.556
10,False,566,1.155,69,[],[],"[(1095, 907)]",[],[1],[98],[1.6333333333333333],"[640.0, 512.0]",vertical,"(890.0, 762.0)",[0.459],1,1963.685
10,False,567,0.382,22,[],[],"[(1099, 919)]",[],[1],[56],[0.9333333333333333],"[640.0, 512.0]",vertical,"(890.0, 762.0)",[0.546],1,1966.861
10,False,568,0.729,43,[],[],"[(1078, 915)]",[],[1],[84],[1.4],"[640.0, 512.0]",vertical,"(390.0, 762.0)",[0.654],1,1969.313
10,False,569,1.071,64,[],[],"[(1093, 927)]",[],[1],[95],[1.5833333333333333],"[640.0, 512.0]",horizontal,"(890.0, 762.0)",[0.495],1,1972.222
10,False,570,0.673,40,[],[],"[(1092, 912)]",[],[1],[73],[1.2166666666666666],"[640.0, 512.0]",vertical,"(890.0, 762.0)",[0.53],1,1976.275
10,False,571,0.322,19,[],[],"[(1093, 907)]",[],[1],[56],[0.9333333333333333],"[640.0, 512.0]",vertical,"(890.0, 262.0)",[0.592],1,1979.021
10,False,572,0.657,39,[],[],"[(1093, 903)]",[],[1],[71],[1.1833333333333333],"[640.0, 512.0]",horizontal,"(890.0, 262.0)",[0.509],1,1981.451
10,False,573,0.857,51,[],[],"[(1093, 912)]",[],[1],[76],[1.2666666666666666],"[640.0, 512.0]",horizontal,"(890.0, 762.0)",[0.402],1,1984.132
10,False,574,0.826,49,[],[],"[(1091, 914)]",[],[1],[81],[1.35],"[640.0, 512.0]",horizontal,"(890.0, 762.0)",[0.511],1,1986.934
10,False,575,1.047,62,[],[],"[(1097, 907)]",[],[1],[100],[1.6666666666666667],"[640.0, 512.0]",vertical,"(390.0, 762.0)",[0.605],1,1989.756
10,False,576,1.394,83,[],[],"[(1095, 902)]",[],[1],[98],[1.6333333333333333],"[640.0, 512.0]",vertical,"(890.0, 262.0)",[0.23],1,1992.94
10,False,577,0.429,25,[],[],"[(1108, 906)]",[],[1],[63],[1.05],"[640.0, 512.0]",horizontal,"(390.0, 262.0)",[0.611],1,1996.05
10,False,578,0.648,38,[],[],"[(1090, 910)]",[],[1],[70],[1.1666666666666667],"[640.0, 512.0]",vertical,"(390.0, 262.0)",[0.505],1,1998.631
10,False,579,0.419,25,[],[],"[(1087, 903)]",[],[1],[63],[1.05],"[640.0, 512.0]",vertical,"(890.0, 762.0)",[0.61],1,2001.331
10,False,580,1.054,63,[],[],"[(1086, 914)]",[],[1],[88],[1.4666666666666666],"[640.0, 512.0]",horizontal,"(890.0, 762.0)",[0.396],1,2003.953
10,False,581,1.43,85,[],[],"[(1093, 918)]",[],[1],[101],[1.6833333333333333],"[640.0, 512.0]",vertical,"(890.0, 262.0)",[0.251],1,2006.962
10,False,582,0.597,35,[],[],"[(1086, 917)]",[],[1],[75],[1.25],"[640.0, 512.0]",horizontal,"(890.0, 262.0)",[0.643],1,2010.215
10,False,583,1.203,72,[],[],"[(1111, 906)]",[],[1],[105],[1.75],"[640.0, 512.0]",horizontal,"(890.0, 762.0)",[0.525],1,2013.031
10,False,584,1.277,76,[],[],"[(1093, 927)]",[],[1],[107],[1.7833333333333332],"[640.0, 512.0]",horizontal,"(890.0, 762.0)",[0.493],1,2016.36
10,False,585,1.159,69,[],[],"[(1117, 916)]",[],[1],[101],[1.6833333333333333],"[640.0, 512.0]",vertical,"(390.0, 262.0)",[0.507],1,2020.042
10,False,586,1.064,63,[],[],"[(1088, 905)]",[],[1],[97],[1.6166666666666667],"[640.0, 512.0]",vertical,"(890.0, 762.0)",[0.544],1,2023.216
10,False,587,0.454,27,[],[],"[(1093, 911)]",[],[1],[61],[1.0166666666666666],"[640.0, 512.0]",vertical,"(890.0, 762.0)",[0.544],1,2026.362
10,False,588,1.422,85,[],[],"[(1104, 911)]",[],[1],[115],[1.9166666666666667],"[640.0, 512.0]",vertical,"(390.0, 762.0)",[0.48],1,2028.896
10,False,589,1.283,76,[],[],"[(1093, 915)]",[],[1],[105],[1.75],"[640.0, 512.0]",vertical,"(890.0, 262.0)",[0.46],1,2032.323
10,False,590,0.523,31,[],[],"[(1094, 893)]",[],[1],[67],[1.1166666666666667],"[640.0, 512.0]",horizontal,"(890.0, 262.0)",[0.574],1,2035.611
10,False,591,0.512,30,[],[],"[(1120, 909)]",[],[1],[64],[1.0666666666666667],"[640.0, 512.0]",vertical,"(390.0, 262.0)",[0.539],1,2038.205
10,False,592,1.341,80,[],[],"[(1098, 914)]",[],[1],[94],[1.5666666666666667],"[640.0, 512.0]",horizontal,"(890.0, 762.0)",[0.212],1,2040.776
10,False,593,1.251,75,[],[],"[(1093, 922)]",[],[1],[103],[1.7166666666666666],"[640.0, 512.0]",vertical,"(390.0, 262.0)",[0.444],1,2043.849
10,False,594,0.978,58,[],[],"[(1112, 905)]",[],[1],[90],[1.5],"[640.0, 512.0]",vertical,"(890.0, 762.0)",[0.508],1,2047.079
10,False,595,0.541,32,[],[],"[(1088, 913)]",[],[1],[67],[1.1166666666666667],"[640.0, 512.0]",vertical,"(390.0, 262.0)",[0.558],1,2050.048
10,False,596,0.592,35,[],[],"[(1107, 898)]",[],[1],[70],[1.1666666666666667],"[640.0, 512.0]",horizontal,"(390.0, 762.0)",[0.564],1,2052.683
10,False,597,1.111,66,[],[],"[(1100, 912)]",[],[1],[86],[1.4333333333333333],"[640.0, 512.0]",horizontal,"(890.0, 262.0)",[0.314],1,2055.695
10,False,598,1.124,67,[],[],"[(1093, 912)]",[],[1],[94],[1.5666666666666667],"[640.0, 512.0]",vertical,"(390.0, 762.0)",[0.432],1,2059.736
10,False,599,0.41,24,[],[],"[(1114, 922)]",[],[1],[58],[0.9666666666666667],"[640.0, 512.0]",horizontal,"(890.0, 262.0)",[0.542],1,2062.85
10,False,600,1.463,87,[],[],"[(1109, 906)]",[],[1],[93],[1.55],"[640.0, 512.0]",vertical,"(390.0, 762.0)",[0.083],1,2065.364
11,False,601,1.367,82,[],[],"[(1107, 916)]",[],[1],[119],[1.9833333333333334],"[640.0, 512.0]",vertical,"(390.0, 762.0)",[0.588],1,2068.435
11,False,602,0.371,22,[],[],"[(1088, 915)]",[],[1],[60],[1.0],"[640.0, 512.0]",horizontal,"(390.0, 762.0)",[0.609],1,2071.902
11,False,603,1.498,89,[],[],"[(1093, 902)]",[],[1],[104],[1.7333333333333334],"[640.0, 512.0]",vertical,"(390.0, 262.0)",[0.231],1,2074.422
11,False,604,0.65,39,[],[],"[(1109, 920)]",[],[1],[77],[1.2833333333333332],"[640.0, 512.0]",horizontal,"(390.0, 762.0)",[0.606],1,2077.626
11,False,605,1.467,88,[],[],"[(1111, 905)]",[],[1],[96],[1.6],"[640.0, 512.0]",horizontal,"(390.0, 762.0)",[0.115],1,2080.417
11,False,606,0.564,33,[],[],"[(1098, 919)]",[],[1],[66],[1.1],"[640.0, 512.0]",vertical,"(890.0, 762.0)",[0.53],1,2083.565
11,False,607,0.865,51,[],[],"[(1112, 903)]",[],[1],[92],[1.5333333333333332],"[640.0, 512.0]",horizontal,"(390.0, 762.0)",[0.656],1,2086.182
11,False,608,1.443,86,[],[],"[(1102, 904)]",[],[1],[91],[1.5166666666666666],"[640.0, 512.0]",horizontal,"(890.0, 262.0)",[0.067],1,2089.182
11,False,609,1.456,87,[],[],"[(1078, 908)]",[],[1],[97],[1.6166666666666667],"[640.0, 512.0]",horizontal,"(390.0, 762.0)",[0.147],1,2092.204
11,False,610,0.492,29,[],[],"[(1089, 904)]",[],[1],[61],[1.0166666666666666],"[640.0, 512.0]",horizontal,"(390.0, 262.0)",[0.515],1,2095.36
11,False,611,0.808,48,[],[],"[(1084, 914)]",[],[1],[85],[1.4166666666666667],"[640.0, 512.0]",horizontal,"(390.0, 762.0)",[0.589],1,2097.916
11,False,612,0.67,40,[],[],"[(1093, 912)]",[],[1],[88],[1.4666666666666666],"[640.0, 512.0]",vertical,"(390.0, 262.0)",[0.78],1,2101.48
11,False,613,1.063,63,[],[],"[(1089, 909)]",[],[1],[97],[1.6166666666666667],"[640.0, 512.0]",horizontal,"(390.0, 262.0)",[0.542],1,2104.463
11,False,614,1.484,89,[],[2123938],"[(1105, 918)]","[(1105, 931)]",[1],[87],[1.45],"[640.0, 512.0]",horizontal,"(390.0, 262.0)",[0],0,2107.597
11,False,615,0.345,20,[],[],"[(1058, 920)]",[],[1],[54],[0.9],"[640.0, 512.0]",horizontal,"(390.0, 262.0)",[0.546],1,2110.582
11,False,616,1.149,68,[],[],"[(1093, 907)]",[],[1],[89],[1.4833333333333334],"[640.0, 512.0]",horizontal,"(390.0, 262.0)",[0.327],1,2115.119
11,False,617,0.999,59,[],[],"[(1102, 901)]",[],[1],[84],[1.4],"[640.0, 512.0]",vertical,"(390.0, 762.0)",[0.39],1,2118.128
11,False,618,0.496,29,[],[],"[(1094, 899)]",[],[1],[64],[1.0666666666666667],"[640.0, 512.0]",vertical,"(390.0, 262.0)",[0.56],1,2120.993
11,False,619,1.042,62,[],[],"[(1131, 902)]",[],[1],[84],[1.4],"[640.0, 512.0]",horizontal,"(890.0, 762.0)",[0.346],1,2123.868
11,False,620,0.615,36,[],[],"[(1102, 908)]",[],[1],[74],[1.2333333333333334],"[640.0, 512.0]",horizontal,"(890.0, 262.0)",[0.607],1,2126.766
11,False,621,0.642,38,[],[],"[(1105, 926)]",[],[1],[75],[1.25],"[640.0, 512.0]",horizontal,"(890.0, 262.0)",[0.592],1,2129.567
11,False,622,1.216,72,[],[],"[(1082, 906)]",[],[1],[79],[1.3166666666666667],"[640.0, 512.0]",vertical,"(890.0, 762.0)",[0.101],1,2132.449
11,False,623,0.397,23,[],[],"[(1107, 915)]",[],[1],[69],[1.15],"[640.0, 512.0]",vertical,"(890.0, 262.0)",[0.735],1,2136.319
11,False,624,1.044,62,[],[],"[(1097, 912)]",[],[1],[73],[1.2166666666666666],"[640.0, 512.0]",horizontal,"(390.0, 262.0)",[0.165],1,2138.993
11,False,625,0.759,45,[],[],"[(1096, 917)]",[],[1],[73],[1.2166666666666666],"[640.0, 512.0]",horizontal,"(890.0, 262.0)",[0.439],1,2141.726
11,False,626,0.801,48,[],[],"[(1117, 912)]",[],[1],[77],[1.2833333333333332],"[640.0, 512.0]",vertical,"(890.0, 262.0)",[0.465],1,2144.48
11,False,627,0.538,32,[],[],"[(1086, 925)]",[],[1],[67],[1.1166666666666667],"[640.0, 512.0]",horizontal,"(390.0, 262.0)",[0.559],1,2147.416
11,False,628,0.328,19,[],[],"[(1108, 907)]",[],[1],[54],[0.9],"[640.0, 512.0]",horizontal,"(390.0, 762.0)",[0.558],1,2150.085
11,False,629,0.462,27,[],[],"[(1119, 907)]",[],[1],[61],[1.0166666666666666],"[640.0, 512.0]",horizontal,"(890.0, 762.0)",[0.537],1,2152.448
11,False,630,0.36,21,[],[],"[(1091, 901)]",[],[1],[54],[0.9],"[640.0, 512.0]",vertical,"(890.0, 262.0)",[0.528],1,2155.012
11,False,631,1.166,69,[],[],"[(1107, 899)]",[],[1],[91],[1.5166666666666666],"[640.0, 512.0]",vertical,"(890.0, 762.0)",[0.341],1,2157.438
11,False,632,1.283,76,[],[],"[(1091, 923)]",[],[1],[85],[1.4166666666666667],"[640.0, 512.0]",vertical,"(890.0, 262.0)",[0.134],1,2160.483
11,False,633,1.295,77,[],[],"[(1093, 927)]",[],[1],[90],[1.5],"[640.0, 512.0]",vertical,"(890.0, 762.0)",[0.197],1,2163.466
11,False,634,1.104,66,[],[],"[(1104, 918)]",[],[1],[72],[1.2],"[640.0, 512.0]",horizontal,"(890.0, 262.0)",[0.08],1,2166.494
11,False,635,1.281,76,[],[],"[(1102, 914)]",[],[1],[79],[1.3166666666666667],"[640.0, 512.0]",horizontal,"(390.0, 762.0)",[0.033],1,2169.256
11,False,636,0.584,35,[],[],"[(1093, 912)]",[],[1],[72],[1.2],"[640.0, 512.0]",horizontal,"(890.0, 762.0)",[0.591],1,2172.061
11,False,637,0.927,55,[],[],"[(1102, 912)]",[],[1],[81],[1.35],"[640.0, 512.0]",vertical,"(390.0, 762.0)",[0.412],1,2174.83
11,False,638,0.82,49,[],[],"[(1115, 902)]",[],[1],[75],[1.25],"[640.0, 512.0]",vertical,"(890.0, 262.0)",[0.41],1,2177.701
11,False,639,1.378,82,[],[],"[(1108, 906)]",[],[1],[93],[1.55],"[640.0, 512.0]",vertical,"(890.0, 762.0)",[0.165],1,2180.389
11,False,640,0.705,42,[],[],"[(1111, 900)]",[],[1],[69],[1.15],"[640.0, 512.0]",horizontal,"(390.0, 262.0)",[0.43],1,2183.44
11,False,641,0.637,38,[],[],"[(1102, 907)]",[],[1],[69],[1.15],"[640.0, 512.0]",vertical,"(390.0, 762.0)",[0.496],1,2186.152
11,False,642,1.201,72,[],[],"[(1094, 906)]",[],[1],[88],[1.4666666666666666],"[640.0, 512.0]",vertical,"(890.0, 262.0)",[0.248],1,2188.808
11,False,643,1.386,83,[],[2207979],"[(1093, 896)]","[(1100, 910)]",[1],[79],[1.3166666666666667],"[640.0, 512.0]",horizontal,"(390.0, 262.0)",[0],0,2191.712
11,False,644,1.432,85,[],[],"[(1102, 922)]",[],[1],[89],[1.4833333333333334],"[640.0, 512.0]",vertical,"(390.0, 762.0)",[0.05],1,2194.639
11,False,645,0.558,33,[],[],"[(1114, 906)]",[],[1],[65],[1.0833333333333333],"[640.0, 512.0]",vertical,"(390.0, 762.0)",[0.514],1,2197.947
11,False,646,0.978,58,[],[],"[(1117, 927)]",[],[1],[80],[1.3333333333333333],"[640.0, 512.0]",vertical,"(390.0, 762.0)",[0.343],1,2200.549
11,False,647,1.333,79,[],[],"[(1091, 919)]",[],[1],[81],[1.35],"[640.0, 512.0]",horizontal,"(890.0, 262.0)",[0.019],1,2203.422
11,False,648,1.283,76,[],[],"[(1088, 911)]",[],[1],[82],[1.3666666666666667],"[640.0, 512.0]",horizontal,"(890.0, 762.0)",[0.085],1,2206.316
11,False,649,1.031,61,[],[],"[(1121, 915)]",[],[1],[70],[1.1666666666666667],"[640.0, 512.0]",vertical,"(890.0, 262.0)",[0.134],1,2209.182
11,False,650,0.587,35,[],[],"[(1086, 916)]",[],[1],[65],[1.0833333333333333],"[640.0, 512.0]",horizontal,"(890.0, 262.0)",[0.476],1,2211.886
11,False,651,1.436,86,[],[2230788],"[(1099, 916)]","[(1067, 940)]",[1],"[86, 136]","[1.4333333333333333, 2.2666666666666666]","[640.0, 512.0]",vertical,"(390.0, 262.0)","[0, 0.804]",0,2214.45
11,False,652,1.452,87,[],[2234399],"[(1115, 900)]","[(1077, 913)]",[1],[74],[1.2333333333333334],"[640.0, 512.0]",vertical,"(390.0, 262.0)",[0],0,2218.229
11,False,653,0.627,37,[],[],"[(1091, 901)]",[],[1],[70],[1.1666666666666667],"[640.0, 512.0]",vertical,"(890.0, 762.0)",[0.525],1,2221.041
11,False,654,0.658,39,[],[],"[(1107, 906)]",[],[1],[68],[1.1333333333333333],"[640.0, 512.0]",vertical,"(390.0, 762.0)",[0.469],1,2223.802
11,False,655,0.677,40,[],[],"[(1107, 914)]",[],[1],[77],[1.2833333333333332],"[640.0, 512.0]",vertical,"(390.0, 262.0)",[0.595],1,2226.531
11,False,656,0.912,54,[],[],"[(1079, 910)]",[],[1],[77],[1.2833333333333332],"[640.0, 512.0]",horizontal,"(890.0, 262.0)",[0.358],1,2229.31
11,False,657,1.235,74,[],[2248206],"[(1112, 905)]","[(1080, 924)]",[1],"[74, 124]","[1.2333333333333334, 2.0666666666666664]","[640.0, 512.0]",horizontal,"(890.0, 262.0)","[0, 0.806]",0,2232.14
11,False,658,0.401,24,[],[],"[(1093, 899)]",[],[1],[59],[0.9833333333333333],"[640.0, 512.0]",horizontal,"(890.0, 762.0)",[0.556],1,2235.65
11,False,659,1.258,75,[],[2254288],"[(1108, 914)]","[(1100, 932)]",[1],[72],[1.2],"[640.0, 512.0]",horizontal,"(390.0, 762.0)",[0],0,2238.202
11,False,660,1.317,79,[],[],"[(1097, 906)]",[],[1],[88],[1.4666666666666666],"[640.0, 512.0]",vertical,"(390.0, 762.0)",[0.131],1,2240.93
12,False,661,0.368,22,[],[],"[(1110, 902)]",[],[1],[64],[1.0666666666666667],"[640.0, 512.0]",horizontal,"(390.0, 762.0)",[0.671],1,2244.017
12,False,662,0.979,58,[],[],"[(1092, 901)]",[],[1],[86],[1.4333333333333333],"[640.0, 512.0]",horizontal,"(890.0, 762.0)",[0.451],1,2246.603
12,False,663,0.499,29,[],[],"[(1079, 917)]",[],[1],[79],[1.3166666666666667],"[640.0, 512.0]",horizontal,"(390.0, 762.0)",[0.802],0,2249.5
12,False,664,1.493,89,[],[],"[(1117, 910)]",[],[1],[103],[1.7166666666666666],"[640.0, 512.0]",horizontal,"(890.0, 762.0)",[0.211],1,2252.367
12,False,665,0.838,50,[],[],"[(1096, 909)]",[],[1],[80],[1.3333333333333333],"[640.0, 512.0]",horizontal,"(390.0, 262.0)",[0.484],1,2256.08
12,False,666,0.807,48,[],[],"[(1091, 914)]",[],[1],[80],[1.3333333333333333],"[640.0, 512.0]",vertical,"(890.0, 762.0)",[0.505],1,2258.951
12,False,667,0.718,43,[],[],"[(1087, 907)]",[],[1],[75],[1.25],"[640.0, 512.0]",horizontal,"(890.0, 762.0)",[0.507],1,2261.862
12,False,668,0.668,40,[],[],"[(1107, 902)]",[],[1],[83],[1.3833333333333333],"[640.0, 512.0]",horizontal,"(890.0, 762.0)",[0.691],1,2264.685
12,False,669,0.369,22,[],[],"[(1102, 909)]",[],[1],[55],[0.9166666666666666],"[640.0, 512.0]",horizontal,"(890.0, 262.0)",[0.528],1,2267.586
12,False,670,0.674,40,[],[],"[(1112, 906)]",[],[1],[73],[1.2166666666666666],"[640.0, 512.0]",vertical,"(890.0, 762.0)",[0.522],1,2270.006
12,False,671,0.909,54,[],[],"[(1063, 912)]",[],[1],[84],[1.4],"[640.0, 512.0]",horizontal,"(890.0, 262.0)",[0.474],1,2272.743
12,False,672,1.37,82,[],[],"[(1114, 916)]",[],[1],[96],[1.6],"[640.0, 512.0]",horizontal,"(390.0, 762.0)",[0.217],1,2276.003
12,False,673,1.427,85,[],[],"[(1068, 919)]",[],[1],[117],[1.95],"[640.0, 512.0]",vertical,"(390.0, 262.0)",[0.51],1,2279.163
12,False,674,0.98,58,[],[],"[(1126, 901)]",[],[1],[91],[1.5166666666666666],"[640.0, 512.0]",horizontal,"(390.0, 262.0)",[0.525],1,2282.867
12,False,675,0.736,44,[],[],"[(1093, 904)]",[],[1],[73],[1.2166666666666666],"[640.0, 512.0]",vertical,"(390.0, 262.0)",[0.467],1,2285.89
12,False,676,0.957,57,[],[],"[(1097, 907)]",[],[1],[85],[1.4166666666666667],"[640.0, 512.0]",horizontal,"(390.0, 262.0)",[0.448],1,2288.717
12,False,677,1.382,82,[],[],"[(1102, 901)]",[],[1],[91],[1.5166666666666666],"[640.0, 512.0]",horizontal,"(390.0, 762.0)",[0.135],1,2291.685
12,False,678,0.529,31,[],[],"[(1102, 906)]",[],[1],[64],[1.0666666666666667],"[640.0, 512.0]",vertical,"(390.0, 762.0)",[0.525],1,2294.685
12,False,679,1.336,80,[],[],"[(1088, 922)]",[],[1],[93],[1.55],"[640.0, 512.0]",vertical,"(390.0, 262.0)",[0.199],1,2297.299
12,False,680,0.975,58,[],[],"[(1108, 922)]",[],[1],[86],[1.4333333333333333],"[640.0, 512.0]",vertical,"(390.0, 762.0)",[0.449],1,2300.396
12,False,681,0.994,59,[],[],"[(1098, 912)]",[],[1],[88],[1.4666666666666666],"[640.0, 512.0]",vertical,"(890.0, 262.0)",[0.475],1,2303.309
12,False,682,0.544,32,[],[],"[(1112, 904)]",[],[1],[64],[1.0666666666666667],"[640.0, 512.0]",vertical,"(390.0, 262.0)",[0.509],1,2306.383
12,False,683,0.38,22,[],[],"[(1083, 907)]",[],[1],[65],[1.0833333333333333],"[640.0, 512.0]",horizontal,"(390.0, 262.0)",[0.691],1,2308.944
12,False,684,1.111,66,[],[],"[(1117, 918)]",[],[1],[94],[1.5666666666666667],"[640.0, 512.0]",vertical,"(390.0, 762.0)",[0.445],1,2311.554
12,False,685,0.959,57,[],[],"[(1093, 904)]",[],[1],[81],[1.35],"[640.0, 512.0]",horizontal,"(890.0, 262.0)",[0.373],1,2314.681
12,False,686,1.001,60,[],[],"[(1093, 901)]",[],[1],[92],[1.5333333333333332],"[640.0, 512.0]",vertical,"(890.0, 762.0)",[0.508],1,2317.569
12,False,687,0.361,21,[],[],"[(1088, 912)]",[],[1],[56],[0.9333333333333333],"[640.0, 512.0]",horizontal,"(890.0, 762.0)",[0.561],1,2320.616
12,False,688,0.422,25,[],[],"[(1098, 901)]",[],[1],[58],[0.9666666666666667],"[640.0, 512.0]",horizontal,"(890.0, 762.0)",[0.528],1,2323.15
12,False,689,1.293,77,[],[2341868],"[(1099, 912)]","[(1064, 931)]",[1],"[77, 127]","[1.2833333333333332, 2.1166666666666667]","[640.0, 512.0]",horizontal,"(390.0, 762.0)","[0, 0.801]",0,2325.653
12,False,690,0.362,21,[],[],"[(1083, 906)]",[],[1],[55],[0.9166666666666666],"[640.0, 512.0]",vertical,"(890.0, 262.0)",[0.544],1,2329.308
12,False,691,1.29,77,[],[],"[(1093, 910)]",[],[1],[91],[1.5166666666666666],"[640.0, 512.0]",horizontal,"(390.0, 262.0)",[0.215],1,2332.165
12,False,692,0.729,43,[],[],"[(1097, 922)]",[],[1],[73],[1.2166666666666666],"[640.0, 512.0]",horizontal,"(890.0, 262.0)",[0.479],1,2335.206
12,False,693,0.607,36,[],[],"[(1107, 906)]",[],[1],[67],[1.1166666666666667],"[640.0, 512.0]",vertical,"(390.0, 262.0)",[0.493],1,2338.031
12,False,694,1.012,60,[],[],"[(1081, 915)]",[],[1],[88],[1.4666666666666666],"[640.0, 512.0]",horizontal,"(890.0, 262.0)",[0.448],1,2340.649
12,False,695,0.754,45,[],[],"[(1109, 902)]",[],[1],[77],[1.2833333333333332],"[640.0, 512.0]",horizontal,"(890.0, 262.0)",[0.509],1,2343.658
12,False,696,0.505,30,[],[],"[(1088, 903)]",[],[1],[65],[1.0833333333333333],"[640.0, 512.0]",vertical,"(390.0, 262.0)",[0.556],1,2346.503
12,False,697,0.618,37,[],[],"[(1088, 904)]",[],[1],[72],[1.2],"[640.0, 512.0]",vertical,"(890.0, 762.0)",[0.565],1,2349.175
12,False,698,0.553,33,[],[],"[(1101, 902)]",[],[1],[72],[1.2],"[640.0, 512.0]",horizontal,"(390.0, 262.0)",[0.635],1,2351.911
12,False,699,0.701,42,[],[],"[(1094, 906)]",[],[1],[74],[1.2333333333333334],"[640.0, 512.0]",horizontal,"(390.0, 762.0)",[0.512],1,2354.731
12,False,700,1.412,84,[],[2373606],"[(1112, 910)]","[(1067, 931)]",[1],[72],[1.2],"[640.0, 512.0]",horizontal,"(390.0, 762.0)",[0],0,2357.508
12,False,701,1.272,76,[],[],"[(1088, 898)]",[],[1],[91],[1.5166666666666666],"[640.0, 512.0]",vertical,"(890.0, 262.0)",[0.236],1,2360.255
12,False,702,0.708,42,[],[],"[(1101, 898)]",[],[1],[73],[1.2166666666666666],"[640.0, 512.0]",horizontal,"(890.0, 762.0)",[0.499],1,2363.502
12,False,703,0.604,36,[],[],"[(1081, 922)]",[],[1],[67],[1.1166666666666667],"[640.0, 512.0]",vertical,"(890.0, 762.0)",[0.495],1,2366.245
12,False,704,0.538,32,[],[],"[(1102, 905)]",[],[1],[65],[1.0833333333333333],"[640.0, 512.0]",horizontal,"(390.0, 762.0)",[0.525],1,2368.888
12,False,705,0.873,52,[],[],"[(1039, 916)]",[],[1],[80],[1.3333333333333333],"[640.0, 512.0]",horizontal,"(390.0, 762.0)",[0.451],1,2371.544
12,False,706,1.462,87,[],[],"[(1096, 901)]",[],[1],[102],[1.7],"[640.0, 512.0]",vertical,"(890.0, 262.0)",[0.231],1,2374.408
12,False,707,0.803,48,[],[],"[(1093, 907)]",[],[1],[80],[1.3333333333333333],"[640.0, 512.0]",horizontal,"(390.0, 262.0)",[0.509],1,2377.601
12,False,708,0.432,25,[],[],"[(1088, 911)]",[],[1],[61],[1.0166666666666666],"[640.0, 512.0]",vertical,"(390.0, 262.0)",[0.573],1,2380.516
12,False,709,0.797,47,[],[],"[(1088, 907)]",[],[1],[82],[1.3666666666666667],"[640.0, 512.0]",vertical,"(390.0, 762.0)",[0.56],1,2383.086
12,False,710,1.496,89,[],[2402335],"[(1086, 927)]","[(1101, 936)]",[1],[85],[1.4166666666666667],"[640.0, 512.0]",horizontal,"(890.0, 762.0)",[0],0,2386.024
12,False,711,0.819,49,[],[],"[(1103, 913)]",[],[1],[82],[1.3666666666666667],"[640.0, 512.0]",horizontal,"(390.0, 762.0)",[0.529],1,2388.989
12,False,712,0.651,39,[],[],"[(1102, 920)]",[],[1],[71],[1.1833333333333333],"[640.0, 512.0]",horizontal,"(890.0, 762.0)",[0.508],1,2392.555
12,False,713,0.933,55,[],[],"[(1097, 888)]",[],[1],[85],[1.4166666666666667],"[640.0, 512.0]",horizontal,"(390.0, 262.0)",[0.479],1,2395.512
12,False,714,0.838,50,[],[],"[(1088, 902)]",[],[1],[66],[1.1],"[640.0, 512.0]",horizontal,"(390.0, 262.0)",[0.248],1,2398.767
12,False,715,1.206,72,[],[2431145],"[(1087, 927)]","[(1045, 940)]",[1],"[72, 122]","[1.2, 2.033333333333333]","[640.0, 512.0]",vertical,"(890.0, 762.0)","[0, 0.829]",0,2414.997
12,False,716,0.445,26,[],[],"[(1082, 902)]",[],[1],[59],[0.9833333333333333],"[640.0, 512.0]",vertical,"(390.0, 262.0)",[0.526],1,2418.615
12,False,717,0.881,52,[],[],"[(1062, 920)]",[],[1],[68],[1.1333333333333333],"[640.0, 512.0]",vertical,"(890.0, 762.0)",[0.246],1,2423.176
12,False,718,0.614,36,[],[],"[(1107, 922)]",[],[1],[69],[1.15],"[640.0, 512.0]",horizontal,"(390.0, 262.0)",[0.526],1,2426.612
12,False,719,1.216,72,[],[],"[(1068, 918)]",[],[1],[88],[1.4666666666666666],"[640.0, 512.0]",vertical,"(890.0, 262.0)",[0.249],1,2429.31
12,False,720,0.464,27,[],[],"[(1088, 917)]",[],[1],[60],[1.0],"[640.0, 512.0]",vertical,"(890.0, 762.0)",[0.541],1,2432.352
13,False,721,0.65,39,[],[],"[(1101, 906)]",[],[1],[78],[1.3],"[640.0, 512.0]",vertical,"(890.0, 262.0)",[0.616],1,2434.94
13,False,722,0.398,23,[],[],"[(1102, 912)]",[],[1],[58],[0.9666666666666667],"[640.0, 512.0]",vertical,"(890.0, 262.0)",[0.56],1,2437.768
13,False,723,0.412,24,[],[],"[(1100, 901)]",[],[1],[65],[1.0833333333333333],"[640.0, 512.0]",horizontal,"(890.0, 762.0)",[0.653],1,2440.241
13,False,724,1.182,70,[],[],"[(1086, 910)]",[],[1],[101],[1.6833333333333333],"[640.0, 512.0]",vertical,"(390.0, 762.0)",[0.497],1,2442.853
13,False,725,0.34,20,[],[],"[(1127, 906)]",[],[1],[51],[0.85],"[640.0, 512.0]",horizontal,"(390.0, 262.0)",[0.503],1,2446.109
13,False,726,0.401,24,[],[],"[(1088, 923)]",[],[1],[65],[1.0833333333333333],"[640.0, 512.0]",horizontal,"(890.0, 762.0)",[0.657],1,2466.937
13,False,727,0.364,21,[],[],"[(1088, 908)]",[],[1],[58],[0.9666666666666667],"[640.0, 512.0]",horizontal,"(390.0, 262.0)",[0.593],1,2469.547
