block,trial,trial_type,taps_start_loc_during_fix,taps_end_loc_during_fix,taps_on_lever_during_fix,taps_on_lever_s_during_fix,bar_orientation,target_xy,cti,rt,acc,time,pulses,fa_rate_recent100,p_catch
0,1,target,"[(1166, 829)]",[],[1],[0.4166666666666667],horizontal,"(890.0, 262.0)",0.8,0.383,1,0.444,1,0.0,0.25
0,2,target,"[(1086, 862)]",[],[1],[0.11666666666666667],vertical,"(890.0, 262.0)",1.5166666666666666,0.087,0,10.475,0,0.0,0.25
0,3,target,"[(1153, 853)]",[],[1],[0.5],horizontal,"(890.0, 762.0)",0.8333333333333334,0.466,1,67.397,1,0.0,0.25
0,4,target,"[(1155, 813)]",[],[1],[0.5],horizontal,"(890.0, 762.0)",0.8166666666666667,0.466,1,72.84,1,0.0,0.25
0,5,catch,"[(1164, 805)]",[],[1],[],vertical,"(390.0, 762.0)",,"('cti', 1.625),nan",0,77.673,0,0.2,0.25
0,6,target,"[(1155, 816)]",[],[1],[0.5],horizontal,"(890.0, 262.0)",1.1833333333333333,0.464,1,82.256,1,0.16666666666666666,0.25
0,7,catch,"[(1166, 828)]",[],[1],[],vertical,"(890.0, 262.0)",,"('cti', 1.691),nan",0,87.625,0,0.2857142857142857,0.25
0,8,catch,"[(1160, 808)]",[],[1],[],vertical,"(890.0, 262.0)",,"('cti', 1.521),nan",0,92.773,0,0.375,0.25
0,9,target,"[(1170, 814)]",[],[1],[0.13333333333333333],vertical,"(390.0, 262.0)",1.4166666666666667,0.102,0,97.44,0,0.3333333333333333,0.25
0,10,target,"[(1134, 794)]",[],[1],[0.5166666666666666],vertical,"(390.0, 762.0)",1.3666666666666667,0.482,1,102.135,1,0.3,0.25
0,11,target,"[(1174, 807)]",[],[1],[0.5166666666666666],horizontal,"(390.0, 762.0)",1.5,0.487,1,107.465,1,0.2727272727272727,0.25
0,12,target,"[(1171, 808)]",[],[1],[0.85],vertical,"(890.0, 262.0)",1.0333333333333332,nan,0,112.96,0,0.25,0.25
0,13,target,"[(1157, 793)]",[],[1],[0.4666666666666667],vertical,"(390.0, 762.0)",1.15,0.442,1,117.739,1,0.23076923076923078,0.25
0,14,catch,"[(1153, 808)]",[],[1],[],horizontal,"(390.0, 262.0)",1.7,nan,1,123.198,1,0.21428571428571427,0.25
0,15,target,"[(1175, 806)]",[],[1],[0.55],vertical,"(390.0, 262.0)",1.3333333333333333,0.517,1,128.565,1,0.2,0.25
0,16,target,"[(1169, 793)]",[],[1],[0.5],horizontal,"(890.0, 262.0)",0.7666666666666666,0.455,1,134.536,2,0.1875,0.25
0,17,target,"[(1172, 798)]",[],[1],[0.4666666666666667],horizontal,"(890.0, 262.0)",1.4666666666666666,0.438,1,139.865,2,0.17647058823529413,0.25
0,18,catch,"[(1170, 791)]",[],[1],[],horizontal,"(390.0, 762.0)",1.7,nan,1,146.215,2,0.16666666666666666,0.25
0,19,target,"[(1170, 806)]",[],[1],[0.75],horizontal,"(890.0, 762.0)",1.1333333333333333,0.717,1,152.041,2,0.15789473684210525,0.25
0,20,catch,"[(1156, 795)]",[],[1],[],vertical,"(390.0, 762.0)",1.7,nan,1,158.367,3,0.15,0.25
0,21,target,"[(1167, 805)]",[],[1],[0.8166666666666667],horizontal,"(890.0, 762.0)",1.0666666666666667,0.786,1,164.54,3,0.14285714285714285,0.25
0,22,target,"[(1159, 799)]",[],[1],[0.5166666666666666],horizontal,"(890.0, 262.0)",1.0833333333333333,0.49,1,170.086,3,0.13636363636363635,0.25
0,23,target,"[(1170, 807)]",[],[1],[0.4666666666666667],vertical,"(890.0, 262.0)",1.5333333333333332,0.434,1,176.357,3,0.13043478260869565,0.25
0,24,catch,"[(1167, 806)]",[],[1],[],horizontal,"(390.0, 762.0)",1.7,nan,1,182.596,3,0.125,0.25
0,25,target,"[(1158, 798)]",[],[1],[0.48333333333333334],horizontal,"(890.0, 262.0)",1.5,0.449,1,188.51,3,0.12,0.25
0,26,target,"[(1157, 793)]",[],[1],[0.5166666666666666],vertical,"(890.0, 762.0)",1.0,0.475,1,194.992,3,0.11538461538461539,0.25
0,27,target,"[(1170, 814)]",[],[1],[0.5],vertical,"(390.0, 262.0)",0.9,0.458,1,200.785,3,0.1111111111111111,0.25
0,28,target,"[(1170, 819)]",[],[1],[0.5666666666666667],vertical,"(390.0, 762.0)",0.8,0.53,1,206.769,3,0.10714285714285714,0.25
0,29,target,"[(1156, 807)]",[],[1],[0.5166666666666666],vertical,"(890.0, 262.0)",0.4166666666666667,0.48,1,212.549,3,0.10344827586206896,0.25
0,30,target,"[(1172, 808)]",[],[1],[0.6],horizontal,"(390.0, 262.0)",1.0833333333333333,0.56,1,217.793,3,0.1,0.25
0,31,target,"[(1175, 807)]",[],[1],[0.55],horizontal,"(390.0, 762.0)",0.5833333333333334,0.509,1,223.817,3,0.0967741935483871,0.25
0,32,target,"[(1171, 798)]",[],[1],[0.5],vertical,"(390.0, 762.0)",0.8666666666666667,0.459,1,228.993,3,0.09375,0.25
0,33,target,"[(1170, 809)]",[],[1],[0.55],vertical,"(390.0, 262.0)",0.5833333333333334,0.508,1,234.453,3,0.09090909090909091,0.25
0,34,target,"[(1170, 824)]",[],[1],[0.5166666666666666],vertical,"(390.0, 762.0)",0.75,0.473,1,239.713,3,0.08823529411764706,0.25
0,35,target,"[(1155, 808)]",[],[1],[0.5166666666666666],vertical,"(890.0, 262.0)",0.9833333333333333,0.479,1,245.343,3,0.08571428571428572,0.25
0,36,target,"[(1169, 808)]",[],[1],[0.6166666666666667],horizontal,"(890.0, 262.0)",0.7666666666666666,0.575,1,251.712,3,0.08333333333333333,0.25
0,37,target,"[(1160, 808)]",[],[1],[0.5166666666666666],horizontal,"(890.0, 762.0)",0.43333333333333335,0.478,1,257.659,3,0.08108108108108109,0.25
0,38,target,"[(1172, 808)]",[],[1],[0.6],vertical,"(390.0, 262.0)",1.1166666666666667,0.565,1,262.921,3,0.07894736842105263,0.25
0,39,target,"[(1168, 807)]",[],[1],[0.5],horizontal,"(890.0, 762.0)",0.7666666666666666,0.457,1,268.624,3,0.07692307692307693,0.25
0,40,target,"[(1171, 802)]",[],[1],[0.85],vertical,"(390.0, 762.0)",1.2833333333333332,nan,0,274.14,0,0.075,0.25
0,41,target,"[(1146, 808)]",[],[1],[0.48333333333333334],vertical,"(890.0, 262.0)",1.5,0.452,1,279.054,1,0.07317073170731707,0.25
0,42,target,"[(1170, 796)]",[],[1],[0.6],horizontal,"(390.0, 262.0)",1.3166666666666667,0.558,1,284.601,1,0.07142857142857142,0.25
0,43,catch,"[(1202, 825)]",[],[1],[0.03333333333333333],vertical,"(390.0, 262.0)",1.7,"0.018,nan",0,289.826,0,0.09302325581395349,0.25
0,44,target,"[(1158, 805)]",[],[1],[0.5166666666666666],horizontal,"(890.0, 762.0)",0.8,0.473,1,294.789,1,0.09090909090909091,0.25
0,45,target,"[(1170, 818)]",[],[1],[0.85],vertical,"(890.0, 262.0)",0.43333333333333335,nan,0,299.827,0,0.08888888888888889,0.25
0,46,catch,"[(1155, 796)]",[],[1],[],vertical,"(390.0, 262.0)",1.7,nan,1,304.085,1,0.08695652173913043,0.25
0,47,target,"[(1170, 810)]",[],[1],[0.85],vertical,"(890.0, 762.0)",0.48333333333333334,nan,0,309.651,0,0.0851063829787234,0.25
0,48,target,"[(1156, 797)]",[],[1],[0.6833333333333333],vertical,"(890.0, 762.0)",1.0666666666666667,0.641,1,314.16,1,0.08333333333333333,0.25
0,49,catch,"[(1156, 814)]",[],[1],[],horizontal,"(890.0, 262.0)",1.7,nan,1,319.609,1,0.08163265306122448,0.25
0,50,target,"[(1155, 799)]",[],[1],[0.55],horizontal,"(890.0, 762.0)",0.9666666666666667,0.509,1,324.791,1,0.08,0.25
0,51,target,"[(1172, 812)]",[],[1],[0.7833333333333333],vertical,"(890.0, 762.0)",1.0333333333333332,0.745,1,330.01,2,0.08,0.25
0,52,target,"[(1172, 813)]",[],[1],[0.5166666666666666],horizontal,"(890.0, 262.0)",1.1833333333333333,0.48,1,335.66,2,0.08,0.25
0,53,target,"[(1158, 799)]",[],[1],[0.5166666666666666],horizontal,"(390.0, 262.0)",1.2333333333333334,0.478,1,340.677,2,0.08,0.25
0,54,target,"[(1174, 781)]",[],[1],[0.85],vertical,"(390.0, 762.0)",0.6,nan,0,346.101,0,0.08,0.25
0,55,target,"[(1160, 803)]",[],[1],[0.5],horizontal,"(890.0, 762.0)",0.9166666666666666,0.463,1,350.825,1,0.06,0.25
0,56,target,"[(1162, 807)]",[],[1],[0.6833333333333333],vertical,"(390.0, 762.0)",0.6333333333333333,0.64,1,355.926,1,0.06,0.25
0,57,target,"[(1198, 807)]",[],[1],[0.5666666666666667],vertical,"(390.0, 262.0)",0.9,0.519,1,360.175,1,0.04,0.25
0,58,target,"[(1171, 806)]",[],[1],[0.7833333333333333],horizontal,"(890.0, 762.0)",0.43333333333333335,0.744,1,365.519,2,0.02,0.25
0,59,catch,"[(1172, 802)]",[],[1],[],vertical,"(390.0, 762.0)",1.7,nan,1,371.21,2,0.02,0.25
0,60,target,"[(1161, 804)]",[],[1],[0.6833333333333333],horizontal,"(890.0, 762.0)",0.55,0.644,1,377.033,2,0.02,0.25
0,61,target,"[(1202, 806)]",[],[1],[0.85],horizontal,"(390.0, 262.0)",0.6333333333333333,nan,0,381.776,0,0.02,0.25
0,62,target,"[(1141, 794)]",[],[1],[0.5],horizontal,"(390.0, 262.0)",0.8166666666666667,0.469,1,386.076,1,0.02,0.25
0,63,target,"[(1170, 798)]",[],[1],[0.7166666666666667],vertical,"(390.0, 262.0)",0.8833333333333333,0.689,1,391.233,1,0.02,0.25
0,64,target,"[(1205, 807)]",[],[1],[0.43333333333333335],vertical,"(390.0, 262.0)",0.7833333333333333,0.4,1,396.76,1,0.02,0.25
0,65,target,"[(1197, 800)]",[],[1],[0.65],vertical,"(890.0, 262.0)",1.0333333333333332,0.607,1,401.875,2,0.02,0.25
0,66,target,"[(1181, 815)]",[],[1],[0.5166666666666666],horizontal,"(390.0, 262.0)",0.5166666666666666,0.478,1,407.744,2,0.02,0.25
0,67,target,"[(1165, 804)]",[],[1],[0.5333333333333333],vertical,"(390.0, 262.0)",1.4666666666666666,0.492,1,412.81,2,0.02,0.25
0,68,target,"[(1176, 781)]",[],[1],[0.6],horizontal,"(390.0, 762.0)",0.65,0.561,1,418.41,2,0.02,0.25
0,69,catch,"[(1181, 810)]",[],[1],[],horizontal,"(390.0, 262.0)",1.7,nan,1,423.642,3,0.02,0.25
0,70,target,"[(1170, 803)]",[],[1],[0.6166666666666667],horizontal,"(390.0, 262.0)",1.05,0.571,1,429.947,3,0.02,0.25
0,71,target,"[(1178, 808)]",[],[1],[0.5333333333333333],horizontal,"(890.0, 762.0)",0.8,0.497,1,435.826,3,0.02,0.25
0,72,target,"[(1178, 800)]",[],[1],[0.15],horizontal,"(890.0, 262.0)",1.4166666666666667,0.117,0,441.81,0,0.02,0.25
0,73,catch,"[(1158, 795)]",[],[1],[],vertical,"(390.0, 262.0)",1.7,nan,1,446.511,1,0.02,0.25
0,74,target,"[(1180, 798)]",[],[1],[0.5833333333333334],vertical,"(890.0, 262.0)",0.4666666666666667,0.556,1,451.654,1,0.02,0.25
0,75,target,"[(1164, 799)]",[],[1],[0.7166666666666667],horizontal,"(890.0, 762.0)",0.45,0.678,1,455.969,1,0.02,0.25
0,76,catch,"[(1176, 804)]",[],[1],[0.03333333333333333],vertical,"(890.0, 262.0)",1.7,"0.02,nan",0,460.561,0,0.04,0.25
0,77,target,"[(1164, 806)]",[],[1],[0.85],horizontal,"(890.0, 762.0)",0.3833333333333333,nan,0,465.629,0,0.04,0.25
0,78,target,"[(1155, 797)]",[],[1],[0.85],vertical,"(390.0, 262.0)",0.3833333333333333,nan,0,470.288,0,0.04,0.25
0,79,target,"[(1160, 802)]",[],[1],[0.7833333333333333],horizontal,"(890.0, 762.0)",0.7,0.747,1,474.584,1,0.04,0.25
0,80,target,"[(1170, 820)]",[],[1],[0.4166666666666667],horizontal,"(890.0, 762.0)",1.3166666666666667,0.378,1,479.71,1,0.04,0.25
0,81,catch,"[(1199, 804)]",[],[1],[],horizontal,"(890.0, 762.0)",1.7,nan,1,484.911,1,0.04,0.25
0,82,target,"[(1196, 800)]",[],[1],[0.5666666666666667],horizontal,"(890.0, 262.0)",1.1666666666666667,0.522,1,490.133,2,0.04,0.25
0,83,target,"[(1167, 806)]",[],[1],[0.5666666666666667],vertical,"(890.0, 262.0)",0.6666666666666666,0.534,1,495.753,2,0.04,0.25
0,84,target,"[(1188, 813)]",[],[1],[0.45],vertical,"(390.0, 262.0)",1.4333333333333333,0.413,1,500.71,2,0.04,0.25
0,85,target,"[(1195, 807)]",[],[1],[0.85],vertical,"(390.0, 762.0)",0.7833333333333333,nan,0,506.492,0,0.04,0.25
0,86,target,"[(1136, 810)]",[],[1],[0.6],horizontal,"(890.0, 262.0)",1.3333333333333333,0.559,1,511.375,1,0.04,0.25
0,87,target,"[(1154, 801)]",[],[1],[0.4166666666666667],vertical,"(390.0, 262.0)",1.3666666666666667,0.38,1,516.931,1,0.04,0.25
0,88,target,"[(1167, 784)]",[],[1],[0.65],horizontal,"(390.0, 762.0)",1.0833333333333333,0.602,1,522.372,1,0.04,0.25
0,89,target,"[(1169, 814)]",[],[1],[0.5666666666666667],vertical,"(390.0, 262.0)",0.5,0.52,1,527.802,2,0.04,0.25
0,90,catch,"[(1160, 811)]",[],[1],[],horizontal,"(890.0, 262.0)",1.7,nan,1,532.445,2,0.04,0.25
0,91,target,"[(1172, 809)]",[],[1],[0.85],horizontal,"(890.0, 762.0)",0.48333333333333334,nan,0,537.859,0,0.04,0.25
0,92,target,"[(1136, 815)]",[],[1],[0.85],horizontal,"(390.0, 262.0)",0.4166666666666667,nan,0,542.271,0,0.04,0.25
0,93,catch,"[(1137, 794)]",[],[1],[],vertical,"(890.0, 762.0)",1.7,nan,1,546.643,1,0.02,0.25
0,94,target,"[(1172, 808)]",[],[1],[0.5666666666666667],horizontal,"(890.0, 762.0)",1.15,0.527,1,567.261,1,0.02,0.25
0,95,target,"[(1170, 792)]",[],[1],[0.5333333333333333],horizontal,"(390.0, 762.0)",0.7333333333333333,0.496,1,572.193,1,0.02,0.25
0,96,target,"[(1171, 799)]",[],[1],[0.4666666666666667],horizontal,"(890.0, 762.0)",0.8166666666666667,0.424,1,576.872,2,0.02,0.25
0,97,target,"[(1182, 813)]",[],[1],[0.5333333333333333],vertical,"(890.0, 262.0)",0.5333333333333333,0.497,1,582.279,2,0.02,0.25
0,98,target,"[(1174, 819)]",[],[1],[0.45],horizontal,"(890.0, 262.0)",0.9666666666666667,0.409,1,587.255,2,0.02,0.25
0,99,target,"[(1170, 802)]",[],[1],[0.85],horizontal,"(890.0, 762.0)",0.8666666666666667,nan,0,592.644,0,0.02,0.25
0,100,target,"[(1157, 809)]",[],[1],[0.5],vertical,"(390.0, 262.0)",1.2333333333333334,0.463,1,596.943,1,0.02,0.25
0,101,target,"[(1159, 793)]",[],[1],[0.45],vertical,"(890.0, 762.0)",0.8333333333333334,0.408,1,602.444,1,0.02,0.25
0,102,catch,"[(1172, 805)]",[],[1],[],horizontal,"(390.0, 262.0)",,"('cti', 1.374),nan",0,607.062,0,0.04,0.25
0,103,target,"[(1167, 813)]",[],[1],[0.5833333333333334],horizontal,"(890.0, 762.0)",0.6166666666666667,0.541,1,611.817,1,0.04,0.25
0,104,target,"[(1185, 819)]",[],[1],[0.85],vertical,"(390.0, 262.0)",0.6333333333333333,nan,0,616.244,0,0.04,0.25
0,105,catch,"[(1166, 808)]",[],[1],[],vertical,"(890.0, 262.0)",1.7,nan,1,620.645,1,0.04,0.25
0,106,catch,"[(1187, 808)]",[],[1],[],vertical,"(390.0, 262.0)",1.7,nan,1,626.228,1,0.04,0.25
0,107,target,"[(1172, 825)]",[],[1],[0.6],vertical,"(890.0, 262.0)",0.4666666666666667,0.574,1,631.145,1,0.04,0.25
0,108,target,"[(1153, 835)]",[],[1],[0.6],horizontal,"(390.0, 762.0)",0.9,0.56,1,635.861,2,0.04,0.25
0,109,target,"[(1157, 796)]",[],[1],[0.6333333333333333],horizontal,"(390.0, 262.0)",0.7,0.59,1,641.607,2,0.04,0.25
0,110,target,"[(1160, 808)]",[],[1],[0.5166666666666666],vertical,"(390.0, 762.0)",0.6833333333333333,0.478,1,647.014,2,0.04,0.25
0,111,catch,"[(1160, 801)]",[],[1],[],horizontal,"(890.0, 762.0)",,"('cti', 1.665),nan",0,651.944,0,0.06,0.25
0,112,target,"[(1165, 788)]",[],[1],[0.55],horizontal,"(390.0, 762.0)",0.6833333333333333,0.507,1,657.035,1,0.06,0.25
0,113,target,"[(1175, 806)]",[],[1],[0.5666666666666667],vertical,"(890.0, 762.0)",0.5,0.526,1,661.295,1,0.06,0.25
0,114,target,"[(1157, 814)]",[],[1],[0.6166666666666667],vertical,"(390.0, 262.0)",0.9,0.577,1,666.177,1,0.06,0.25
0,115,target,"[(1170, 814)]",[],[1],[0.7333333333333333],vertical,"(890.0, 762.0)",0.9666666666666667,0.694,1,671.148,2,0.06,0.25
0,116,catch,"[(1170, 793)]",[],[1],[],vertical,"(890.0, 262.0)",1.7,nan,1,676.682,2,0.06,0.25
0,117,target,"[(1180, 801)]",[],[1],[0.5333333333333333],vertical,"(890.0, 762.0)",0.35,0.496,1,682.328,2,0.06,0.25
0,118,catch,"[(1167, 806)]",[],[1],[],horizontal,"(890.0, 762.0)",1.7,nan,1,687.261,2,0.06,0.25
0,119,catch,"[(1172, 805)]",[],[1],[],vertical,"(890.0, 762.0)",1.7,nan,1,693.152,3,0.06,0.25
0,120,target,"[(1171, 805)]",[],[1],[0.5833333333333334],vertical,"(390.0, 762.0)",1.2,0.545,1,699.141,3,0.06,0.25
0,121,catch,"[(1170, 809)]",[],[1],[],vertical,"(390.0, 762.0)",1.7,nan,1,705.032,3,0.06,0.25
0,122,target,"[(1170, 806)]",[],[1],[0.5666666666666667],vertical,"(890.0, 262.0)",1.2333333333333334,0.532,1,711.001,3,0.06,0.25
0,123,target,"[(1171, 804)]",[],[1],[0.5333333333333333],horizontal,"(390.0, 762.0)",0.5833333333333334,0.495,1,716.695,3,0.06,0.25
0,124,target,"[(1160, 799)]",[],[1],[0.85],vertical,"(890.0, 762.0)",0.45,nan,0,722.144,0,0.06,0.25
0,125,target,"[(1136, 799)]",[],[1],[0.85],horizontal,"(390.0, 262.0)",1.2833333333333332,nan,0,726.541,0,0.06,0.25
0,126,target,"[(1131, 821)]",[],[1],[0.43333333333333335],horizontal,"(390.0, 762.0)",1.4833333333333334,0.394,1,731.645,1,0.04,0.25
0,127,target,"[(1170, 802)]",[],[1],[0.48333333333333334],vertical,"(890.0, 262.0)",0.8833333333333333,0.445,1,737.461,1,0.04,0.25
0,128,target,"[(1170, 804)]",[],[1],[0.5333333333333333],horizontal,"(890.0, 762.0)",1.0833333333333333,0.489,1,742.279,1,0.04,0.25
0,129,target,"[(1171, 807)]",[],[1],[0.48333333333333334],horizontal,"(890.0, 262.0)",1.3,0.443,1,747.444,2,0.04,0.25
0,130,target,"[(1171, 798)]",[],[1],[0.85],vertical,"(890.0, 762.0)",0.35,nan,0,753.19,0,0.04,0.25
0,131,target,"[(1137, 808)]",[],[1],[0.65],vertical,"(390.0, 262.0)",0.4666666666666667,0.606,1,757.295,1,0.04,0.25
0,132,catch,"[(1160, 821)]",[],[1],[],vertical,"(890.0, 262.0)",1.7,nan,1,761.645,1,0.04,0.25
0,133,catch,"[(1160, 783)]",[],[1],[],vertical,"(890.0, 262.0)",1.7,nan,1,766.778,1,0.04,0.25
0,134,target,"[(1160, 794)]",[],[1],[0.85],horizontal,"(390.0, 762.0)",0.48333333333333334,nan,0,771.725,0,0.04,0.25
0,135,target,"[(1136, 803)]",[],[1],[0.48333333333333334],vertical,"(390.0, 262.0)",0.9833333333333333,0.446,1,776.461,1,0.04,0.25
0,136,target,"[(1171, 803)]",[],[1],[0.5],horizontal,"(390.0, 262.0)",0.8833333333333333,0.463,1,781.145,1,0.04,0.25
0,137,target,"[(1170, 786)]",[],[1],[0.5],vertical,"(890.0, 262.0)",1.0166666666666666,0.466,1,786.241,1,0.04,0.25
0,138,target,"[(1188, 808)]",[],[1],[0.5166666666666666],vertical,"(390.0, 262.0)",1.2166666666666666,0.472,1,791.382,2,0.04,0.25
0,139,target,"[(1158, 800)]",[],[1],[0.7166666666666667],horizontal,"(890.0, 262.0)",1.1166666666666667,0.678,1,797.289,2,0.04,0.25
0,140,target,"[(1165, 795)]",[],[1],[0.85],horizontal,"(390.0, 262.0)",0.4,nan,0,802.716,0,0.04,0.25
0,141,target,"[(1136, 802)]",[],[1],[0.36666666666666664],horizontal,"(390.0, 262.0)",1.4166666666666667,0.331,1,806.862,1,0.04,0.25
0,142,target,"[(1163, 800)]",[],[1],[0.85],horizontal,"(390.0, 762.0)",0.48333333333333334,nan,0,812.237,0,0.04,0.25
0,143,target,"[(1136, 806)]",[],[1],[0.85],vertical,"(890.0, 762.0)",0.7666666666666666,nan,0,816.479,0,0.04,0.25
0,144,target,"[(1147, 795)]",[],[1],[0.35],vertical,"(890.0, 262.0)",1.4666666666666666,0.318,1,821.029,1,0.04,0.25
0,145,target,"[(1170, 788)]",[],[1],[0.6333333333333333],horizontal,"(390.0, 262.0)",1.4666666666666666,0.592,1,826.393,1,0.04,0.25
0,146,target,"[(1170, 809)]",[],[1],[0.85],horizontal,"(390.0, 262.0)",0.3833333333333333,nan,0,831.617,0,0.04,0.25
0,147,target,"[(1131, 797)]",[],[1],[0.5166666666666666],vertical,"(390.0, 262.0)",1.45,0.477,1,836.204,1,0.04,0.25
0,148,target,"[(1171, 798)]",[],[1],[0.85],horizontal,"(390.0, 762.0)",0.36666666666666664,nan,0,841.388,0,0.04,0.25
0,149,target,"[(1136, 787)]",[],[1],[0.6333333333333333],vertical,"(390.0, 762.0)",0.7333333333333333,0.597,1,845.16,1,0.04,0.25
0,150,catch,"[(1170, 807)]",[],[1],[],vertical,"(890.0, 762.0)",1.7,nan,1,849.762,1,0.04,0.25
0,151,target,"[(1174, 809)]",[],[1],[0.5833333333333334],vertical,"(390.0, 262.0)",0.5833333333333334,0.543,1,854.571,1,0.04,0.25
0,152,target,"[(1170, 798)]",[],[1],[0.6],vertical,"(890.0, 762.0)",1.4166666666666667,0.562,1,859.529,2,0.02,0.25
0,153,target,"[(1157, 799)]",[],[1],[0.5666666666666667],vertical,"(390.0, 762.0)",1.0333333333333332,0.533,1,865.613,2,0.02,0.25
0,154,catch,"[(1170, 804)]",[],[1],[],vertical,"(890.0, 262.0)",1.7,nan,1,871.285,2,0.02,0.25
0,155,catch,"[(1172, 803)]",[],[1],[],horizontal,"(390.0, 262.0)",1.7,nan,1,877.456,2,0.02,0.25
0,156,catch,"[(1172, 811)]",[],[1],[],vertical,"(890.0, 262.0)",1.7,nan,1,883.246,3,0.02,0.25
0,157,target,"[(1146, 793)]",[],[1],[0.45],horizontal,"(890.0, 262.0)",0.4666666666666667,0.41,1,889.345,3,0.02,0.25
0,158,target,"[(1175, 815)]",[],[1],[0.48333333333333334],vertical,"(890.0, 262.0)",0.4166666666666667,0.446,1,894.452,3,0.02,0.25
0,159,target,"[(1172, 793)]",[],[1],[0.6666666666666666],horizontal,"(390.0, 262.0)",1.1166666666666667,0.624,1,899.411,3,0.02,0.25
0,160,target,"[(1156, 801)]",[],[1],[0.5166666666666666],horizontal,"(390.0, 262.0)",0.6166666666666667,0.481,1,905.262,3,0.02,0.25
0,161,target,"[(1157, 787)]",[],[1],[0.48333333333333334],horizontal,"(890.0, 762.0)",0.7333333333333333,0.443,1,910.595,3,0.0,0.25
0,162,catch,"[(1169, 804)]",[],[1],[],vertical,"(390.0, 262.0)",1.7,nan,1,915.803,3,0.0,0.25
0,163,catch,"[(1204, 808)]",[],[1],[],vertical,"(890.0, 762.0)",1.7,nan,1,922.145,3,0.0,0.25
0,164,catch,"[(1156, 800)]",[],[1],[],horizontal,"(390.0, 262.0)",1.7,nan,1,928.146,3,0.0,0.25
0,165,catch,"[(1155, 804)]",[],[1],[],vertical,"(390.0, 262.0)",1.7,nan,1,934.102,3,0.0,0.25
0,166,catch,"[(1170, 793)]",[],[1],[],horizontal,"(890.0, 762.0)",,"('cti', 1.634),nan",0,940.483,0,0.02,0.25
0,167,target,"[(1170, 801)]",[],[1],[0.5333333333333333],horizontal,"(890.0, 762.0)",0.8,0.491,1,945.083,1,0.02,0.25
0,168,target,"[(1149, 793)]",[],[1],[0.5666666666666667],vertical,"(390.0, 262.0)",0.5666666666666667,0.526,1,949.546,1,0.02,0.25
0,169,target,"[(1172, 798)]",[],[1],[0.5166666666666666],vertical,"(890.0, 262.0)",0.43333333333333335,0.477,1,953.97,1,0.02,0.25
0,170,target,"[(1169, 816)]",[],[1],[0.6],vertical,"(390.0, 262.0)",0.6333333333333333,0.556,1,958.196,2,0.02,0.25
0,171,target,"[(1180, 783)]",[],[1],[0.4666666666666667],horizontal,"(890.0, 762.0)",0.8833333333333333,0.43,1,963.429,2,0.02,0.25
0,172,catch,"[(1175, 803)]",[],[1],[],horizontal,"(890.0, 762.0)",1.7,nan,1,968.827,2,0.02,0.25
0,173,catch,"[(1171, 802)]",[],[1],[],vertical,"(390.0, 762.0)",1.7,nan,1,974.4,2,0.02,0.25
0,174,catch,"[(1176, 793)]",[],[1],[],vertical,"(890.0, 262.0)",1.7,nan,1,980.095,3,0.02,0.25
0,175,target,"[(1155, 773)]",[],[1],[0.55],horizontal,"(390.0, 262.0)",1.2833333333333332,0.505,1,986.356,3,0.02,0.25
0,176,target,"[(1169, 774)]",[],[1],[0.5],vertical,"(890.0, 762.0)",1.4,0.461,1,992.362,3,0.02,0.25
0,177,target,"[(1174, 807)]",[],[1],[0.48333333333333334],horizontal,"(890.0, 762.0)",0.9666666666666667,0.444,1,998.091,3,0.02,0.25
0,178,target,"[(1146, 801)]",[],[1],[0.85],horizontal,"(890.0, 762.0)",0.8666666666666667,nan,0,1003.68,0,0.02,0.25
0,179,catch,"[(1154, 803)]",[],[1],[],horizontal,"(890.0, 762.0)",1.7,nan,1,1008.152,1,0.02,0.25
0,180,catch,"[(1174, 811)]",[],[1],[],vertical,"(390.0, 262.0)",1.7,nan,1,1012.98,1,0.02,0.25
0,181,target,"[(1138, 822)]",[],[1],[0.5833333333333334],horizontal,"(390.0, 762.0)",1.1833333333333333,0.538,1,1018.462,1,0.02,0.25
0,182,target,"[(1174, 794)]",[],[1],[0.55],vertical,"(890.0, 262.0)",1.2333333333333334,0.511,1,1023.58,2,0.02,0.25
0,183,target,"[(1171, 809)]",[],[1],[0.6166666666666667],horizontal,"(390.0, 262.0)",0.36666666666666664,0.574,1,1028.86,2,0.02,0.25
0,184,target,"[(1157, 789)]",[],[1],[0.4],vertical,"(890.0, 262.0)",1.0833333333333333,0.361,1,1033.929,2,0.02,0.25
0,185,target,"[(1168, 799)]",[],[1],[0.6166666666666667],horizontal,"(390.0, 762.0)",1.4333333333333333,0.579,1,1039.646,2,0.02,0.25
0,186,target,"[(1155, 807)]",[],[1],[0.75],vertical,"(890.0, 762.0)",1.15,0.705,1,1045.513,3,0.02,0.25
0,187,target,"[(1166, 797)]",[],[1],[0.85],horizontal,"(890.0, 762.0)",0.5166666666666666,nan,0,1051.897,0,0.02,0.25
0,188,catch,"[(1156, 805)]",[],[1],[],horizontal,"(890.0, 762.0)",1.7,nan,1,1056.012,1,0.02,0.25
0,189,target,"[(1155, 802)]",[],[1],[0.55],vertical,"(890.0, 262.0)",0.7833333333333333,0.516,1,1061.298,1,0.02,0.25
0,190,target,"[(1175, 799)]",[],[1],[0.15],horizontal,"(390.0, 262.0)",1.3,0.118,0,1066.102,0,0.02,0.25
0,191,target,"[(1154, 804)]",[],[1],[0.5666666666666667],vertical,"(390.0, 762.0)",0.65,0.522,1,1070.794,1,0.02,0.25
0,192,target,"[(1169, 795)]",[],[1],[0.5166666666666666],horizontal,"(390.0, 262.0)",0.6166666666666667,0.476,1,1075.429,1,0.02,0.25
0,193,target,"[(1175, 813)]",[],[1],[0.4166666666666667],vertical,"(390.0, 262.0)",1.2333333333333334,0.383,1,1080.195,1,0.02,0.25
0,194,target,"[(1186, 821)]",[],[1],[0.5],horizontal,"(390.0, 762.0)",1.1333333333333333,0.458,1,1085.683,2,0.02,0.25
0,195,target,"[(1175, 802)]",[],[1],[0.5833333333333334],horizontal,"(890.0, 762.0)",1.0,0.547,1,1091.696,2,0.02,0.25
0,196,target,"[(1171, 795)]",[],[1],[0.5666666666666667],vertical,"(890.0, 262.0)",0.8166666666666667,0.521,1,1097.136,2,0.02,0.25
0,197,catch,"[(1178, 810)]",[],[1],[],vertical,"(890.0, 262.0)",1.7,nan,1,1102.154,2,0.02,0.25
0,198,catch,"[(1177, 804)]",[],[1],[],horizontal,"(890.0, 762.0)",1.7,nan,1,1108.248,3,0.02,0.25
0,199,target,"[(1156, 820)]",[],[1],[0.55],horizontal,"(390.0, 762.0)",1.35,0.512,1,1114.494,3,0.02,0.25
0,200,target,"[(1160, 794)]",[],[1],[0.48333333333333334],horizontal,"(890.0, 262.0)",0.3833333333333333,0.444,1,1120.327,3,0.02,0.25
0,201,target,"[(1155, 801)]",[],[1],[0.5166666666666666],horizontal,"(390.0, 762.0)",0.9666666666666667,0.476,1,1125.379,3,0.02,0.25
0,202,target,"[(1157, 810)]",[],[1],[0.6666666666666666],vertical,"(890.0, 762.0)",1.05,0.628,1,1131.392,3,0.02,0.25
0,203,catch,"[(1175, 819)]",[],[1],[],vertical,"(890.0, 262.0)",1.7,nan,1,1137.097,3,0.02,0.25
0,204,target,"[(1170, 803)]",[],[1],[0.5333333333333333],horizontal,"(890.0, 762.0)",1.3666666666666667,0.492,1,1142.691,3,0.02,0.25
0,205,target,"[(1155, 813)]",[],[1],[0.48333333333333334],vertical,"(390.0, 762.0)",0.8666666666666667,0.438,1,1148.755,3,0.02,0.25
0,206,target,"[(1146, 798)]",[],[1],[0.5166666666666666],horizontal,"(890.0, 762.0)",0.8,0.478,1,1154.301,3,0.02,0.25
0,207,target,"[(1155, 797)]",[],[1],[0.5833333333333334],vertical,"(390.0, 762.0)",1.0666666666666667,0.54,1,1159.383,3,0.02,0.25
0,208,target,"[(1147, 800)]",[],[1],[0.5333333333333333],horizontal,"(390.0, 762.0)",0.5333333333333333,0.494,1,1165.325,3,0.02,0.25
0,209,target,"[(1139, 789)]",[],[1],[0.5],horizontal,"(390.0, 262.0)",1.45,0.465,1,1170.679,3,0.02,0.25
0,210,target,"[(1161, 785)]",[],[1],[0.45],horizontal,"(390.0, 262.0)",0.95,0.414,1,1176.946,3,0.02,0.25
0,211,target,"[(1169, 792)]",[],[1],[0.5],horizontal,"(890.0, 262.0)",1.1833333333333333,0.459,1,1182.245,3,0.02,0.25
0,212,target,"[(1155, 790)]",[],[1],[0.4666666666666667],horizontal,"(390.0, 262.0)",1.0166666666666666,0.427,1,1188.127,3,0.02,0.25
0,213,catch,"[(1170, 788)]",[],[1],[],vertical,"(890.0, 762.0)",1.7,nan,1,1193.781,3,0.02,0.25
0,214,target,"[(1176, 794)]",[],[1],[0.5833333333333334],vertical,"(890.0, 762.0)",0.5333333333333333,0.543,1,1199.598,3,0.02,0.25
0,215,target,"[(1174, 795)]",[],[1],[0.4666666666666667],horizontal,"(390.0, 762.0)",0.8,0.426,1,1205.139,3,0.02,0.25
0,216,target,"[(1151, 799)]",[],[1],[0.6],horizontal,"(890.0, 762.0)",0.8833333333333333,0.559,1,1210.631,3,0.0,0.25
0,217,target,"[(1155, 803)]",[],[1],[0.4666666666666667],horizontal,"(390.0, 762.0)",1.35,0.432,1,1215.929,3,0.0,0.25
0,218,catch,"[(1157, 796)]",[],[1],[],vertical,"(890.0, 262.0)",1.7,nan,1,1222.012,3,0.0,0.25
0,219,catch,"[(1183, 803)]",[],[1],[],vertical,"(390.0, 762.0)",1.7,nan,1,1227.643,3,0.0,0.25
0,220,target,"[(1178, 793)]",[],[1],[0.4666666666666667],horizontal,"(890.0, 262.0)",1.4333333333333333,0.429,1,1233.496,3,0.0,0.25
0,221,target,"[(1171, 801)]",[],[1],[0.5666666666666667],vertical,"(390.0, 262.0)",1.2,0.523,1,1239.696,3,0.0,0.25
0,222,target,"[(1175, 798)]",[],[1],[0.6833333333333333],horizontal,"(890.0, 262.0)",0.9833333333333333,0.643,1,1245.696,3,0.0,0.25
0,223,catch,"[(1175, 807)]",[],[1],[],vertical,"(890.0, 262.0)",1.7,nan,1,1251.412,3,0.0,0.25
0,224,target,"[(1174, 797)]",[],[1],[0.48333333333333334],vertical,"(390.0, 262.0)",0.8666666666666667,0.438,1,1257.414,3,0.0,0.25
0,225,target,"[(1162, 799)]",[],[1],[0.4666666666666667],horizontal,"(890.0, 262.0)",1.0833333333333333,0.431,1,1263.345,3,0.0,0.25
0,226,catch,"[(1170, 795)]",[],[1],[],vertical,"(390.0, 762.0)",1.7,nan,1,1269.315,3,0.0,0.25
0,227,catch,"[(1161, 799)]",[],[1],[],vertical,"(890.0, 762.0)",1.7,nan,1,1275.213,3,0.0,0.25
0,228,target,"[(1170, 793)]",[],[1],[0.4666666666666667],horizontal,"(390.0, 262.0)",0.8,0.434,1,1281.313,3,0.0,0.25
0,229,catch,"[(1175, 803)]",[],[1],[],horizontal,"(390.0, 762.0)",1.7,nan,1,1286.538,3,0.0,0.25
0,230,target,"[(1156, 792)]",[],[1],[0.6333333333333333],vertical,"(890.0, 762.0)",0.5666666666666667,0.587,1,1292.781,3,0.0,0.25
0,231,catch,"[(1175, 795)]",[],[1],[],vertical,"(390.0, 262.0)",1.7,nan,1,1298.047,3,0.0,0.25
0,232,target,"[(1150, 801)]",[],[1],[0.5],horizontal,"(390.0, 262.0)",0.5666666666666667,0.458,1,1304.163,3,0.0,0.25
0,233,target,"[(1155, 795)]",[],[1],[0.55],horizontal,"(390.0, 262.0)",1.05,0.507,1,1309.413,3,0.0,0.25
0,234,target,"[(1155, 794)]",[],[1],[0.5333333333333333],horizontal,"(390.0, 762.0)",1.1333333333333333,0.494,1,1315.614,3,0.0,0.25
0,235,target,"[(1168, 802)]",[],[1],[0.6166666666666667],horizontal,"(390.0, 762.0)",0.5833333333333334,0.581,1,1321.598,3,0.0,0.25
0,236,catch,"[(1155, 790)]",[],[1],[],horizontal,"(890.0, 762.0)",,"('cti', 1.685),nan",0,1327.167,0,0.02,0.25
0,237,target,"[(1155, 802)]",[],[1],[0.5],horizontal,"(390.0, 262.0)",0.6,0.46,1,1331.693,1,0.02,0.25
0,238,target,"[(1171, 795)]",[],[1],[0.08333333333333333],vertical,"(890.0, 262.0)",1.2666666666666666,0.05,0,1336.168,0,0.02,0.25
0,239,catch,"[(1174, 795)]",[],[1],[],horizontal,"(390.0, 262.0)",1.7,nan,1,1340.831,1,0.02,0.25
0,240,target,"[(1157, 799)]",[],[1],[],vertical,"(390.0, 262.0)",,"('cti', 1.346)",0,1345.591,0,0.04,0.25
0,241,target,"[(1155, 817)]",[],[1],[0.45],horizontal,"(390.0, 262.0)",1.3166666666666667,0.424,1,1350.362,1,0.04,0.25
0,242,target,"[(1155, 795)]",[],[1],[0.48333333333333334],vertical,"(390.0, 262.0)",0.48333333333333334,0.443,1,1355.895,1,0.04,0.25
0,243,target,"[(1175, 799)]",[],[1],[0.7],horizontal,"(390.0, 762.0)",0.8166666666666667,0.659,1,1360.414,1,0.04,0.25
0,244,target,"[(1156, 792)]",[],[1],[0.5166666666666666],vertical,"(390.0, 262.0)",1.2666666666666666,0.479,1,1365.591,2,0.04,0.25
0,245,catch,"[(1172, 802)]",[],[1],[],vertical,"(890.0, 262.0)",1.7,nan,1,1371.03,2,0.04,0.25
0,246,target,"[(1169, 818)]",[],[1],[0.5333333333333333],vertical,"(390.0, 762.0)",0.75,0.494,1,1376.569,2,0.04,0.25
0,247,catch,"[(1175, 806)]",[],[1],[],horizontal,"(390.0, 762.0)",1.7,nan,1,1381.714,2,0.04,0.25
0,248,catch,"[(1175, 784)]",[],[1],[],vertical,"(890.0, 262.0)",1.7,nan,1,1387.448,3,0.04,0.25
0,249,catch,"[(1176, 787)]",[],[1],[0.03333333333333333],vertical,"(890.0, 762.0)",1.7,"0.02,nan",0,1393.898,0,0.06,0.25
0,250,target,"[(1156, 814)]",[],[1],[0.48333333333333334],vertical,"(390.0, 262.0)",0.7833333333333333,0.444,1,1398.824,1,0.06,0.25
0,251,catch,"[(1169, 806)]",[],[1],[],vertical,"(390.0, 762.0)",1.7,nan,1,1403.48,1,0.06,0.25
0,252,target,"[(1175, 800)]",[],[1],[0.48333333333333334],vertical,"(390.0, 262.0)",0.9166666666666666,0.443,1,1409.019,1,0.06,0.25
0,253,target,"[(1169, 786)]",[],[1],[0.6],horizontal,"(390.0, 262.0)",0.9833333333333333,0.56,1,1414.036,2,0.06,0.25
0,254,catch,"[(1174, 801)]",[],[1],[],horizontal,"(390.0, 262.0)",1.7,nan,1,1419.17,2,0.06,0.25
0,255,target,"[(1176, 819)]",[],[1],[0.48333333333333334],vertical,"(390.0, 762.0)",0.4166666666666667,0.45,1,1424.722,2,0.06,0.25
0,256,catch,"[(1172, 818)]",[],[1],[],vertical,"(890.0, 262.0)",1.7,nan,1,1429.38,2,0.06,0.25
0,257,target,"[(1155, 799)]",[],[1],[0.6833333333333333],horizontal,"(390.0, 262.0)",1.0666666666666667,0.637,1,1435.347,3,0.06,0.25
0,258,target,"[(1161, 802)]",[],[1],[0.4666666666666667],horizontal,"(890.0, 762.0)",1.35,0.421,1,1441.584,3,0.06,0.25
0,259,target,"[(1158, 800)]",[],[1],[0.5],horizontal,"(390.0, 262.0)",1.1833333333333333,0.459,1,1448.015,3,0.06,0.25
0,260,target,"[(1175, 797)]",[],[1],[0.5833333333333334],vertical,"(390.0, 762.0)",1.3,0.534,1,1453.782,3,0.06,0.25
0,261,target,"[(1157, 795)]",[],[1],[0.55],horizontal,"(390.0, 262.0)",1.05,0.51,1,1459.759,3,0.06,0.25
0,262,target,"[(1172, 822)]",[],[1],[0.6166666666666667],horizontal,"(390.0, 762.0)",0.55,0.572,1,1465.336,3,0.06,0.25
0,263,target,"[(1170, 799)]",[],[1],[0.6166666666666667],vertical,"(390.0, 762.0)",1.2333333333333334,0.59,1,1470.897,3,0.06,0.25
0,264,target,"[(1171, 817)]",[],[1],[0.48333333333333334],vertical,"(390.0, 762.0)",0.7333333333333333,0.446,1,1476.644,3,0.06,0.25
0,265,target,"[(1157, 811)]",[],[1],[0.2],horizontal,"(890.0, 762.0)",1.5333333333333332,0.166,0,1482.398,0,0.06,0.25
0,266,target,"[(1146, 801)]",[],[1],[0.7],vertical,"(390.0, 262.0)",1.3833333333333333,0.656,1,1486.781,1,0.06,0.25
0,267,target,"[(1170, 807)]",[],[1],[0.48333333333333334],horizontal,"(890.0, 262.0)",0.9666666666666667,0.445,1,1492.181,1,0.06,0.25
0,268,target,"[(1175, 789)]",[],[1],[0.6333333333333333],horizontal,"(390.0, 762.0)",1.2,0.592,1,1497.382,1,0.06,0.25
0,269,target,"[(1172, 795)]",[],[1],[0.4666666666666667],vertical,"(390.0, 262.0)",0.9166666666666666,0.428,1,1502.414,2,0.06,0.25
0,270,target,"[(1158, 784)]",[],[1],[0.5333333333333333],horizontal,"(890.0, 262.0)",0.7333333333333333,0.497,1,1507.306,2,0.06,0.25
0,271,catch,"[(1203, 801)]",[],[1],[],horizontal,"(390.0, 262.0)",1.7,nan,1,1512.231,2,0.06,0.25
0,272,target,"[(1175, 799)]",[],[1],[0.5],horizontal,"(390.0, 262.0)",0.48333333333333334,0.464,1,1518.081,2,0.06,0.25
0,273,catch,"[(1165, 799)]",[],[1],[],horizontal,"(890.0, 762.0)",1.7,nan,1,1523.214,3,0.06,0.25
0,274,target,"[(1160, 808)]",[],[1],[0.6833333333333333],vertical,"(390.0, 762.0)",1.3166666666666667,0.642,1,1529.564,3,0.06,0.25
0,275,target,"[(1160, 828)]",[],[1],[0.2833333333333333],vertical,"(390.0, 262.0)",1.4666666666666666,0.248,1,1535.414,3,0.06,0.25
0,276,target,"[(1175, 803)]",[],[1],[0.5333333333333333],horizontal,"(390.0, 762.0)",1.3,0.49,1,1541.731,3,0.06,0.25
0,277,target,"[(1170, 807)]",[],[1],[0.5333333333333333],horizontal,"(390.0, 762.0)",0.6333333333333333,0.496,1,1547.821,3,0.06,0.25
0,278,target,"[(1160, 793)]",[],[1],[0.2833333333333333],horizontal,"(390.0, 262.0)",1.0,0.248,1,1553.282,3,0.06,0.25
0,279,target,"[(1170, 795)]",[],[1],[0.5166666666666666],horizontal,"(390.0, 762.0)",1.2333333333333334,0.48,1,1558.814,3,0.06,0.25
0,280,target,"[(1158, 791)]",[],[1],[0.45],horizontal,"(890.0, 262.0)",1.2833333333333332,0.411,1,1564.834,3,0.06,0.25
0,281,target,"[(1175, 799)]",[],[1],[0.4166666666666667],vertical,"(890.0, 262.0)",1.4666666666666666,0.376,1,1570.965,3,0.06,0.25
0,282,catch,"[(1164, 793)]",[],[1],[],horizontal,"(390.0, 262.0)",1.7,nan,1,1576.998,3,0.06,0.25
0,283,catch,"[(1175, 796)]",[],[1],[],vertical,"(390.0, 762.0)",1.7,nan,1,1582.9,3,0.06,0.25
0,284,catch,"[(1162, 785)]",[],[1],[],horizontal,"(390.0, 262.0)",1.7,nan,1,1588.917,3,0.06,0.25
0,285,target,"[(1171, 778)]",[],[1],[0.5666666666666667],horizontal,"(890.0, 262.0)",0.7333333333333333,0.529,1,1594.702,3,0.06,0.25
0,286,catch,"[(1152, 807)]",[],[1],[],horizontal,"(890.0, 262.0)",1.7,nan,1,1600.247,3,0.04,0.25
0,287,target,"[(1151, 792)]",[],[1],[0.5833333333333334],vertical,"(890.0, 762.0)",0.7333333333333333,0.545,1,1605.985,3,0.04,0.25
0,288,target,"[(1171, 795)]",[],[1],[0.6333333333333333],vertical,"(390.0, 262.0)",1.1,0.59,1,1611.87,3,0.04,0.25
0,289,target,"[(1170, 803)]",[],[1],[0.6166666666666667],horizontal,"(390.0, 762.0)",1.0333333333333332,0.581,1,1617.999,3,0.04,0.25
0,290,target,"[(1160, 790)]",[],[1],[0.5333333333333333],vertical,"(390.0, 262.0)",0.5333333333333333,0.491,1,1623.598,3,0.02,0.25
0,291,target,"[(1166, 799)]",[],[1],[0.4666666666666667],vertical,"(390.0, 762.0)",0.8166666666666667,0.432,1,1628.946,3,0.02,0.25
0,292,catch,"[(1160, 791)]",[],[1],[],horizontal,"(390.0, 262.0)",1.7,nan,1,1634.416,3,0.02,0.25
0,293,target,"[(1168, 786)]",[],[1],[0.55],horizontal,"(390.0, 262.0)",1.3333333333333333,0.512,1,1640.299,3,0.02,0.25
0,294,target,"[(1159, 787)]",[],[1],[0.5833333333333334],vertical,"(390.0, 262.0)",0.7,0.541,1,1645.999,3,0.02,0.25
0,295,target,"[(1175, 791)]",[],[1],[0.4666666666666667],horizontal,"(390.0, 262.0)",1.4166666666666667,0.426,1,1651.753,3,0.02,0.25
0,296,target,"[(1166, 785)]",[],[1],[0.55],vertical,"(890.0, 762.0)",0.8,0.517,1,1657.665,3,0.02,0.25
0,297,target,"[(1170, 803)]",[],[1],[0.6166666666666667],horizontal,"(890.0, 262.0)",1.0,0.576,1,1663.333,3,0.02,0.25
0,298,target,"[(1155, 833)]",[],[1],[0.5166666666666666],vertical,"(890.0, 262.0)",1.4666666666666666,0.477,1,1669.356,3,0.02,0.25
0,299,target,"[(1175, 806)]",[],[1],[0.4666666666666667],horizontal,"(390.0, 262.0)",0.9166666666666666,0.434,1,1675.886,3,0.0,0.25
0,300,target,"[(1175, 792)]",[],[1],[0.6333333333333333],vertical,"(890.0, 262.0)",0.5666666666666667,0.592,1,1681.249,3,0.0,0.25
0,301,target,"[(1175, 790)]",[],[1],[0.5166666666666666],vertical,"(390.0, 262.0)",0.7,0.483,1,1686.753,3,0.0,0.25
0,302,target,"[(1158, 799)]",[],[1],[0.23333333333333334],vertical,"(890.0, 762.0)",1.5,0.195,0,1691.844,0,0.0,0.25
0,303,target,"[(1136, 807)]",[],[1],[0.55],vertical,"(390.0, 262.0)",1.05,0.52,1,1696.529,1,0.0,0.25
0,304,target,"[(1175, 818)]",[],[1],[0.85],horizontal,"(390.0, 762.0)",0.43333333333333335,nan,0,1701.821,0,0.0,0.25
0,305,target,"[(1160, 804)]",[],[1],[0.26666666666666666],vertical,"(890.0, 762.0)",1.5166666666666666,0.232,1,1706.148,1,0.0,0.25
0,306,catch,"[(1169, 829)]",[],[1],[],vertical,"(390.0, 762.0)",1.7,nan,1,1711.702,1,0.0,0.25
0,307,target,"[(1163, 793)]",[],[1],[0.5],horizontal,"(890.0, 262.0)",0.6333333333333333,0.461,1,1717.466,1,0.0,0.25
0,308,target,"[(1175, 793)]",[],[1],[0.3833333333333333],horizontal,"(890.0, 262.0)",1.1666666666666667,0.351,1,1721.957,2,0.0,0.25
0,309,target,"[(1157, 782)]",[],[1],[0.4166666666666667],vertical,"(890.0, 262.0)",1.3833333333333333,0.378,1,1727.64,2,0.0,0.25
0,310,catch,"[(1166, 813)]",[],[1],[],horizontal,"(390.0, 262.0)",1.7,nan,1,1733.671,2,0.0,0.25
0,311,catch,"[(1166, 806)]",[],[1],[],vertical,"(390.0, 262.0)",1.7,nan,1,1739.209,2,0.0,0.25
0,312,target,"[(1197, 793)]",[],[1],[0.2833333333333333],horizontal,"(390.0, 762.0)",1.4,0.244,1,1744.942,3,0.0,0.25
0,313,target,"[(1175, 791)]",[],[1],[0.48333333333333334],vertical,"(390.0, 762.0)",0.8833333333333333,0.442,1,1751.415,3,0.0,0.25
0,314,target,"[(1155, 795)]",[],[1],[0.4666666666666667],horizontal,"(890.0, 762.0)",1.0666666666666667,0.43,1,1757.204,3,0.0,0.25
0,315,catch,"[(1171, 792)]",[],[1],[],vertical,"(390.0, 762.0)",1.7,nan,1,1762.853,3,0.0,0.25
0,316,target,"[(1155, 818)]",[],[1],[0.5166666666666666],horizontal,"(390.0, 762.0)",0.8333333333333334,0.479,1,1768.847,3,0.0,0.25
0,317,catch,"[(1157, 789)]",[],[1],[],horizontal,"(890.0, 262.0)",1.7,nan,1,1774.726,3,0.0,0.25
0,318,target,"[(1158, 799)]",[],[1],[0.6],horizontal,"(390.0, 762.0)",0.4166666666666667,0.561,1,1780.715,3,0.0,0.25
0,319,catch,"[(1155, 817)]",[],[1],[],vertical,"(390.0, 762.0)",1.7,nan,1,1785.582,3,0.0,0.25
0,320,target,"[(1174, 784)]",[],[1],[0.36666666666666664],vertical,"(890.0, 762.0)",1.4,0.335,1,1791.693,3,0.0,0.25
0,321,target,"[(1157, 795)]",[],[1],[0.45],horizontal,"(390.0, 262.0)",0.9666666666666667,0.412,1,1797.67,3,0.0,0.25
0,322,target,"[(1155, 794)]",[],[1],[0.55],horizontal,"(390.0, 262.0)",0.5666666666666667,0.507,1,1802.848,3,0.0,0.25
0,323,catch,"[(1157, 793)]",[],[1],[],vertical,"(390.0, 762.0)",1.7,nan,1,1808.337,3,0.0,0.25
0,324,target,"[(1175, 803)]",[],[1],[0.5333333333333333],horizontal,"(890.0, 762.0)",0.5,0.493,1,1814.424,3,0.0,0.25
0,325,catch,"[(1163, 798)]",[],[1],[],vertical,"(390.0, 762.0)",1.7,nan,1,1820.032,3,0.0,0.25
0,326,catch,"[(1156, 793)]",[],[1],[],horizontal,"(390.0, 262.0)",1.7,nan,1,1825.933,3,0.0,0.25
0,327,target,"[(1175, 813)]",[],[1],[0.6],vertical,"(890.0, 262.0)",0.7333333333333333,0.571,1,1831.659,3,0.0,0.25
0,328,target,"[(1159, 799)]",[],[1],[0.5166666666666666],horizontal,"(390.0, 262.0)",0.9666666666666667,0.473,1,1837.117,3,0.0,0.25
0,329,target,"[(1159, 785)]",[],[1],[0.5333333333333333],horizontal,"(890.0, 762.0)",1.0,0.49,1,1842.773,3,0.0,0.25
0,330,target,"[(1175, 808)]",[],[1],[0.85],horizontal,"(390.0, 262.0)",0.85,nan,0,1848.632,0,0.0,0.25
0,331,catch,"[(1145, 800)]",[],[1],[],vertical,"(390.0, 262.0)",1.7,nan,1,1852.982,1,0.0,0.25
0,332,target,"[(1175, 789)]",[],[1],[0.26666666666666666],horizontal,"(390.0, 762.0)",1.45,0.231,1,1858.428,1,0.0,0.25
0,333,target,"[(1180, 774)]",[],[1],[0.4166666666666667],vertical,"(390.0, 762.0)",1.4,0.383,1,1863.664,1,0.0,0.25
0,334,target,"[(1010, 904)]",[],[1],[],vertical,"(890.0, 762.0)",,"('fix', 0.279)",0,1869.124,0,0.0,0.25
0,335,target,"[(1101, 839)]",[],[1],[],horizontal,"(890.0, 762.0)",,"('cti', 0.968)",0,3670.419,0,0.02,0.25
0,336,target,"[(1134, 844)]",[],[1],[0.5333333333333333],horizontal,"(890.0, 762.0)",1.4333333333333333,0.495,1,3674.762,1,0.02,0.25
0,337,target,"[(1135, 809)]",[],[1],[0.5666666666666667],horizontal,"(890.0, 762.0)",0.75,0.52,1,3984.71,1,0.02,0.25
0,338,target,"[(1174, 810)]",[],[1],[0.5833333333333334],vertical,"(390.0, 262.0)",0.36666666666666664,0.54,1,3989.596,1,0.02,0.25
0,339,target,"[(1178, 813)]",[],[1],[0.55],horizontal,"(390.0, 262.0)",0.7333333333333333,0.509,1,3993.805,2,0.02,0.25
0,340,catch,"[(1161, 798)]",[],[1],[],vertical,"(890.0, 762.0)",1.7,nan,1,3998.922,2,0.02,0.25
0,341,target,"[(1168, 816)]",[],[1],[0.6333333333333333],horizontal,"(390.0, 762.0)",1.25,0.594,1,4004.584,2,0.02,0.25
0,342,target,"[(1171, 787)]",[],[1],[0.6833333333333333],vertical,"(890.0, 262.0)",0.6166666666666667,0.64,1,4010.034,2,0.02,0.25
0,343,target,"[(1158, 788)]",[],[1],[0.85],vertical,"(390.0, 262.0)",0.43333333333333335,nan,0,4014.815,0,0.02,0.25
0,344,target,"[(1133, 823)]",[],[1],[0.85],vertical,"(390.0, 262.0)",0.36666666666666664,nan,0,4018.639,0,0.02,0.25
0,345,catch,"[(1134, 840)]",[],[1],[],horizontal,"(890.0, 762.0)",1.7,nan,1,4026.042,1,0.02,0.25
0,346,target,"[(1130, 836)]",[],[1],[0.31666666666666665],vertical,"(390.0, 262.0)",1.4333333333333333,0.282,1,4034.407,1,0.02,0.25
0,347,catch,"[(1170, 792)]",[],[1],[],vertical,"(890.0, 262.0)",1.7,nan,1,4042.611,1,0.02,0.25
0,348,catch,"[(1160, 806)]",[],[1],[],vertical,"(890.0, 262.0)",1.7,nan,1,4047.482,2,0.02,0.25
0,349,target,"[(1186, 809)]",[],[1],[0.6166666666666667],vertical,"(890.0, 262.0)",0.3833333333333333,0.576,1,4053.041,2,0.02,0.25
0,350,target,"[(1165, 803)]",[],[1],[0.55],horizontal,"(890.0, 762.0)",0.55,0.507,1,4057.741,2,0.02,0.25
0,351,target,"[(1179, 802)]",[],[1],[0.26666666666666666],vertical,"(890.0, 762.0)",1.5333333333333332,0.233,1,4062.89,2,0.02,0.25
0,352,catch,"[(1170, 816)]",[],[1],[],horizontal,"(890.0, 262.0)",1.7,nan,1,4068.392,3,0.02,0.25
0,353,target,"[(1160, 816)]",[],[1],[0.85],horizontal,"(390.0, 262.0)",1.5333333333333332,nan,0,4074.175,0,0.02,0.25
0,354,catch,"[(1148, 838)]",[],[1],[],vertical,"(390.0, 262.0)",,"('cti', 1.668),nan",0,4079.307,0,0.04,0.25
0,355,target,"[(1141, 813)]",[],[1],[0.6],vertical,"(390.0, 762.0)",1.4833333333333334,0.559,1,4084.434,1,0.04,0.25
0,356,target,"[(1172, 809)]",[],[1],[0.4666666666666667],horizontal,"(890.0, 762.0)",1.4,0.426,1,4090.041,1,0.04,0.25
0,357,target,"[(1173, 807)]",[],[1],[0.6833333333333333],vertical,"(390.0, 762.0)",1.0333333333333332,0.641,1,4095.591,1,0.04,0.25
0,358,catch,"[(1161, 805)]",[],[1],[],horizontal,"(390.0, 262.0)",,"('cti', 1.67),nan",0,4100.641,0,0.06,0.25
0,359,target,"[(1145, 815)]",[],[1],[0.4666666666666667],horizontal,"(890.0, 262.0)",1.5,0.427,1,4105.646,1,0.06,0.25
0,360,target,"[(1162, 807)]",[],[1],[0.85],vertical,"(390.0, 762.0)",0.8,nan,0,4111.062,0,0.06,0.25
0,361,target,"[(1126, 846)]",[],[1],[0.85],vertical,"(890.0, 762.0)",1.1666666666666667,nan,0,4115.375,0,0.06,0.25
0,362,catch,"[(1139, 817)]",[],[1],[],vertical,"(390.0, 762.0)",1.7,nan,1,4122.107,1,0.06,0.25
0,363,target,"[(1163, 805)]",[],[1],[0.75],vertical,"(390.0, 262.0)",1.2,0.707,1,4127.375,1,0.06,0.25
0,364,catch,"[(1169, 793)]",[],[1],[],vertical,"(890.0, 262.0)",,"('cti', 1.516),nan",0,4132.456,0,0.08,0.25
0,365,target,"[(1156, 803)]",[],[1],[0.5166666666666666],vertical,"(390.0, 762.0)",0.5833333333333334,0.476,1,4137.207,1,0.08,0.25
0,366,target,"[(1171, 808)]",[],[1],[0.5166666666666666],horizontal,"(890.0, 262.0)",1.1,0.476,1,4141.618,1,0.08,0.25
0,367,target,"[(1165, 816)]",[],[1],[0.85],horizontal,"(890.0, 762.0)",0.75,nan,0,4146.658,0,0.08,0.25
0,368,target,"[(1132, 812)]",[],[1],[0.5166666666666666],vertical,"(390.0, 262.0)",0.8,0.476,1,4151.508,1,0.08,0.25
0,369,target,"[(1170, 803)]",[],[1],[0.48333333333333334],vertical,"(890.0, 262.0)",0.9,0.443,1,4156.224,1,0.08,0.25
0,370,target,"[(1195, 804)]",[],[1],[0.48333333333333334],horizontal,"(890.0, 262.0)",1.3166666666666667,0.441,1,4160.741,1,0.08,0.25
0,371,target,"[(1174, 783)]",[],[1],[0.6],horizontal,"(890.0, 762.0)",1.2,0.559,1,4166.257,2,0.08,0.25
0,372,target,"[(1169, 807)]",[],[1],[0.43333333333333335],vertical,"(890.0, 262.0)",1.45,0.393,1,4172.091,2,0.08,0.25
0,373,target,"[(1171, 803)]",[],[1],[0.55],vertical,"(390.0, 262.0)",1.2,0.508,1,4177.688,2,0.08,0.25
0,374,target,"[(1168, 782)]",[],[1],[0.4],vertical,"(390.0, 762.0)",1.5,0.361,1,4183.706,2,0.08,0.25
0,375,target,"[(1163, 803)]",[],[1],[0.4166666666666667],vertical,"(890.0, 262.0)",1.3833333333333333,0.377,1,4189.175,3,0.08,0.25
0,376,target,"[(1158, 816)]",[],[1],[0.5333333333333333],horizontal,"(390.0, 262.0)",1.0166666666666666,0.493,1,4195.324,3,0.08,0.25
0,377,target,"[(1174, 795)]",[],[1],[0.4666666666666667],horizontal,"(390.0, 762.0)",1.35,0.423,1,4200.717,3,0.08,0.25
0,378,target,"[(1155, 792)]",[],[1],[0.5666666666666667],horizontal,"(890.0, 262.0)",0.8333333333333334,0.522,1,4206.558,3,0.08,0.25
0,379,target,"[(1172, 788)]",[],[1],[0.5666666666666667],vertical,"(890.0, 762.0)",0.7833333333333333,0.534,1,4212.176,3,0.08,0.25
0,380,target,"[(1171, 806)]",[],[1],[0.5666666666666667],vertical,"(890.0, 762.0)",1.0166666666666666,0.526,1,4217.709,3,0.08,0.25
0,381,catch,"[(1160, 791)]",[],[1],[],vertical,"(390.0, 762.0)",1.7,nan,1,4223.723,3,0.08,0.25
0,382,target,"[(1171, 801)]",[],[1],[0.3333333333333333],horizontal,"(890.0, 762.0)",1.4833333333333334,0.301,1,4229.842,3,0.08,0.25
0,383,target,"[(1170, 811)]",[],[1],[0.55],vertical,"(390.0, 762.0)",1.4166666666666667,0.509,1,4235.714,3,0.08,0.25
0,384,target,"[(1160, 800)]",[],[1],[0.55],vertical,"(390.0, 262.0)",0.5833333333333334,0.516,1,4241.601,3,0.08,0.25
0,385,target,"[(1166, 803)]",[],[1],[0.85],vertical,"(390.0, 262.0)",1.2166666666666666,nan,0,4246.775,0,0.06,0.25
0,386,target,"[(1136, 808)]",[],[1],[0.6],horizontal,"(890.0, 762.0)",0.9333333333333333,0.559,1,4251.447,1,0.06,0.25
0,387,target,"[(1164, 800)]",[],[1],[0.6166666666666667],horizontal,"(890.0, 762.0)",0.8,0.575,1,4256.69,1,0.06,0.25
0,388,catch,"[(1165, 803)]",[],[1],[],horizontal,"(890.0, 762.0)",1.7,nan,1,4261.393,1,0.06,0.25
0,389,catch,"[(1159, 801)]",[],[1],[],vertical,"(390.0, 262.0)",1.7,nan,1,4266.298,2,0.06,0.25
0,390,target,"[(1157, 787)]",[],[1],[0.55],vertical,"(890.0, 762.0)",0.7333333333333333,0.518,1,4271.765,2,0.06,0.25
0,391,catch,"[(1179, 799)]",[],[1],[],vertical,"(390.0, 262.0)",1.7,nan,1,4276.813,2,0.06,0.25
0,392,catch,"[(1169, 796)]",[],[1],[],horizontal,"(390.0, 262.0)",1.7,nan,1,4282.225,2,0.06,0.25
0,393,catch,"[(1170, 809)]",[],[1],[],vertical,"(890.0, 262.0)",1.7,nan,1,4287.55,3,0.06,0.25
0,394,target,"[(1164, 794)]",[],[1],[0.6833333333333333],vertical,"(890.0, 262.0)",1.5166666666666666,0.641,1,4293.849,3,0.06,0.25
0,395,target,"[(1153, 845)]",[],[1],[0.5],horizontal,"(390.0, 262.0)",0.95,0.461,1,4300.076,3,0.06,0.25
0,396,target,"[(1149, 806)]",[],[1],[0.5166666666666666],horizontal,"(890.0, 762.0)",0.85,0.478,1,4306.201,3,0.06,0.25
0,397,target,"[(1158, 791)]",[],[1],[0.5333333333333333],horizontal,"(390.0, 762.0)",1.2833333333333332,0.491,1,4312.181,3,0.06,0.25
0,398,target,"[(1172, 787)]",[],[1],[0.5833333333333334],horizontal,"(390.0, 262.0)",1.3,0.541,1,4317.926,3,0.06,0.25
0,399,target,"[(1158, 784)]",[],[1],[0.85],vertical,"(890.0, 262.0)",0.45,nan,0,4323.825,0,0.06,0.25
0,400,catch,"[(1158, 798)]",[],[1],[0.03333333333333333],horizontal,"(890.0, 762.0)",1.7,"0.018,nan",0,4328.32,0,0.08,0.25
0,401,catch,"[(1152, 822)]",[],[1],[],vertical,"(390.0, 762.0)",,"('cti', 1.535),nan",0,4333.127,0,0.1,0.25
0,402,target,"[(1138, 802)]",[],[1],[0.5333333333333333],vertical,"(390.0, 262.0)",0.95,0.494,1,4646.759,1,0.1,0.25
0,403,target,"[(1164, 804)]",[],[1],[0.6166666666666667],horizontal,"(390.0, 762.0)",1.45,0.576,1,4651.528,1,0.1,0.25
0,404,target,"[(1143, 809)]",[],[1],[0.5666666666666667],horizontal,"(390.0, 262.0)",1.0833333333333333,0.524,1,4656.844,1,0.08,0.25
0,405,catch,"[(1164, 816)]",[],[1],[],horizontal,"(390.0, 262.0)",1.7,nan,1,4662.777,2,0.08,0.25
0,406,target,"[(1166, 812)]",[],[1],[0.5333333333333333],horizontal,"(890.0, 762.0)",1.3666666666666667,0.491,1,4668.16,2,0.08,0.25
0,407,target,"[(1160, 800)]",[],[1],[0.55],horizontal,"(890.0, 762.0)",0.4166666666666667,0.512,1,4673.61,2,0.08,0.25
0,408,catch,"[(1189, 811)]",[],[1],[],vertical,"(890.0, 262.0)",1.7,nan,1,4678.228,2,0.06,0.25
0,409,target,"[(1167, 829)]",[],[1],[0.48333333333333334],vertical,"(890.0, 262.0)",0.4166666666666667,0.448,1,4683.694,3,0.06,0.25
0,410,target,"[(1166, 818)]",[],[1],[0.6166666666666667],horizontal,"(890.0, 262.0)",0.8833333333333333,0.572,1,4688.539,3,0.06,0.25
0,411,target,"[(1186, 815)]",[],[1],[0.5833333333333334],horizontal,"(890.0, 262.0)",0.7833333333333333,0.543,1,4693.843,3,0.06,0.25
0,412,catch,"[(1170, 808)]",[],[1],[],horizontal,"(890.0, 262.0)",1.7,nan,1,4699.56,3,0.06,0.25
0,413,target,"[(1174, 808)]",[],[1],[0.85],vertical,"(390.0, 762.0)",0.6833333333333333,nan,0,4705.66,0,0.06,0.25
0,414,catch,"[(1151, 824)]",[],[1],[],vertical,"(390.0, 762.0)",,"('cti', 1.502),nan",0,4709.776,0,0.06,0.25
0,415,target,"[(1156, 798)]",[],[1],[0.5333333333333333],vertical,"(390.0, 262.0)",1.4833333333333334,0.492,1,4714.634,1,0.06,0.25
0,416,target,"[(1169, 827)]",[],[1],[0.4666666666666667],vertical,"(890.0, 262.0)",0.9,0.429,1,4720.026,1,0.06,0.25
0,417,catch,"[(1160, 806)]",[],[1],[],vertical,"(890.0, 762.0)",1.7,nan,1,4724.611,1,0.06,0.25
0,418,target,"[(1169, 828)]",[],[1],[0.6666666666666666],vertical,"(390.0, 262.0)",0.7,0.626,1,4729.761,2,0.06,0.25
0,419,target,"[(1171, 812)]",[],[1],[0.4666666666666667],horizontal,"(390.0, 262.0)",0.5333333333333333,0.426,1,4735.494,2,0.06,0.25
0,420,target,"[(1161, 808)]",[],[1],[0.45],horizontal,"(390.0, 262.0)",1.0333333333333332,0.412,1,4740.646,2,0.06,0.25
0,421,target,"[(1181, 812)]",[],[1],[0.5333333333333333],horizontal,"(890.0, 762.0)",1.45,0.492,1,4746.275,2,0.06,0.25
0,422,target,"[(1177, 828)]",[],[1],[0.5833333333333334],vertical,"(390.0, 762.0)",1.0333333333333332,0.546,1,4752.527,3,0.06,0.25
0,423,catch,"[(1157, 795)]",[],[1],[],vertical,"(890.0, 262.0)",1.7,nan,1,4758.609,3,0.06,0.25
0,424,catch,"[(1183, 799)]",[],[1],[],horizontal,"(390.0, 762.0)",,"('cti', 1.502),nan",0,4764.343,0,0.08,0.25
0,425,catch,"[(1135, 802)]",[],[1],[],vertical,"(890.0, 762.0)",1.7,nan,1,4769.478,1,0.08,0.25
0,426,target,"[(1163, 808)]",[],[1],[0.6166666666666667],vertical,"(390.0, 262.0)",1.3666666666666667,0.573,1,4775.114,1,0.08,0.25
0,427,target,"[(1157, 812)]",[],[1],[0.85],horizontal,"(390.0, 262.0)",0.4,nan,0,4780.586,0,0.08,0.25
0,428,catch,"[(1140, 833)]",[],[1],[],horizontal,"(890.0, 262.0)",1.7,nan,1,4784.661,1,0.08,0.25
0,429,target,"[(1171, 807)]",[],[1],[0.5333333333333333],vertical,"(390.0, 762.0)",0.8833333333333333,0.493,1,4789.663,1,0.08,0.25
0,430,target,"[(1175, 828)]",[],[1],[0.5166666666666666],horizontal,"(390.0, 262.0)",0.45,0.47,1,4794.327,1,0.08,0.25
0,431,target,"[(1164, 820)]",[],[1],[0.5],vertical,"(390.0, 762.0)",0.7666666666666666,0.459,1,4798.684,2,0.08,0.25
0,432,target,"[(1160, 795)]",[],[1],[0.5],vertical,"(390.0, 762.0)",0.7333333333333333,0.46,1,4804.193,2,0.08,0.25
0,433,target,"[(1160, 812)]",[],[1],[0.55],horizontal,"(890.0, 762.0)",1.1833333333333333,0.51,1,4809.429,2,0.08,0.25
0,434,target,"[(1166, 806)]",[],[1],[0.7],vertical,"(390.0, 762.0)",1.1666666666666667,0.657,1,4815.06,2,0.08,0.25
0,435,target,"[(1162, 813)]",[],[1],[0.65],horizontal,"(890.0, 262.0)",0.7,0.607,1,4821.277,3,0.08,0.25
0,436,catch,"[(1164, 792)]",[],[1],[],horizontal,"(890.0, 762.0)",1.7,nan,1,4826.761,3,0.08,0.25
0,437,catch,"[(1169, 796)]",[],[1],[],vertical,"(890.0, 762.0)",1.7,nan,1,4832.311,3,0.08,0.25
0,438,target,"[(1159, 788)]",[],[1],[0.4666666666666667],vertical,"(890.0, 262.0)",1.4333333333333333,0.43,1,4838.332,3,0.08,0.25
0,439,target,"[(1180, 813)]",[],[1],[0.6333333333333333],horizontal,"(390.0, 762.0)",1.0333333333333332,0.587,1,4844.27,3,0.08,0.25
0,440,target,"[(1163, 799)]",[],[1],[0.6],vertical,"(390.0, 762.0)",0.4,0.555,1,4850.045,3,0.08,0.25
0,441,catch,"[(1162, 802)]",[],[1],[],horizontal,"(890.0, 762.0)",1.7,nan,1,4854.85,3,0.08,0.25
0,442,target,"[(1166, 795)]",[],[1],[0.5],vertical,"(390.0, 262.0)",0.7333333333333333,0.455,1,4860.711,3,0.08,0.25
0,443,target,"[(1153, 842)]",[],[1],[0.5],vertical,"(890.0, 262.0)",0.45,0.457,1,4865.995,3,0.08,0.25
0,444,catch,"[(1169, 806)]",[],[1],[],vertical,"(890.0, 262.0)",1.7,nan,1,4871.592,3,0.08,0.25
0,445,target,"[(1157, 790)]",[],[1],[0.5833333333333334],horizontal,"(390.0, 262.0)",0.4666666666666667,0.542,1,4877.197,3,0.08,0.25
0,446,target,"[(1169, 816)]",[],[1],[0.5],horizontal,"(890.0, 762.0)",1.35,0.466,1,4882.644,3,0.08,0.25
0,447,target,"[(1160, 793)]",[],[1],[0.5],horizontal,"(390.0, 262.0)",0.45,0.465,1,4888.794,3,0.08,0.25
0,448,target,"[(1169, 804)]",[],[1],[0.5333333333333333],vertical,"(390.0, 762.0)",0.6166666666666667,0.493,1,4893.826,3,0.08,0.25
0,449,target,"[(1202, 799)]",[],[1],[0.4666666666666667],vertical,"(390.0, 762.0)",1.2333333333333334,0.425,1,4899.065,3,0.08,0.25
0,450,target,"[(1157, 784)]",[],[1],[0.6],vertical,"(390.0, 262.0)",1.0833333333333333,0.569,1,4905.194,3,0.06,0.25
0,451,target,"[(1161, 787)]",[],[1],[0.55],vertical,"(390.0, 762.0)",1.0166666666666666,0.506,1,4911.311,3,0.04,0.25
0,452,target,"[(1180, 819)]",[],[1],[0.7666666666666666],horizontal,"(890.0, 762.0)",0.5166666666666666,0.719,1,4917.45,3,0.04,0.25
0,453,target,"[(1160, 798)]",[],[1],[0.5833333333333334],vertical,"(390.0, 262.0)",0.5166666666666666,0.545,1,4923.011,3,0.04,0.25
0,454,target,"[(1161, 799)]",[],[1],[0.85],vertical,"(390.0, 762.0)",0.6166666666666667,nan,0,4928.567,0,0.04,0.25
0,455,catch,"[(1124, 856)]",[],[1],[],horizontal,"(390.0, 762.0)",1.7,nan,1,4932.778,1,0.04,0.25
0,456,target,"[(1155, 815)]",[],[1],[0.48333333333333334],horizontal,"(890.0, 262.0)",1.4166666666666667,0.442,1,4938.676,1,0.04,0.25
0,457,target,"[(1160, 813)]",[],[1],[0.5],horizontal,"(890.0, 262.0)",0.36666666666666664,0.458,1,4944.511,1,0.04,0.25
0,458,target,"[(1166, 804)]",[],[1],[0.55],horizontal,"(890.0, 762.0)",0.7,0.508,1,4948.951,2,0.04,0.25
0,459,target,"[(1174, 811)]",[],[1],[0.55],horizontal,"(390.0, 762.0)",1.2333333333333334,0.51,1,4953.874,2,0.04,0.25
0,460,target,"[(1179, 811)]",[],[1],[0.65],horizontal,"(390.0, 762.0)",1.15,0.603,1,4959.244,2,0.04,0.25
0,461,target,"[(1181, 817)]",[],[1],[0.45],horizontal,"(390.0, 262.0)",0.6166666666666667,0.408,1,4964.877,2,0.04,0.25
0,462,catch,"[(1180, 824)]",[],[1],[],vertical,"(390.0, 262.0)",1.7,nan,1,4970.361,3,0.04,0.25
0,463,target,"[(1170, 808)]",[],[1],[0.6833333333333333],horizontal,"(390.0, 762.0)",1.0,0.64,1,4976.813,3,0.04,0.25
0,464,target,"[(1175, 784)]",[],[1],[0.85],horizontal,"(390.0, 762.0)",0.36666666666666664,nan,0,4982.644,0,0.02,0.25
0,465,target,"[(1187, 816)]",[],[1],[0.55],horizontal,"(390.0, 262.0)",0.4666666666666667,0.507,1,4986.728,1,0.02,0.25
0,466,target,"[(1160, 811)]",[],[1],[0.6],horizontal,"(390.0, 762.0)",0.35,0.556,1,4991.667,1,0.02,0.25
0,467,target,"[(1170, 790)]",[],[1],[0.6],vertical,"(390.0, 762.0)",1.0,0.559,1,4996.407,1,0.02,0.25
0,468,target,"[(1162, 822)]",[],[1],[0.5166666666666666],vertical,"(890.0, 762.0)",0.4666666666666667,0.472,1,5001.313,2,0.02,0.25
0,469,target,"[(1164, 814)]",[],[1],[0.65],horizontal,"(390.0, 762.0)",0.75,0.612,1,5006.662,2,0.02,0.25
0,470,target,"[(1172, 806)]",[],[1],[0.5666666666666667],horizontal,"(390.0, 762.0)",0.4166666666666667,0.535,1,5011.449,2,0.02,0.25
0,471,target,"[(1170, 808)]",[],[1],[0.11666666666666667],horizontal,"(390.0, 762.0)",1.4333333333333333,0.085,0,5016.628,0,0.02,0.25
0,472,target,"[(1156, 803)]",[],[1],[0.85],horizontal,"(890.0, 762.0)",0.85,nan,0,5021.744,0,0.02,0.25
0,473,catch,"[(1141, 784)]",[],[1],[],vertical,"(390.0, 262.0)",1.7,nan,1,5026.234,1,0.02,0.25
0,474,catch,"[(1163, 807)]",[],[1],[],vertical,"(890.0, 262.0)",1.7,nan,1,5031.911,1,0.0,0.25
0,475,target,"[(1161, 818)]",[],[1],[0.48333333333333334],vertical,"(890.0, 262.0)",1.0166666666666666,0.441,1,5036.944,1,0.0,0.25
0,476,target,"[(1198, 794)]",[],[1],[0.85],vertical,"(390.0, 262.0)",0.9333333333333333,nan,0,5042.315,0,0.0,0.25
0,477,catch,"[(1155, 831)]",[],[1],[],horizontal,"(890.0, 762.0)",1.7,nan,1,5047.111,1,0.0,0.25
0,478,target,"[(1174, 808)]",[],[1],[0.55],vertical,"(390.0, 262.0)",0.55,0.509,1,5052.722,1,0.0,0.25
0,479,catch,"[(1167, 813)]",[],[1],[],horizontal,"(890.0, 762.0)",1.7,nan,1,5057.446,1,0.0,0.25
0,480,target,"[(1199, 813)]",[],[1],[0.5666666666666667],horizontal,"(390.0, 262.0)",0.4666666666666667,0.525,1,5062.341,2,0.0,0.25
0,481,catch,"[(1181, 794)]",[],[1],[],horizontal,"(390.0, 762.0)",1.7,nan,1,5067.486,2,0.0,0.25
0,482,catch,"[(1160, 818)]",[],[1],[],vertical,"(390.0, 262.0)",,"('cti', 1.654),nan",0,5073.116,0,0.02,0.25
0,483,catch,"[(1141, 810)]",[],[1],[],vertical,"(390.0, 262.0)",1.7,nan,1,5077.828,1,0.02,0.25
0,484,target,"[(1167, 823)]",[],[1],[0.5],vertical,"(390.0, 262.0)",0.8666666666666667,0.456,1,5083.179,1,0.02,0.25
0,485,target,"[(1173, 856)]",[],[1],[0.5666666666666667],horizontal,"(390.0, 262.0)",0.7166666666666667,0.525,1,5087.862,1,0.02,0.25
0,486,target,"[(1169, 820)]",[],[1],[0.5],vertical,"(890.0, 262.0)",1.25,0.457,1,5092.879,2,0.02,0.25
0,487,target,"[(1166, 808)]",[],[1],[0.31666666666666665],horizontal,"(890.0, 262.0)",1.4833333333333334,0.279,1,5098.462,2,0.02,0.25
0,488,target,"[(1177, 815)]",[],[1],[0.5],horizontal,"(890.0, 262.0)",0.35,0.457,1,5104.134,2,0.02,0.25
0,489,target,"[(1170, 820)]",[],[1],[0.5833333333333334],vertical,"(890.0, 262.0)",1.2,0.543,1,5108.795,2,0.02,0.25
0,490,target,"[(1155, 823)]",[],[1],[0.85],vertical,"(390.0, 262.0)",0.4,nan,0,5114.515,0,0.02,0.25
0,491,target,"[(1132, 792)]",[],[1],[0.26666666666666666],horizontal,"(390.0, 262.0)",1.2666666666666666,0.23,1,5119.39,1,0.02,0.25
0,492,target,"[(1167, 818)]",[],[1],[0.5666666666666667],horizontal,"(390.0, 262.0)",1.2,0.526,1,5124.478,1,0.02,0.25
0,493,target,"[(1116, 804)]",[],[1],[0.4166666666666667],vertical,"(890.0, 262.0)",1.4166666666666667,0.378,1,5129.505,1,0.02,0.25
0,494,target,"[(1170, 798)]",[],[1],[0.85],vertical,"(890.0, 262.0)",0.9333333333333333,nan,0,5137.245,0,0.02,0.25
0,495,target,"[(1148, 876)]",[],[1],[0.55],horizontal,"(890.0, 262.0)",0.5,0.504,1,5141.824,1,0.02,0.25
0,496,target,"[(1153, 812)]",[],[1],[0.6333333333333333],horizontal,"(890.0, 262.0)",0.7166666666666667,0.594,1,5647.44,1,0.02,0.25
0,497,target,"[(1170, 816)]",[],[1],[0.6333333333333333],horizontal,"(390.0, 762.0)",0.5666666666666667,0.591,1,5652.474,1,0.02,0.25
0,498,target,"[(1156, 819)]",[],[1],[0.55],vertical,"(890.0, 262.0)",0.5166666666666666,0.511,1,5657.337,2,0.02,0.25
0,499,catch,"[(1175, 808)]",[],[1],[],horizontal,"(390.0, 762.0)",,"('cti', 1.663),nan",0,5662.266,0,0.04,0.25
0,500,catch,"[(1140, 822)]",[],[1],[],horizontal,"(890.0, 762.0)",1.7,nan,1,5666.797,1,0.04,0.25
0,501,catch,"[(1171, 804)]",[],[1],[],vertical,"(890.0, 762.0)",1.7,nan,1,5672.106,1,0.04,0.25
0,502,target,"[(1166, 821)]",[],[1],[0.43333333333333335],horizontal,"(890.0, 262.0)",1.5166666666666666,0.397,1,5677.614,1,0.04,0.25
0,503,target,"[(1155, 833)]",[],[1],[0.85],horizontal,"(390.0, 262.0)",1.3166666666666667,nan,0,5682.768,0,0.04,0.25
0,504,target,"[(1165, 842)]",[],[1],[0.5333333333333333],vertical,"(390.0, 762.0)",1.4166666666666667,0.493,1,5687.58,1,0.04,0.25
0,505,target,"[(1156, 842)]",[],[1],[0.6],horizontal,"(890.0, 262.0)",1.05,0.551,1,5700.997,1,0.04,0.25
0,506,target,"[(1160, 800)]",[],[1],[0.5333333333333333],horizontal,"(390.0, 762.0)",0.7666666666666666,0.492,1,5706.575,1,0.04,0.25
0,507,catch,"[(1170, 806)]",[],[1],[],horizontal,"(890.0, 262.0)",1.7,nan,1,5711.076,2,0.04,0.25
0,508,target,"[(1184, 803)]",[],[1],[0.55],vertical,"(390.0, 762.0)",0.45,0.507,1,5716.725,2,0.04,0.25
0,509,catch,"[(1159, 789)]",[],[1],[],horizontal,"(890.0, 762.0)",,"('cti', 1.595),nan",0,5721.198,0,0.06,0.25
0,510,target,"[(1135, 813)]",[],[1],[0.85],horizontal,"(890.0, 262.0)",0.5333333333333333,nan,0,5725.668,0,0.06,0.25
0,511,catch,"[(1135, 818)]",[],[1],[],horizontal,"(890.0, 762.0)",1.7,nan,1,5730.262,1,0.06,0.25
0,512,catch,"[(1160, 810)]",[],[1],[],vertical,"(390.0, 762.0)",,"('cti', 1.596),nan",0,5735.715,0,0.08,0.25
0,513,catch,"[(1131, 812)]",[],[1],[],vertical,"(890.0, 762.0)",1.7,nan,1,5740.549,1,0.08,0.25
0,514,target,"[(1170, 803)]",[],[1],[0.85],vertical,"(890.0, 762.0)",0.6666666666666666,nan,0,5745.681,0,0.08,0.25
0,515,target,"[(1155, 806)]",[],[1],[0.85],horizontal,"(390.0, 762.0)",1.15,nan,0,5749.821,0,0.08,0.25
0,516,target,"[(1144, 820)]",[],[1],[0.26666666666666666],vertical,"(890.0, 262.0)",1.4666666666666666,0.233,1,5754.677,1,0.08,0.25
0,517,target,"[(1159, 809)]",[],[1],[0.55],horizontal,"(390.0, 262.0)",1.15,0.513,1,5760.091,1,0.08,0.25
0,518,catch,"[(1171, 820)]",[],[1],[],horizontal,"(890.0, 262.0)",1.7,nan,1,5765.369,1,0.08,0.25
0,519,target,"[(1167, 820)]",[],[1],[0.4],vertical,"(890.0, 762.0)",1.4833333333333334,0.359,1,5770.197,2,0.08,0.25
0,520,target,"[(1164, 795)]",[],[1],[0.7166666666666667],horizontal,"(890.0, 762.0)",1.2166666666666666,0.668,1,5776.185,2,0.08,0.25
0,521,target,"[(1168, 812)]",[],[1],[0.7],horizontal,"(390.0, 762.0)",0.95,0.656,1,5781.948,2,0.08,0.25
0,522,target,"[(1171, 804)]",[],[1],[0.6166666666666667],horizontal,"(890.0, 762.0)",1.3666666666666667,0.574,1,5787.598,2,0.08,0.25
0,523,catch,"[(1193, 801)]",[],[1],[],horizontal,"(890.0, 762.0)",1.7,nan,1,5793.542,3,0.08,0.25
0,524,target,"[(1161, 823)]",[],[1],[0.5333333333333333],horizontal,"(390.0, 762.0)",1.0,0.498,1,5799.765,3,0.08,0.25
0,525,target,"[(1166, 809)]",[],[1],[0.5333333333333333],vertical,"(390.0, 762.0)",1.1333333333333333,0.488,1,5805.764,3,0.08,0.25
0,526,catch,"[(1164, 785)]",[],[1],[],vertical,"(390.0, 262.0)",1.7,nan,1,5811.682,3,0.08,0.25
0,527,target,"[(1146, 812)]",[],[1],[0.85],horizontal,"(890.0, 262.0)",0.4166666666666667,nan,0,5817.738,0,0.08,0.25
0,528,catch,"[(1145, 802)]",[],[1],[],vertical,"(890.0, 762.0)",1.7,nan,1,5822.647,1,0.08,0.25
0,529,catch,"[(1170, 798)]",[],[1],[],horizontal,"(390.0, 762.0)",1.7,nan,1,5828.21,1,0.08,0.25
0,530,target,"[(1170, 791)]",[],[1],[0.85],horizontal,"(890.0, 762.0)",0.55,nan,0,5833.398,0,0.08,0.25
0,531,target,"[(1159, 797)]",[],[1],[0.85],vertical,"(390.0, 762.0)",0.36666666666666664,nan,0,5837.788,0,0.08,0.25
0,532,target,"[(1159, 820)]",[],[1],[0.2],vertical,"(390.0, 762.0)",1.5333333333333332,0.169,0,5841.932,0,0.06,0.25
0,533,target,"[(1137, 806)]",[],[1],[0.5166666666666666],horizontal,"(890.0, 262.0)",0.65,0.473,1,5847.281,1,0.06,0.25
0,534,target,"[(1175, 802)]",[],[1],[0.7166666666666667],horizontal,"(890.0, 762.0)",1.1833333333333333,0.671,1,5852.37,1,0.06,0.25
0,535,target,"[(1157, 799)]",[],[1],[0.5166666666666666],vertical,"(390.0, 762.0)",0.4666666666666667,0.473,1,5857.844,1,0.06,0.25
0,536,target,"[(1159, 788)]",[],[1],[0.5833333333333334],horizontal,"(390.0, 762.0)",0.6,0.537,1,5861.891,2,0.06,0.25
0,537,target,"[(1161, 811)]",[],[1],[0.5],vertical,"(890.0, 262.0)",1.1,0.454,1,5866.814,2,0.06,0.25
0,538,target,"[(1165, 804)]",[],[1],[0.5666666666666667],horizontal,"(390.0, 762.0)",0.7,0.527,1,5872.298,2,0.06,0.25
0,539,catch,"[(1175, 789)]",[],[1],[],vertical,"(890.0, 762.0)",1.7,nan,1,5877.398,2,0.06,0.25
0,540,target,"[(1164, 792)]",[],[1],[0.5333333333333333],horizontal,"(890.0, 762.0)",1.15,0.493,1,5882.794,3,0.06,0.25
0,541,target,"[(1173, 797)]",[],[1],[0.4666666666666667],horizontal,"(890.0, 262.0)",1.45,0.427,1,5888.698,3,0.06,0.25
0,542,target,"[(1175, 817)]",[],[1],[0.6166666666666667],horizontal,"(390.0, 262.0)",0.75,0.575,1,5894.338,3,0.06,0.25
0,543,catch,"[(1164, 793)]",[],[1],[],horizontal,"(390.0, 262.0)",1.7,nan,1,5899.708,3,0.06,0.25
0,544,target,"[(1157, 794)]",[],[1],[0.55],vertical,"(890.0, 762.0)",1.1333333333333333,0.506,1,5905.448,3,0.06,0.25
0,545,target,"[(1161, 821)]",[],[1],[0.3],vertical,"(390.0, 262.0)",1.3666666666666667,0.27,1,5911.159,3,0.06,0.25
0,546,target,"[(1160, 795)]",[],[1],[0.5833333333333334],horizontal,"(390.0, 262.0)",0.7,0.543,1,5917.449,3,0.06,0.25
0,547,target,"[(1162, 804)]",[],[1],[0.5833333333333334],horizontal,"(890.0, 762.0)",1.3,0.537,1,5922.674,3,0.06,0.25
0,548,target,"[(1176, 806)]",[],[1],[0.85],horizontal,"(890.0, 762.0)",0.6333333333333333,nan,0,5928.836,0,0.06,0.25
0,549,target,"[(1159, 803)]",[],[1],[0.25],horizontal,"(390.0, 762.0)",1.5166666666666666,0.213,1,5933.27,1,0.04,0.25
0,550,target,"[(1176, 817)]",[],[1],[0.5333333333333333],horizontal,"(390.0, 762.0)",0.7,0.494,1,5938.932,1,0.04,0.25
0,551,target,"[(1170, 807)]",[],[1],[0.5833333333333334],vertical,"(390.0, 762.0)",0.4666666666666667,0.542,1,5943.215,1,0.04,0.25
0,552,target,"[(1164, 790)]",[],[1],[0.5166666666666666],vertical,"(890.0, 262.0)",0.8833333333333333,0.477,1,5947.891,2,0.04,0.25
0,553,target,"[(1170, 794)]",[],[1],[0.48333333333333334],vertical,"(390.0, 762.0)",1.4666666666666666,0.446,1,5953.382,2,0.04,0.25
0,554,target,"[(1181, 803)]",[],[1],[0.65],horizontal,"(390.0, 762.0)",0.6166666666666667,0.61,1,5959.318,2,0.04,0.25
0,555,catch,"[(1178, 805)]",[],[1],[],vertical,"(390.0, 762.0)",1.7,nan,1,5965.172,2,0.04,0.25
0,556,target,"[(1165, 802)]",[],[1],[0.48333333333333334],vertical,"(390.0, 262.0)",0.8166666666666667,0.454,1,5971.098,3,0.04,0.25
0,557,target,"[(1141, 813)]",[],[1],[0.48333333333333334],vertical,"(390.0, 762.0)",0.7166666666666667,0.446,1,5976.498,3,0.04,0.25
0,558,target,"[(1160, 791)]",[],[1],[0.55],horizontal,"(390.0, 762.0)",0.8666666666666667,0.509,1,5982.06,3,0.04,0.25
0,559,target,"[(1156, 803)]",[],[1],[0.55],vertical,"(890.0, 262.0)",0.85,0.513,1,5987.956,3,0.02,0.25
0,560,catch,"[(1175, 803)]",[],[1],[],horizontal,"(890.0, 262.0)",1.7,nan,1,5993.732,3,0.02,0.25
0,561,catch,"[(1158, 799)]",[],[1],[],vertical,"(890.0, 762.0)",1.7,nan,1,5999.902,3,0.02,0.25
0,562,catch,"[(1171, 810)]",[],[1],[],horizontal,"(390.0, 262.0)",1.7,nan,1,6005.726,3,0.0,0.25
0,563,catch,"[(1171, 815)]",[],[1],[],vertical,"(390.0, 262.0)",1.7,nan,1,6011.872,3,0.0,0.25
0,564,target,"[(1159, 779)]",[],[1],[0.5666666666666667],horizontal,"(390.0, 262.0)",0.48333333333333334,0.526,1,6017.616,3,0.0,0.25
0,565,catch,"[(1160, 832)]",[],[1],[],horizontal,"(390.0, 762.0)",,"('cti', 1.637),nan",0,6023.151,0,0.02,0.25
0,566,target,"[(1141, 801)]",[],[1],[0.85],horizontal,"(890.0, 262.0)",0.85,nan,0,6028.333,0,0.02,0.25
0,567,target,"[(1126, 810)]",[],[1],[0.5166666666666666],horizontal,"(390.0, 762.0)",0.7166666666666667,0.473,1,6032.883,1,0.02,0.25
0,568,target,"[(1180, 822)]",[],[1],[0.5666666666666667],vertical,"(390.0, 262.0)",1.25,0.523,1,6038.804,1,0.02,0.25
0,569,target,"[(1163, 804)]",[],[1],[0.6],horizontal,"(890.0, 262.0)",0.9833333333333333,0.562,1,6044.007,1,0.02,0.25
0,570,target,"[(1197, 809)]",[],[1],[0.5333333333333333],horizontal,"(390.0, 762.0)",0.7833333333333333,0.496,1,6048.766,2,0.02,0.25
0,571,catch,"[(1175, 813)]",[],[1],[],vertical,"(390.0, 262.0)",1.7,nan,1,6053.905,2,0.02,0.25
0,572,target,"[(1160, 822)]",[],[1],[0.6],vertical,"(890.0, 262.0)",0.7666666666666666,0.563,1,6059.194,2,0.02,0.25
0,573,catch,"[(1175, 808)]",[],[1],[],horizontal,"(390.0, 762.0)",,"('cti', 1.603),nan",0,6064.602,0,0.04,0.25
0,574,target,"[(1158, 808)]",[],[1],[0.6833333333333333],horizontal,"(890.0, 762.0)",1.1,0.637,1,6069.44,1,0.04,0.25
0,575,catch,"[(1164, 796)]",[],[1],[],horizontal,"(890.0, 762.0)",1.7,nan,1,6074.309,1,0.04,0.25
0,576,catch,"[(1171, 799)]",[],[1],[],vertical,"(390.0, 262.0)",1.7,nan,1,6079.484,1,0.04,0.25
0,577,target,"[(1169, 809)]",[],[1],[0.55],horizontal,"(890.0, 262.0)",1.1666666666666667,0.502,1,6084.833,2,0.04,0.25
0,578,catch,"[(1159, 800)]",[],[1],[],vertical,"(390.0, 262.0)",1.7,nan,1,6090.602,2,0.04,0.25
0,579,target,"[(1183, 821)]",[],[1],[0.5333333333333333],vertical,"(390.0, 262.0)",0.8166666666666667,0.491,1,6095.929,2,0.04,0.25
0,580,target,"[(1180, 808)]",[],[1],[0.5666666666666667],vertical,"(890.0, 262.0)",0.9,0.531,1,6101.199,2,0.04,0.25
0,581,target,"[(1187, 812)]",[],[1],[0.48333333333333334],horizontal,"(890.0, 262.0)",1.4333333333333333,0.444,1,6107.1,3,0.04,0.25
0,582,target,"[(1177, 801)]",[],[1],[0.5],vertical,"(890.0, 762.0)",1.0666666666666667,0.458,1,6113.7,3,0.04,0.25
0,583,target,"[(1170, 806)]",[],[1],[0.4166666666666667],vertical,"(390.0, 262.0)",1.4166666666666667,0.377,1,6119.05,3,0.04,0.25
0,584,target,"[(1175, 786)]",[],[1],[0.7333333333333333],horizontal,"(890.0, 762.0)",0.5833333333333334,0.69,1,6125.132,3,0.04,0.25
0,585,target,"[(1174, 802)]",[],[1],[0.6],horizontal,"(890.0, 262.0)",0.43333333333333335,0.563,1,6130.799,3,0.04,0.25
0,586,target,"[(1161, 797)]",[],[1],[0.6166666666666667],vertical,"(890.0, 762.0)",0.8333333333333334,0.569,1,6135.965,3,0.04,0.25
0,587,target,"[(1169, 802)]",[],[1],[0.55],horizontal,"(890.0, 262.0)",0.6333333333333333,0.515,1,6141.628,3,0.04,0.25
0,588,target,"[(1172, 802)]",[],[1],[0.5666666666666667],vertical,"(890.0, 762.0)",0.5666666666666667,0.521,1,6147.202,3,0.04,0.25
0,589,catch,"[(1166, 795)]",[],[1],[],vertical,"(390.0, 762.0)",,"('cti', 1.162),nan",0,6152.198,0,0.06,0.25
0,590,target,"[(1160, 787)]",[],[1],[0.85],vertical,"(390.0, 262.0)",0.8833333333333333,nan,0,6156.699,0,0.06,0.25
0,591,target,"[(1141, 800)]",[],[1],[0.5333333333333333],horizontal,"(390.0, 262.0)",1.0,0.493,1,6161.116,1,0.06,0.25
0,592,target,"[(1170, 818)]",[],[1],[0.5333333333333333],horizontal,"(890.0, 262.0)",0.75,0.489,1,6166.187,1,0.06,0.25
0,593,catch,"[(1172, 799)]",[],[1],[],horizontal,"(890.0, 262.0)",1.7,nan,1,6170.849,1,0.06,0.25
0,594,target,"[(1168, 815)]",[],[1],[0.6],horizontal,"(890.0, 262.0)",0.9,0.556,1,6175.8,2,0.06,0.25
0,595,target,"[(1175, 808)]",[],[1],[0.55],vertical,"(890.0, 762.0)",0.9833333333333333,0.507,1,6181.37,2,0.06,0.25
0,596,target,"[(1175, 805)]",[],[1],[0.5833333333333334],vertical,"(390.0, 762.0)",0.8,0.542,1,6186.824,2,0.06,0.25
0,597,target,"[(1157, 771)]",[],[1],[0.45],vertical,"(390.0, 262.0)",1.4833333333333334,0.409,1,6191.981,2,0.06,0.25
0,598,catch,"[(1161, 816)]",[],[1],[],horizontal,"(390.0, 262.0)",1.7,nan,1,6197.674,3,0.06,0.25
0,599,target,"[(1155, 792)]",[],[1],[0.6],vertical,"(390.0, 762.0)",0.65,0.562,1,6203.616,3,0.06,0.25
0,600,target,"[(1169, 808)]",[],[1],[0.6333333333333333],vertical,"(390.0, 262.0)",0.6666666666666666,0.588,1,6208.932,3,0.06,0.25
0,601,target,"[(1170, 809)]",[],[1],[0.6666666666666666],vertical,"(890.0, 262.0)",0.43333333333333335,0.622,1,6214.601,3,0.06,0.25
0,602,catch,"[(1171, 799)]",[],[1],[],vertical,"(390.0, 762.0)",1.7,nan,1,6219.619,3,0.06,0.25
0,603,target,"[(1158, 788)]",[],[1],[0.4],vertical,"(390.0, 762.0)",1.5,0.364,1,6225.199,3,0.06,0.25
0,604,target,"[(1173, 792)]",[],[1],[0.6166666666666667],vertical,"(890.0, 262.0)",0.6166666666666667,0.574,1,6231.317,3,0.06,0.25
0,605,target,"[(1173, 803)]",[],[1],[0.85],horizontal,"(890.0, 762.0)",0.75,nan,0,6236.656,0,0.06,0.25
0,606,target,"[(1149, 808)]",[],[1],[0.55],horizontal,"(890.0, 262.0)",0.36666666666666664,0.51,1,6241.222,1,0.06,0.25
0,607,catch,"[(1160, 808)]",[],[1],[],horizontal,"(890.0, 762.0)",1.7,nan,1,6245.706,1,0.06,0.25
0,608,target,"[(1160, 800)]",[],[1],[0.55],horizontal,"(890.0, 262.0)",0.36666666666666664,0.506,1,6251.067,1,0.06,0.25
0,609,target,"[(1172, 808)]",[],[1],[0.5166666666666666],vertical,"(390.0, 762.0)",0.8166666666666667,0.476,1,6255.658,2,0.06,0.25
0,610,catch,"[(1175, 808)]",[],[1],[],horizontal,"(390.0, 262.0)",1.7,nan,1,6260.872,2,0.06,0.25
0,611,catch,"[(1175, 796)]",[],[1],[],vertical,"(390.0, 262.0)",1.7,nan,1,6266.532,2,0.06,0.25
0,612,target,"[(1163, 804)]",[],[1],[0.6333333333333333],vertical,"(890.0, 262.0)",0.65,0.589,1,6271.933,2,0.06,0.25
0,613,target,"[(1170, 824)]",[],[1],[0.48333333333333334],horizontal,"(890.0, 262.0)",0.8333333333333334,0.443,1,6277.666,3,0.06,0.25
0,614,target,"[(1195, 801)]",[],[1],[0.55],vertical,"(890.0, 762.0)",1.0666666666666667,0.507,1,6283.742,3,0.06,0.25
0,615,catch,"[(1191, 796)]",[],[1],[],horizontal,"(390.0, 262.0)",1.7,nan,1,6289.75,3,0.04,0.25
0,616,target,"[(1175, 795)]",[],[1],[0.65],vertical,"(890.0, 262.0)",1.1,0.607,1,6296.132,3,0.04,0.25
0,617,target,"[(1163, 790)]",[],[1],[0.5333333333333333],vertical,"(890.0, 262.0)",0.85,0.494,1,6302.018,3,0.04,0.25
0,618,target,"[(1161, 801)]",[],[1],[0.65],vertical,"(390.0, 762.0)",0.5833333333333334,0.609,1,6307.846,3,0.04,0.25
0,619,target,"[(1175, 793)]",[],[1],[0.85],horizontal,"(890.0, 762.0)",0.45,nan,0,6313.651,0,0.04,0.25
0,620,target,"[(1160, 795)]",[],[1],[0.45],vertical,"(390.0, 762.0)",1.25,0.41,1,6317.96,1,0.04,0.25
0,621,target,"[(1156, 798)]",[],[1],[0.6],horizontal,"(890.0, 762.0)",1.0666666666666667,0.555,1,6323.2,1,0.04,0.25
0,622,target,"[(1171, 802)]",[],[1],[0.85],vertical,"(890.0, 262.0)",1.15,nan,0,6328.061,0,0.04,0.25
0,623,target,"[(1146, 792)]",[],[1],[0.85],vertical,"(390.0, 262.0)",0.5833333333333334,nan,0,6332.678,0,0.02,0.25
0,624,catch,"[(1132, 800)]",[],[1],[],vertical,"(390.0, 262.0)",1.7,nan,1,6337.502,1,0.02,0.25
0,625,target,"[(1169, 800)]",[],[1],[0.55],vertical,"(390.0, 262.0)",0.5666666666666667,0.507,1,6342.992,1,0.02,0.25
0,626,target,"[(1173, 785)]",[],[1],[0.35],vertical,"(890.0, 262.0)",1.35,0.315,1,6347.45,1,0.02,0.25
0,627,target,"[(1156, 814)]",[],[1],[0.5166666666666666],horizontal,"(890.0, 762.0)",0.43333333333333335,0.476,1,6352.707,2,0.02,0.25
0,628,target,"[(1159, 838)]",[],[1],[0.48333333333333334],horizontal,"(890.0, 262.0)",0.9666666666666667,0.444,1,6357.383,2,0.02,0.25
0,629,catch,"[(1168, 820)]",[],[1],[],horizontal,"(890.0, 262.0)",1.7,nan,1,6363.2,2,0.02,0.25
0,630,target,"[(1184, 819)]",[],[1],[0.5],horizontal,"(890.0, 262.0)",0.8833333333333333,0.457,1,6369.294,2,0.02,0.25
0,631,target,"[(1165, 815)]",[],[1],[0.5666666666666667],vertical,"(890.0, 762.0)",1.2666666666666666,0.524,1,6374.774,3,0.02,0.25
0,632,target,"[(1183, 787)]",[],[1],[0.5333333333333333],horizontal,"(890.0, 262.0)",0.6666666666666666,0.494,1,6380.8,3,0.02,0.25
0,633,target,"[(1172, 808)]",[],[1],[0.5333333333333333],vertical,"(890.0, 262.0)",0.4,0.49,1,6385.851,3,0.02,0.25
0,634,target,"[(1167, 803)]",[],[1],[0.4166666666666667],horizontal,"(390.0, 762.0)",1.1333333333333333,0.384,1,6391.494,3,0.02,0.25
0,635,catch,"[(1173, 798)]",[],[1],[],vertical,"(390.0, 262.0)",1.7,nan,1,6397.486,3,0.02,0.25
0,636,target,"[(1175, 810)]",[],[1],[0.4666666666666667],vertical,"(890.0, 262.0)",0.5333333333333333,0.425,1,6403.649,3,0.02,0.25
0,637,target,"[(1175, 802)]",[],[1],[0.26666666666666666],horizontal,"(390.0, 262.0)",1.45,0.232,1,6408.791,3,0.02,0.25
0,638,target,"[(1170, 803)]",[],[1],[0.11666666666666667],horizontal,"(390.0, 762.0)",1.45,0.086,0,6414.613,0,0.02,0.25
0,639,target,"[(1156, 802)]",[],[1],[0.6],horizontal,"(890.0, 762.0)",1.5,0.554,1,6419.167,1,0.0,0.25
0,640,target,"[(1170, 810)]",[],[1],[0.5833333333333334],vertical,"(390.0, 762.0)",0.9333333333333333,0.545,1,6424.583,1,0.0,0.25
0,641,target,"[(1153, 808)]",[],[1],[0.85],vertical,"(390.0, 262.0)",0.5166666666666666,nan,0,6429.21,0,0.0,0.25
0,642,target,"[(1141, 808)]",[],[1],[0.6],vertical,"(390.0, 762.0)",1.3833333333333333,0.562,1,6433.35,1,0.0,0.25
0,643,catch,"[(1175, 789)]",[],[1],[],horizontal,"(390.0, 262.0)",1.7,nan,1,6439.268,1,0.0,0.25
0,644,catch,"[(1172, 808)]",[],[1],[],vertical,"(390.0, 762.0)",1.7,nan,1,6444.683,1,0.0,0.25
0,645,target,"[(1179, 808)]",[],[1],[0.55],vertical,"(890.0, 762.0)",0.7666666666666666,0.502,1,6449.9,2,0.0,0.25
0,646,catch,"[(1170, 821)]",[],[1],[],vertical,"(390.0, 762.0)",1.7,nan,1,6455.068,2,0.0,0.25
0,647,target,"[(1190, 797)]",[],[1],[0.6166666666666667],vertical,"(390.0, 262.0)",1.15,0.575,1,6460.45,2,0.0,0.25
0,648,catch,"[(1137, 832)]",[],[1],[],horizontal,"(890.0, 762.0)",1.7,nan,1,6465.965,2,0.0,0.25
0,649,target,"[(1203, 829)]",[],[1],[0.5666666666666667],horizontal,"(890.0, 762.0)",0.6,0.524,1,6526.154,3,0.0,0.25
0,650,target,"[(1203, 812)]",[],[1],[0.6166666666666667],horizontal,"(390.0, 762.0)",0.6,0.573,1,6531.539,3,0.0,0.25
0,651,target,"[(1200, 808)]",[],[1],[0.2],horizontal,"(890.0, 262.0)",1.45,0.167,0,6537.233,0,0.0,0.25
0,652,catch,"[(1155, 799)]",[],[1],[],horizontal,"(890.0, 262.0)",1.7,nan,1,6542.034,1,0.0,0.25
0,653,target,"[(1166, 786)]",[],[1],[0.55],horizontal,"(890.0, 262.0)",0.4,0.503,1,6547.541,1,0.0,0.25
0,654,target,"[(1175, 806)]",[],[1],[0.65],vertical,"(390.0, 762.0)",1.2833333333333332,0.604,1,6552.334,1,0.0,0.25
0,655,catch,"[(1186, 809)]",[],[1],[],horizontal,"(390.0, 762.0)",1.7,nan,1,6557.901,2,0.0,0.25
0,656,target,"[(1202, 810)]",[],[1],[0.48333333333333334],vertical,"(890.0, 762.0)",1.1166666666666667,0.44,1,6563.55,2,0.0,0.25
0,657,target,"[(1199, 785)]",[],[1],[0.3],horizontal,"(390.0, 762.0)",1.5,0.261,1,6568.862,2,0.0,0.25
0,658,target,"[(1170, 817)]",[],[1],[0.7666666666666666],vertical,"(890.0, 762.0)",1.15,0.718,1,6574.735,2,0.0,0.25
0,659,target,"[(1175, 826)]",[],[1],[0.6],vertical,"(890.0, 262.0)",0.8,0.556,1,6581.067,3,0.0,0.25
0,660,target,"[(1202, 808)]",[],[1],[0.15],horizontal,"(390.0, 262.0)",1.3333333333333333,0.114,0,6587.078,0,0.0,0.25
0,661,catch,"[(1132, 819)]",[],[1],[],vertical,"(390.0, 262.0)",1.7,nan,1,6591.903,1,0.0,0.25
0,662,target,"[(1178, 807)]",[],[1],[0.55],horizontal,"(390.0, 762.0)",0.45,0.507,1,6597.288,1,0.0,0.25
0,663,target,"[(1184, 826)]",[],[1],[0.55],vertical,"(890.0, 262.0)",0.55,0.508,1,6601.351,1,0.0,0.25
0,664,target,"[(1175, 799)]",[],[1],[0.6166666666666667],horizontal,"(390.0, 762.0)",1.2666666666666666,0.571,1,6605.816,2,0.0,0.25
0,665,target,"[(1172, 812)]",[],[1],[0.6833333333333333],horizontal,"(390.0, 262.0)",0.85,0.639,1,6611.734,2,0.0,0.25
0,666,target,"[(1186, 798)]",[],[1],[0.85],horizontal,"(390.0, 762.0)",1.1333333333333333,nan,0,6617.152,0,0.0,0.25
0,667,target,"[(1159, 802)]",[],[1],[0.5166666666666666],vertical,"(890.0, 262.0)",1.2333333333333334,0.478,1,6621.868,1,0.0,0.25
0,668,target,"[(1181, 791)]",[],[1],[0.5333333333333333],horizontal,"(390.0, 762.0)",0.6833333333333333,0.493,1,6627.29,1,0.0,0.25
0,669,catch,"[(1172, 813)]",[],[1],[],vertical,"(890.0, 762.0)",1.7,nan,1,6632.384,1,0.0,0.25
0,670,target,"[(1174, 813)]",[],[1],[0.6833333333333333],vertical,"(390.0, 262.0)",0.3833333333333333,0.637,1,6637.7,2,0.0,0.25
0,671,target,"[(1202, 817)]",[],[1],[0.75],vertical,"(890.0, 762.0)",0.65,0.708,1,6643.185,2,0.0,0.25
0,672,target,"[(1203, 824)]",[],[1],[0.5166666666666666],vertical,"(890.0, 262.0)",0.35,0.47,1,6648.066,2,0.0,0.25
0,673,target,"[(1173, 817)]",[],[1],[0.5166666666666666],vertical,"(390.0, 762.0)",1.4166666666666667,0.478,1,6653.087,2,0.0,0.25
0,674,target,"[(1151, 810)]",[],[1],[0.65],vertical,"(890.0, 262.0)",0.6,0.607,1,6658.841,3,0.0,0.25
0,675,catch,"[(1169, 805)]",[],[1],[],horizontal,"(890.0, 262.0)",1.7,nan,1,6664.334,3,0.0,0.25
0,676,target,"[(1155, 814)]",[],[1],[0.48333333333333334],vertical,"(890.0, 262.0)",1.25,0.444,1,6670.369,3,0.0,0.25
0,677,target,"[(1167, 785)]",[],[1],[0.6166666666666667],vertical,"(390.0, 262.0)",1.2833333333333332,0.577,1,6677.184,3,0.0,0.25
0,678,target,"[(1170, 787)]",[],[1],[0.65],vertical,"(890.0, 262.0)",0.35,0.61,1,6683.444,3,0.0,0.25
0,679,target,"[(1170, 797)]",[],[1],[0.45],horizontal,"(390.0, 762.0)",1.4666666666666666,0.411,1,6688.668,3,0.0,0.25
0,680,target,"[(1203, 800)]",[],[1],[0.36666666666666664],horizontal,"(890.0, 762.0)",1.4,0.327,1,6695.051,3,0.0,0.25
0,681,target,"[(1166, 808)]",[],[1],[0.48333333333333334],vertical,"(890.0, 762.0)",1.45,0.437,1,6701.451,3,0.0,0.25
0,682,target,"[(1166, 803)]",[],[1],[0.85],horizontal,"(390.0, 762.0)",0.65,nan,0,6707.318,0,0.0,0.25
0,683,target,"[(1135, 798)]",[],[1],[0.6333333333333333],vertical,"(390.0, 762.0)",0.85,0.589,1,6711.652,1,0.0,0.25
0,684,target,"[(1175, 803)]",[],[1],[],horizontal,"(390.0, 262.0)",,"('cti', 1.247)",0,6716.884,0,0.02,0.25
0,685,target,"[(1156, 818)]",[],[1],[0.85],vertical,"(890.0, 262.0)",0.8333333333333334,nan,0,6721.478,0,0.02,0.25
0,686,catch,"[(1156, 813)]",[],[1],[],horizontal,"(390.0, 762.0)",1.7,nan,1,6726.484,1,0.02,0.25
0,687,target,"[(1168, 837)]",[],[1],[0.48333333333333334],horizontal,"(890.0, 762.0)",1.1333333333333333,0.442,1,7026.161,1,0.02,0.25
0,688,target,"[(1170, 828)]",[],[1],[0.6666666666666666],vertical,"(390.0, 762.0)",1.35,0.621,1,7030.993,1,0.02,0.25
0,689,target,"[(1167, 813)]",[],[1],[0.48333333333333334],vertical,"(390.0, 262.0)",0.5,0.441,1,7037.037,2,0.02,0.25
0,690,target,"[(1171, 795)]",[],[1],[0.85],horizontal,"(890.0, 262.0)",0.5333333333333333,nan,0,7042.053,0,0.02,0.25
0,691,target,"[(1150, 828)]",[],[1],[0.4666666666666667],horizontal,"(890.0, 262.0)",0.75,0.427,1,7046.602,1,0.02,0.25
0,692,target,"[(1151, 811)]",[],[1],[0.5166666666666666],vertical,"(890.0, 762.0)",0.48333333333333334,0.487,1,7051.687,1,0.02,0.25
0,693,catch,"[(1166, 816)]",[],[1],[],horizontal,"(390.0, 762.0)",1.7,nan,1,7056.302,1,0.02,0.25
0,694,catch,"[(1170, 809)]",[],[1],[],vertical,"(890.0, 262.0)",1.7,nan,1,7061.597,2,0.02,0.25
0,695,target,"[(1171, 803)]",[],[1],[0.5166666666666666],horizontal,"(390.0, 262.0)",1.1333333333333333,0.477,1,7067.394,2,0.02,0.25
0,696,catch,"[(1172, 820)]",[],[1],[],vertical,"(390.0, 762.0)",1.7,nan,1,7073.23,2,0.02,0.25
0,697,target,"[(1176, 820)]",[],[1],[0.5666666666666667],vertical,"(890.0, 762.0)",1.5,0.523,1,7078.702,2,0.02,0.25
0,698,target,"[(1176, 794)]",[],[1],[0.48333333333333334],horizontal,"(890.0, 262.0)",1.2,0.442,1,7084.869,3,0.02,0.25
0,699,catch,"[(1171, 790)]",[],[1],[],vertical,"(890.0, 762.0)",1.7,nan,1,7091.282,3,0.02,0.25
0,700,target,"[(1175, 803)]",[],[1],[0.85],vertical,"(390.0, 762.0)",0.6333333333333333,nan,0,7097.247,0,0.02,0.25
0,701,target,"[(1175, 804)]",[],[1],[0.5166666666666666],vertical,"(390.0, 262.0)",1.4666666666666666,0.472,1,7101.768,1,0.02,0.25
0,702,target,"[(1175, 783)]",[],[1],[0.55],vertical,"(390.0, 262.0)",1.2333333333333334,0.519,1,7107.553,1,0.02,0.25
0,703,target,"[(1179, 856)]",[],[1],[0.65],horizontal,"(890.0, 262.0)",1.4,0.605,1,7112.903,1,0.02,0.25
0,704,target,"[(1172, 789)]",[],[1],[0.5666666666666667],vertical,"(390.0, 762.0)",0.35,0.522,1,7118.318,2,0.02,0.25
0,705,catch,"[(1176, 808)]",[],[1],[],horizontal,"(890.0, 762.0)",1.7,nan,1,7123.019,2,0.02,0.25
0,706,catch,"[(1141, 817)]",[],[1],[0.03333333333333333],vertical,"(890.0, 762.0)",1.7,"0.019,nan",0,7128.412,0,0.04,0.25
0,707,target,"[(1153, 803)]",[],[1],[0.6166666666666667],horizontal,"(890.0, 762.0)",0.5833333333333334,0.573,1,7134.231,1,0.04,0.25
0,708,catch,"[(1175, 813)]",[],[1],[],horizontal,"(390.0, 262.0)",1.7,nan,1,7138.714,1,0.04,0.25
0,709,target,"[(1171, 789)]",[],[1],[0.6],horizontal,"(890.0, 762.0)",1.5,0.555,1,7143.937,1,0.04,0.25
0,710,catch,"[(1172, 818)]",[],[1],[],vertical,"(890.0, 762.0)",1.7,nan,1,7149.703,2,0.04,0.25
0,711,catch,"[(1175, 810)]",[],[1],[],horizontal,"(890.0, 762.0)",1.7,nan,1,7155.775,2,0.04,0.25
0,712,target,"[(1199, 806)]",[],[1],[0.48333333333333334],horizontal,"(890.0, 262.0)",1.05,0.445,1,7161.004,2,0.04,0.25
0,713,target,"[(1161, 812)]",[],[1],[0.5166666666666666],vertical,"(890.0, 262.0)",1.0833333333333333,0.479,1,7166.417,2,0.04,0.25
0,714,target,"[(1173, 821)]",[],[1],[0.5166666666666666],horizontal,"(390.0, 262.0)",0.6166666666666667,0.477,1,7172.029,3,0.04,0.25
0,715,target,"[(1201, 819)]",[],[1],[0.6],horizontal,"(890.0, 762.0)",0.65,0.561,1,7177.536,3,0.04,0.25
0,716,target,"[(1178, 816)]",[],[1],[0.6333333333333333],horizontal,"(390.0, 762.0)",0.5,0.587,1,7182.803,3,0.04,0.25
0,717,catch,"[(1170, 790)]",[],[1],[],horizontal,"(890.0, 762.0)",1.7,nan,1,7188.277,3,0.04,0.25
0,718,target,"[(1150, 853)]",[],[1],[0.5166666666666666],vertical,"(890.0, 762.0)",0.9166666666666666,0.483,1,7194.041,3,0.04,0.25
0,719,target,"[(1155, 808)]",[],[1],[0.6166666666666667],vertical,"(390.0, 762.0)",1.0666666666666667,0.572,1,7230.085,3,0.04,0.25
0,720,catch,"[(1180, 795)]",[],[1],[],vertical,"(890.0, 262.0)",1.7,nan,1,7236.152,3,0.04,0.25
0,721,target,"[(1204, 813)]",[],[1],[0.55],horizontal,"(390.0, 262.0)",0.8166666666666667,0.509,1,7242.303,3,0.04,0.25
0,722,catch,"[(1204, 824)]",[],[1],[],vertical,"(890.0, 762.0)",1.7,nan,1,7247.903,3,0.04,0.25
0,723,target,"[(1203, 829)]",[],[1],[0.85],vertical,"(890.0, 762.0)",0.48333333333333334,nan,0,7254.071,0,0.04,0.25
0,724,target,"[(1166, 810)]",[],[1],[0.85],vertical,"(390.0, 262.0)",0.9666666666666667,nan,0,7258.632,0,0.04,0.25
0,725,target,"[(1165, 809)]",[],[1],[0.7],horizontal,"(390.0, 762.0)",0.6833333333333333,0.652,1,7263.495,1,0.04,0.25
0,726,target,"[(1160, 796)]",[],[1],[0.5],horizontal,"(890.0, 762.0)",1.35,0.457,1,7268.603,1,0.04,0.25
0,727,target,"[(1170, 854)]",[],[1],[0.6],vertical,"(390.0, 762.0)",0.7333333333333333,0.556,1,7274.482,1,0.04,0.25
0,728,target,"[(1166, 814)]",[],[1],[0.55],horizontal,"(890.0, 262.0)",1.4,0.508,1,7279.621,2,0.04,0.25
0,729,catch,"[(1160, 869)]",[],[1],[],horizontal,"(390.0, 762.0)",,"('cti', 1.68),nan",0,7285.287,0,0.06,0.25
0,730,catch,"[(1164, 818)]",[],[1],[],horizontal,"(890.0, 262.0)",1.7,nan,1,7289.971,1,0.06,0.25
0,731,target,"[(1167, 816)]",[],[1],[0.5166666666666666],horizontal,"(890.0, 762.0)",1.4333333333333333,0.469,1,7295.237,1,0.06,0.25
0,732,target,"[(1206, 825)]",[],[1],[0.5333333333333333],horizontal,"(890.0, 762.0)",0.4166666666666667,0.495,1,7300.921,1,0.06,0.25
0,733,target,"[(1164, 823)]",[],[1],[0.6833333333333333],vertical,"(890.0, 762.0)",0.35,0.644,1,7305.621,2,0.06,0.25
0,734,target,"[(1167, 818)]",[],[1],[0.85],horizontal,"(890.0, 762.0)",0.6333333333333333,nan,0,7310.652,0,0.04,0.25
0,735,catch,"[(1151, 812)]",[],[1],[],vertical,"(390.0, 262.0)",1.7,nan,1,7314.976,1,0.04,0.25
0,736,target,"[(1160, 814)]",[],[1],[0.7833333333333333],horizontal,"(390.0, 262.0)",1.5166666666666666,0.735,1,7320.03,1,0.04,0.25
0,737,target,"[(1205, 814)]",[],[1],[0.85],vertical,"(390.0, 762.0)",0.7666666666666666,nan,0,7325.522,0,0.04,0.25
0,738,catch,"[(1168, 809)]",[],[1],[],vertical,"(890.0, 762.0)",1.7,nan,1,7330.002,1,0.04,0.25
0,739,target,"[(1204, 821)]",[],[1],[0.65],vertical,"(390.0, 262.0)",1.1666666666666667,0.603,1,7335.448,1,0.04,0.25
0,740,target,"[(1185, 818)]",[],[1],[0.5833333333333334],vertical,"(890.0, 262.0)",0.8333333333333334,0.547,1,7340.438,1,0.04,0.25
0,741,catch,"[(1201, 822)]",[],[1],[],vertical,"(390.0, 262.0)",1.7,nan,1,7345.649,2,0.04,0.25
0,742,target,"[(1186, 807)]",[],[1],[0.55],vertical,"(390.0, 762.0)",0.5,0.525,1,7351.508,2,0.04,0.25
0,743,target,"[(1200, 820)]",[],[1],[0.5333333333333333],vertical,"(390.0, 262.0)",0.55,0.493,1,7356.283,2,0.04,0.25
0,744,target,"[(1205, 816)]",[],[1],[0.6],horizontal,"(390.0, 762.0)",0.55,0.55,1,7361.6,2,0.04,0.25
0,745,target,"[(1201, 819)]",[],[1],[0.85],horizontal,"(390.0, 262.0)",1.35,nan,0,7367.039,0,0.04,0.25
0,746,catch,"[(1155, 808)]",[],[1],[],vertical,"(890.0, 762.0)",1.7,nan,1,7372.45,1,0.04,0.25
0,747,catch,"[(1205, 820)]",[],[1],[],horizontal,"(390.0, 762.0)",1.7,nan,1,7377.522,1,0.04,0.25
0,748,target,"[(1205, 808)]",[],[1],[0.5333333333333333],vertical,"(390.0, 262.0)",0.7666666666666666,0.492,1,7382.837,1,0.04,0.25
0,749,catch,"[(1204, 812)]",[],[1],[],horizontal,"(390.0, 762.0)",1.7,nan,1,7387.864,2,0.04,0.25
0,750,target,"[(1177, 786)]",[],[1],[0.5666666666666667],vertical,"(890.0, 762.0)",0.7833333333333333,0.524,1,7393.87,2,0.04,0.25
0,751,target,"[(1195, 804)]",[],[1],[0.5166666666666666],vertical,"(890.0, 762.0)",0.8833333333333333,0.475,1,7399.432,2,0.04,0.25
0,752,target,"[(1179, 807)]",[],[1],[0.55],horizontal,"(390.0, 262.0)",1.35,0.505,1,7404.715,2,0.04,0.25
0,753,catch,"[(1198, 801)]",[],[1],[],horizontal,"(390.0, 762.0)",1.7,nan,1,7410.488,3,0.04,0.25
0,754,catch,"[(1202, 816)]",[],[1],[],horizontal,"(890.0, 262.0)",1.7,nan,1,7416.575,3,0.04,0.25
0,755,target,"[(1190, 794)]",[],[1],[0.48333333333333334],vertical,"(890.0, 762.0)",1.0333333333333332,0.444,1,7422.653,3,0.04,0.25
0,756,target,"[(1201, 802)]",[],[1],[0.6833333333333333],horizontal,"(890.0, 762.0)",0.5,0.638,1,7428.821,3,0.02,0.25
0,757,target,"[(1170, 803)]",[],[1],[0.3333333333333333],vertical,"(890.0, 262.0)",1.3166666666666667,0.298,1,7434.538,3,0.02,0.25
0,758,target,"[(1175, 803)]",[],[1],[0.5],vertical,"(890.0, 762.0)",1.0166666666666666,0.461,1,7440.723,3,0.02,0.25
0,759,target,"[(1200, 822)]",[],[1],[0.6166666666666667],horizontal,"(390.0, 262.0)",0.9833333333333333,0.573,1,7446.893,3,0.02,0.25
0,760,target,"[(1204, 805)]",[],[1],[0.6333333333333333],vertical,"(390.0, 762.0)",1.0833333333333333,0.587,1,7453.089,3,0.02,0.25
0,761,target,"[(1205, 805)]",[],[1],[0.5166666666666666],vertical,"(390.0, 262.0)",0.6333333333333333,0.476,1,7459.272,3,0.02,0.25
0,762,catch,"[(1200, 820)]",[],[1],[],vertical,"(390.0, 762.0)",1.7,nan,1,7464.972,3,0.02,0.25
0,763,target,"[(1158, 837)]",[],[1],[0.5],horizontal,"(390.0, 262.0)",0.7,0.463,1,7471.071,3,0.02,0.25
0,764,catch,"[(1176, 819)]",[],[1],[],vertical,"(890.0, 262.0)",1.7,nan,1,7476.405,3,0.02,0.25
0,765,target,"[(1202, 812)]",[],[1],[0.5666666666666667],vertical,"(890.0, 762.0)",1.0333333333333332,0.527,1,7482.415,3,0.02,0.25
0,766,target,"[(1203, 815)]",[],[1],[0.5333333333333333],horizontal,"(390.0, 262.0)",0.48333333333333334,0.492,1,7488.168,3,0.02,0.25
0,767,catch,"[(1160, 824)]",[],[1],[],horizontal,"(390.0, 262.0)",1.7,nan,1,7493.462,3,0.02,0.25
0,768,target,"[(1174, 790)]",[],[1],[0.48333333333333334],vertical,"(890.0, 762.0)",1.0666666666666667,0.442,1,7499.638,3,0.02,0.25
0,769,target,"[(1191, 817)]",[],[1],[0.4666666666666667],vertical,"(890.0, 262.0)",1.0166666666666666,0.42,1,7505.804,3,0.02,0.25
0,770,target,"[(1199, 816)]",[],[1],[0.5166666666666666],horizontal,"(890.0, 262.0)",0.45,0.475,1,7511.355,3,0.02,0.25
0,771,target,"[(1211, 837)]",[],[1],[0.6833333333333333],horizontal,"(890.0, 262.0)",1.0666666666666667,0.639,1,7516.471,3,0.02,0.25
0,772,target,"[(1171, 806)]",[],[1],[0.6],horizontal,"(390.0, 262.0)",0.75,0.562,1,7523.43,3,0.02,0.25
0,773,target,"[(1201, 816)]",[],[1],[0.5],vertical,"(390.0, 262.0)",1.2,0.455,1,7528.85,3,0.02,0.25
0,774,target,"[(1174, 807)]",[],[1],[0.6],horizontal,"(890.0, 762.0)",0.7166666666666667,0.553,1,7534.938,3,0.02,0.25
0,775,target,"[(1174, 813)]",[],[1],[0.55],horizontal,"(890.0, 762.0)",0.6,0.508,1,7540.821,3,0.02,0.25
0,776,target,"[(1171, 815)]",[],[1],[0.5333333333333333],horizontal,"(390.0, 262.0)",0.6333333333333333,0.49,1,7546.528,3,0.02,0.25
0,777,target,"[(1203, 805)]",[],[1],[0.4666666666666667],vertical,"(890.0, 262.0)",1.0,0.431,1,7552.404,3,0.02,0.25
0,778,target,"[(1203, 809)]",[],[1],[0.5166666666666666],horizontal,"(890.0, 762.0)",0.7333333333333333,0.473,1,7557.754,3,0.02,0.25
0,779,target,"[(1180, 804)]",[],[1],[0.5166666666666666],horizontal,"(390.0, 762.0)",1.15,0.479,1,7563.254,3,0.0,0.25
0,780,target,"[(1205, 803)]",[],[1],[0.5166666666666666],horizontal,"(390.0, 262.0)",0.9,0.479,1,7569.186,3,0.0,0.25
0,781,target,"[(1171, 822)]",[],[1],[0.6833333333333333],vertical,"(890.0, 762.0)",1.0,0.636,1,7574.871,3,0.0,0.25
0,782,target,"[(1176, 812)]",[],[1],[0.3833333333333333],vertical,"(890.0, 762.0)",1.4166666666666667,0.346,1,7581.305,3,0.0,0.25
0,783,target,"[(1174, 801)]",[],[1],[0.48333333333333334],horizontal,"(890.0, 762.0)",1.3333333333333333,0.444,1,7587.938,3,0.0,0.25
0,784,target,"[(1198, 804)]",[],[1],[0.48333333333333334],horizontal,"(390.0, 762.0)",1.3333333333333333,0.443,1,7594.07,3,0.0,0.25
0,785,target,"[(1203, 811)]",[],[1],[0.6],vertical,"(890.0, 762.0)",0.8166666666666667,0.554,1,7600.031,3,0.0,0.25
0,786,target,"[(1205, 813)]",[],[1],[0.4],vertical,"(890.0, 262.0)",1.4333333333333333,0.36,1,7605.827,3,0.0,0.25
0,787,target,"[(1203, 789)]",[],[1],[0.5166666666666666],horizontal,"(390.0, 262.0)",0.7666666666666666,0.475,1,7612.092,3,0.0,0.25
0,788,target,"[(1202, 808)]",[],[1],[0.45],horizontal,"(890.0, 262.0)",0.9166666666666666,0.416,1,7617.684,3,0.0,0.25
0,789,catch,"[(1196, 791)]",[],[1],[],horizontal,"(390.0, 262.0)",,"('cti', 1.667),nan",0,7622.938,0,0.02,0.25
0,790,catch,"[(1193, 785)]",[],[1],[],vertical,"(390.0, 262.0)",1.7,nan,1,7627.656,1,0.02,0.25
0,791,target,"[(1175, 813)]",[],[1],[0.7666666666666666],vertical,"(890.0, 262.0)",0.48333333333333334,0.714,1,7632.723,1,0.02,0.25
0,792,target,"[(1175, 806)]",[],[1],[0.5333333333333333],vertical,"(390.0, 762.0)",0.7666666666666666,0.488,1,7637.456,1,0.02,0.25
0,793,target,"[(1204, 812)]",[],[1],[0.65],horizontal,"(890.0, 762.0)",1.1333333333333333,0.604,1,7642.606,2,0.02,0.25
0,794,target,"[(1202, 807)]",[],[1],[0.45],vertical,"(390.0, 262.0)",1.4,0.409,1,7648.206,2,0.02,0.25
0,795,target,"[(1179, 794)]",[],[1],[0.4666666666666667],vertical,"(890.0, 262.0)",0.5666666666666667,0.425,1,7654.251,2,0.02,0.25
0,796,catch,"[(1200, 816)]",[],[1],[],vertical,"(890.0, 762.0)",,"('cti', 1.617),nan",0,7659.438,0,0.04,0.25
0,797,target,"[(1168, 800)]",[],[1],[0.5833333333333334],horizontal,"(390.0, 762.0)",1.3166666666666667,0.536,1,7664.771,1,0.04,0.25
0,798,target,"[(1172, 832)]",[],[1],[0.85],horizontal,"(390.0, 762.0)",0.9333333333333333,nan,0,7670.185,0,0.04,0.25
0,799,target,"[(1175, 806)]",[],[1],[0.6166666666666667],vertical,"(390.0, 262.0)",0.7,0.574,1,7675.423,1,0.04,0.25
0,800,catch,"[(1177, 804)]",[],[1],[],horizontal,"(890.0, 262.0)",1.7,nan,1,7680.476,1,0.04,0.25
0,801,target,"[(1202, 798)]",[],[1],[0.5333333333333333],vertical,"(890.0, 762.0)",0.7666666666666666,0.492,1,7685.564,1,0.04,0.25
0,802,catch,"[(1200, 805)]",[],[1],[],horizontal,"(390.0, 262.0)",1.7,nan,1,7691.114,2,0.04,0.25
0,803,target,"[(1155, 795)]",[],[1],[0.5166666666666666],vertical,"(390.0, 762.0)",0.9333333333333333,0.475,1,7697.335,2,0.04,0.25
0,804,catch,"[(1203, 779)]",[],[1],[],horizontal,"(890.0, 262.0)",1.7,nan,1,7702.839,2,0.04,0.25
0,805,target,"[(1173, 817)]",[],[1],[0.5166666666666666],vertical,"(390.0, 262.0)",0.6833333333333333,0.471,1,7709.112,2,0.04,0.25
0,806,target,"[(1201, 823)]",[],[1],[0.48333333333333334],vertical,"(890.0, 262.0)",0.8333333333333334,0.442,1,7714.803,3,0.04,0.25
0,807,target,"[(1204, 799)]",[],[1],[0.48333333333333334],horizontal,"(390.0, 762.0)",1.0333333333333332,0.447,1,7720.84,3,0.04,0.25
0,808,catch,"[(1181, 809)]",[],[1],[],vertical,"(390.0, 762.0)",1.7,nan,1,7727.255,3,0.04,0.25
0,809,target,"[(1175, 804)]",[],[1],[0.5666666666666667],vertical,"(390.0, 762.0)",0.7166666666666667,0.523,1,7733.265,3,0.04,0.25
0,810,catch,"[(1151, 807)]",[],[1],[],vertical,"(390.0, 762.0)",1.7,nan,1,7739.106,3,0.04,0.25
0,811,target,"[(1200, 814)]",[],[1],[0.65],vertical,"(390.0, 262.0)",0.5166666666666666,0.605,1,7745.023,3,0.04,0.25
0,812,catch,"[(1202, 803)]",[],[1],[],horizontal,"(890.0, 762.0)",1.7,nan,1,7750.368,3,0.04,0.25
0,813,catch,"[(1181, 794)]",[],[1],[],horizontal,"(390.0, 262.0)",1.7,nan,1,7756.392,3,0.04,0.25
0,814,target,"[(1195, 794)]",[],[1],[0.5166666666666666],horizontal,"(890.0, 262.0)",1.4,0.477,1,7762.631,3,0.04,0.25
0,815,catch,"[(1180, 798)]",[],[1],[],vertical,"(390.0, 262.0)",1.7,nan,1,7768.773,3,0.04,0.25
0,816,catch,"[(1181, 798)]",[],[1],[],vertical,"(390.0, 262.0)",1.7,nan,1,7774.835,3,0.04,0.25
0,817,target,"[(1192, 782)]",[],[1],[0.48333333333333334],vertical,"(390.0, 762.0)",0.7666666666666666,0.441,1,7780.407,3,0.04,0.25
0,818,target,"[(1175, 829)]",[],[1],[0.48333333333333334],vertical,"(390.0, 262.0)",1.4,0.439,1,7786.189,3,0.04,0.25
0,819,target,"[(1180, 804)]",[],[1],"[0.85, 0.85]",horizontal,"(390.0, 762.0)",0.5,"0.793,nan",0,7792.13,0,0.04,0.25
0,820,target,"[(1180, 789)]",[],[1],[0.5],vertical,"(390.0, 262.0)",1.3833333333333333,0.457,1,7796.638,1,0.04,0.25
0,821,target,"[(1175, 805)]",[],[1],[0.35],horizontal,"(390.0, 762.0)",1.4833333333333334,0.313,1,7801.638,1,0.04,0.25
0,822,target,"[(1180, 798)]",[],[1],[0.55],horizontal,"(890.0, 762.0)",1.4166666666666667,0.505,1,7806.84,1,0.04,0.25
0,823,target,"[(1201, 807)]",[],[1],[0.5],vertical,"(890.0, 262.0)",0.4,0.455,1,7811.994,2,0.04,0.25
0,824,target,"[(1194, 807)]",[],[1],[0.6666666666666666],vertical,"(390.0, 762.0)",1.1666666666666667,0.619,1,7816.804,2,0.04,0.25
0,825,target,"[(1155, 804)]",[],[1],[0.6166666666666667],vertical,"(890.0, 762.0)",0.6833333333333333,0.573,1,7822.446,2,0.04,0.25
0,826,target,"[(1175, 829)]",[],[1],[0.45],horizontal,"(390.0, 762.0)",1.35,0.414,1,7827.723,2,0.04,0.25
0,827,target,"[(1173, 811)]",[],[1],[0.5166666666666666],horizontal,"(890.0, 262.0)",0.95,0.473,1,7833.605,3,0.04,0.25
0,828,target,"[(1177, 809)]",[],[1],[0.6],horizontal,"(890.0, 762.0)",0.5666666666666667,0.555,1,7839.352,3,0.04,0.25
0,829,target,"[(1180, 803)]",[],[1],[0.5833333333333334],horizontal,"(390.0, 262.0)",1.1833333333333333,0.537,1,7844.715,3,0.04,0.25
0,830,target,"[(1170, 798)]",[],[1],[0.31666666666666665],vertical,"(390.0, 762.0)",1.4,0.278,1,7850.485,3,0.04,0.25
0,831,target,"[(1161, 786)]",[],[1],[0.21666666666666667],horizontal,"(890.0, 762.0)",1.4833333333333334,0.18,0,7856.701,0,0.04,0.25
0,832,target,"[(1113, 836)]",[],[1],[0.85],horizontal,"(390.0, 762.0)",0.9166666666666666,nan,0,7861.362,0,0.04,0.25
0,833,target,"[(1131, 855)]",[],[1],[],vertical,"(890.0, 262.0)",,"('fix', 0.785)",0,9369.612,0,0.04,0.25
0,834,target,"[(1116, 848)]",[],[1],[0.55],vertical,"(890.0, 762.0)",0.9333333333333333,0.509,1,9373.812,1,0.04,0.25
0,835,target,"[(1081, 862), (1053, 936)]",[],"[1, 1]",[],horizontal,"(890.0, 262.0)",,"('fix', 0.516)",0,9378.77,0,0.04,0.25
0,836,catch,"[(1086, 846)]",[],[1],[],vertical,"(890.0, 762.0)",,"('cti', 1.146),nan",0,9381.105,0,0.06,0.25
0,837,target,"[(1169, 833)]",[],[1],[],horizontal,"(890.0, 262.0)",,"('cti', 0.786)",0,9385.822,0,0.08,0.25
0,838,catch,"[(1156, 823)]",[],[1],[],vertical,"(890.0, 762.0)",1.7,nan,1,9390.463,1,0.08,0.25
0,839,target,"[(1172, 839)]",[],[1],[0.75],horizontal,"(390.0, 262.0)",1.0333333333333332,0.708,1,9395.727,1,0.06,0.25
0,840,catch,"[(1126, 816)]",[],[1],[],horizontal,"(890.0, 762.0)",1.7,nan,1,9400.946,1,0.06,0.25
0,841,target,"[(1175, 830)]",[],[1],[0.85],horizontal,"(390.0, 262.0)",0.55,nan,0,9406.049,0,0.06,0.25
0,842,target,"[(1192, 817)]",[],[1],[0.7],horizontal,"(890.0, 762.0)",0.5333333333333333,0.656,1,9410.562,1,0.06,0.25
0,843,target,"[(1116, 860)]",[],[1],[0.7333333333333333],horizontal,"(890.0, 762.0)",0.35,0.693,1,9415.329,1,0.06,0.25
0,844,target,"[(1099, 847)]",[],[1],[0.55],horizontal,"(390.0, 262.0)",1.3666666666666667,0.506,1,9420.23,1,0.06,0.25
0,845,target,"[(1113, 820)]",[],[1],[0.6166666666666667],vertical,"(390.0, 762.0)",0.43333333333333335,0.577,1,9428.367,2,0.06,0.25
0,846,target,"[(1168, 829)]",[],[1],[0.85],horizontal,"(890.0, 762.0)",0.7833333333333333,nan,0,9433.492,0,0.04,0.25
0,847,target,"[(1165, 818)]",[],[1],[0.7333333333333333],vertical,"(890.0, 262.0)",0.3833333333333333,0.689,1,9438.519,1,0.04,0.25
0,848,target,"[(1164, 826)]",[],[1],[0.7166666666666667],horizontal,"(890.0, 262.0)",1.1833333333333333,0.675,1,9442.862,1,0.04,0.25
0,849,target,"[(1163, 819)]",[],[1],[],vertical,"(390.0, 762.0)",,"('cti', 0.21)",0,9448.13,0,0.06,0.25
0,850,target,"[(1126, 823)]",[],[1],[0.85],horizontal,"(890.0, 762.0)",0.65,nan,0,9451.08,0,0.06,0.25
0,851,target,"[(1165, 823)]",[],[1],[0.7333333333333333],horizontal,"(390.0, 762.0)",0.45,0.689,1,9455.658,1,0.06,0.25
0,852,target,"[(1161, 836)]",[],[1],[0.85],horizontal,"(890.0, 262.0)",1.4833333333333334,nan,0,9460.646,0,0.06,0.25
0,853,target,"[(1116, 790)]",[],[1],[0.85],horizontal,"(390.0, 762.0)",0.85,nan,0,9465.979,0,0.06,0.25
0,854,target,"[(1140, 816)]",[],[1],[0.85],horizontal,"(390.0, 262.0)",1.25,nan,0,9779.698,0,0.06,0.25
0,855,target,"[(1156, 812)]",[],[1],[0.6166666666666667],horizontal,"(890.0, 262.0)",1.5166666666666666,0.579,1,9784.406,1,0.06,0.25
0,856,target,"[(1146, 804)]",[],[1],[0.85],horizontal,"(390.0, 262.0)",1.2333333333333334,nan,0,9790.624,0,0.06,0.25
0,857,target,"[(1124, 819)]",[],[1],[0.6666666666666666],horizontal,"(390.0, 262.0)",1.4333333333333333,0.629,1,9795.96,1,0.06,0.25
0,858,target,"[(1156, 799)]",[],[1],[0.5833333333333334],horizontal,"(390.0, 262.0)",0.45,0.537,1,9803.324,1,0.06,0.25
0,859,catch,"[(1160, 806)]",[],[1],[],vertical,"(890.0, 262.0)",1.7,nan,1,9807.914,1,0.06,0.25
0,860,target,"[(1170, 824)]",[],[1],[0.85],horizontal,"(890.0, 762.0)",0.5,nan,0,9812.736,0,0.06,0.25
0,861,target,"[(1171, 825)]",[],[1],[0.85],vertical,"(390.0, 262.0)",0.6833333333333333,nan,0,9816.898,0,0.06,0.25
0,862,catch,"[(1170, 803)]",[],[1],[],horizontal,"(390.0, 262.0)",1.7,nan,1,9821.998,1,0.06,0.25
0,863,catch,"[(1167, 832)]",[],[1],[],vertical,"(890.0, 262.0)",1.7,nan,1,9827.096,1,0.06,0.25
0,864,target,"[(1151, 836)]",[],[1],[0.5],vertical,"(390.0, 762.0)",1.1166666666666667,0.458,1,9832.714,1,0.06,0.25
0,865,target,"[(1169, 817)]",[],[1],[0.5],horizontal,"(890.0, 762.0)",0.9166666666666666,0.463,1,9838.459,2,0.06,0.25
0,866,catch,"[(1164, 792)]",[],[1],[],horizontal,"(890.0, 762.0)",1.7,nan,1,9844.214,2,0.06,0.25
