block,trial,trial_type,taps_start_loc_during_fix,taps_end_loc_during_fix,taps_on_lever_during_fix,taps_on_lever_s_during_fix,bar_orientation,target_xy,cti,rt,acc,time,pulses,fa_rate_recent100,actual_invalid_type
0,1,catch,"[(1119, 857)]",[],[1],[],vertical,"(390.0, 262.0)",1.7,nan,1,0.544,1,0.0,same
0,2,valid,"[(1124, 806)]",[],[1],[0.85],vertical,"(390.0, 762.0)",0.45,nan,0,9.264,0,0.0,same
0,3,valid,"[(1140, 819)]",[],[1],[0.5666666666666667],vertical,"(390.0, 262.0)",0.7666666666666666,0.522,1,539.63,1,0.0,same
0,4,catch,"[(1193, 768)]",[],[1],[],vertical,"(390.0, 262.0)",1.7,nan,1,545.777,1,0.0,same
0,5,valid,"[(1170, 800)]",[],[1],[0.85],horizontal,"(390.0, 762.0)",0.5666666666666667,nan,0,550.765,0,0.0,same
0,6,catch,"[(1145, 806)]",[],[1],[],horizontal,"(390.0, 262.0)",1.7,nan,1,555.413,1,0.0,same
0,7,catch,"[(1173, 801)]",[],[1],[],horizontal,"(890.0, 762.0)",1.7,nan,1,584.997,1,0.0,same
0,8,valid,"[(1166, 778)]",[],[1],[0.5],horizontal,"(890.0, 762.0)",0.35,0.46,1,589.896,1,0.0,same
0,9,valid,"[(1194, 794)]",[],[1],[],vertical,"(390.0, 762.0)",,"('cti', 0.099)",0,594.562,0,0.0,same
0,10,valid,"[(1135, 774)]",[],[1],[0.5],horizontal,"(390.0, 262.0)",1.0333333333333332,0.461,1,598.055,1,0.0,same
0,11,valid,"[(1164, 789)]",[],[1],[0.5166666666666666],horizontal,"(390.0, 762.0)",1.25,0.477,1,603.099,1,0.0,same
0,12,valid,"[(1160, 802)]",[],[1],[0.48333333333333334],horizontal,"(390.0, 262.0)",0.8166666666666667,0.44,1,608.096,1,0.0,same
0,13,valid,"[(1155, 797)]",[],[1],[0.5833333333333334],vertical,"(390.0, 262.0)",0.45,0.54,1,612.512,2,0.0,same
0,14,valid,"[(1165, 811)]",[],[1],[0.7166666666666667],vertical,"(890.0, 262.0)",0.7166666666666667,0.672,1,617.097,2,0.0,same
0,15,valid,"[(1161, 786)]",[],[1],[0.36666666666666664],vertical,"(390.0, 262.0)",0.7166666666666667,0.327,1,622.535,2,0.0,same
0,16,valid,"[(1187, 814)]",[],[1],[0.5166666666666666],vertical,"(390.0, 262.0)",0.6833333333333333,0.474,1,627.556,3,0.0,same
0,17,valid,"[(1134, 821)]",[],[1],[0.5333333333333333],horizontal,"(890.0, 262.0)",1.2666666666666666,0.489,1,633.43,3,0.0,same
0,18,valid,"[(1194, 819)]",[],[1],[0.6],vertical,"(890.0, 762.0)",1.0333333333333332,0.555,1,639.564,3,0.0,same
0,19,valid,"[(1172, 794)]",[],[1],[0.6333333333333333],horizontal,"(890.0, 762.0)",0.5666666666666667,0.587,1,645.714,3,0.0,same
0,20,catch,"[(1171, 799)]",[],[1],[],vertical,"(890.0, 262.0)",1.7,nan,1,651.381,3,0.0,same
0,21,valid,"[(1166, 797)]",[],[1],[0.48333333333333334],horizontal,"(890.0, 262.0)",1.4833333333333334,0.442,1,657.031,3,0.0,same
0,22,valid,"[(1159, 785)]",[],[1],[0.6666666666666666],vertical,"(390.0, 262.0)",0.5833333333333334,0.615,1,663.93,3,0.0,same
0,23,invalid_same_bar,"[(1187, 795)]",[],[1],[0.5166666666666666],horizontal,"(390.0, 762.0)",0.6166666666666667,0.477,1,669.547,3,0.0,same
0,24,valid,"[(1186, 802)]",[],[1],[0.3333333333333333],horizontal,"(390.0, 762.0)",0.35,0.299,1,674.748,3,0.0,same
0,25,valid,"[(1139, 796)]",[],[1],[0.3333333333333333],vertical,"(890.0, 262.0)",1.5166666666666666,0.293,1,679.507,3,0.0,same
0,26,valid,"[(1159, 821)]",[],[1],[0.75],horizontal,"(890.0, 762.0)",0.75,0.7,1,685.895,3,0.0,same
0,27,catch,"[(1144, 806)]",[],[1],[],horizontal,"(390.0, 762.0)",1.7,nan,1,700.955,3,0.0,same
0,28,valid,"[(1170, 812)]",[],[1],[0.6],vertical,"(390.0, 762.0)",0.8666666666666667,0.559,1,707.097,3,0.0,same
0,29,valid,"[(1179, 792)]",[],[1],[0.4666666666666667],horizontal,"(390.0, 262.0)",1.5,0.427,1,713.095,3,0.0,same
0,30,valid,"[(1170, 773)]",[],[1],[0.31666666666666665],horizontal,"(890.0, 262.0)",1.5,0.279,1,719.42,3,0.0,same
0,31,valid,"[(1184, 806)]",[],[1],[0.5833333333333334],vertical,"(390.0, 262.0)",1.5166666666666666,0.54,1,725.581,3,0.0,same
0,32,catch,"[(1169, 790)]",[],[1],[],horizontal,"(890.0, 762.0)",1.7,nan,1,731.98,3,0.0,same
0,33,invalid_adjacent_other_bar,"[(1166, 788)]",[],[1],[0.85],horizontal,"(890.0, 762.0)",1.3,nan,0,738.097,0,0.0,other
0,34,valid,"[(1135, 790)]",[],[1],[0.5333333333333333],vertical,"(390.0, 262.0)",0.5666666666666667,0.487,1,742.829,1,0.0,same
0,35,invalid_same_bar,"[(1160, 794)]",[],[1],[0.55],horizontal,"(890.0, 762.0)",1.1666666666666667,0.513,1,747.5,1,0.0,same
0,36,catch,"[(1181, 778)]",[],[1],[],horizontal,"(890.0, 262.0)",,"('cti', 1.559),nan",0,752.705,0,0.027777777777777776,same
0,37,invalid_adjacent_other_bar,"[(1134, 813)]",[],[1],[0.45],vertical,"(890.0, 762.0)",1.3833333333333333,0.414,1,757.099,1,0.02702702702702703,other
0,38,valid,"[(1168, 797)]",[],[1],[0.5833333333333334],vertical,"(390.0, 762.0)",0.7666666666666666,0.542,1,853.965,1,0.02631578947368421,same
0,39,valid,"[(1142, 807)]",[],[1],[0.5],vertical,"(890.0, 762.0)",0.9333333333333333,0.459,1,859.1,1,0.02564102564102564,same
0,40,valid,"[(1155, 807)]",[],[1],[0.5333333333333333],vertical,"(390.0, 262.0)",1.35,0.494,1,864.265,2,0.025,same
0,41,valid,"[(1162, 796)]",[],[1],[0.85],horizontal,"(890.0, 762.0)",1.1333333333333333,nan,0,870.333,0,0.024390243902439025,same
0,42,valid,"[(1153, 806)]",[],[1],[0.85],horizontal,"(390.0, 762.0)",0.43333333333333335,nan,0,875.331,0,0.023809523809523808,same
0,43,valid,"[(1133, 816)]",[],[1],[0.6],vertical,"(390.0, 762.0)",1.25,0.557,1,879.698,1,0.023255813953488372,same
0,44,valid,"[(1170, 806)]",[],[1],[0.5166666666666666],vertical,"(390.0, 762.0)",1.2666666666666666,0.474,1,884.91,1,0.022727272727272728,same
0,45,catch,"[(1175, 756)]",[],[1],[],horizontal,"(890.0, 762.0)",1.7,nan,1,890.28,1,0.022222222222222223,same
0,46,valid,"[(1180, 783)]",[],[1],[0.5333333333333333],vertical,"(390.0, 762.0)",0.7166666666666667,0.486,1,895.282,2,0.021739130434782608,same
0,47,valid,"[(1190, 784)]",[],[1],[0.5],horizontal,"(390.0, 762.0)",0.5,0.454,1,900.798,2,0.02127659574468085,same
0,48,invalid_same_bar,"[(1182, 767)]",[],[1],[0.85],horizontal,"(390.0, 762.0)",0.4666666666666667,nan,0,905.756,0,0.020833333333333332,same
0,49,catch,"[(1163, 779)]",[],[1],[],vertical,"(390.0, 762.0)",1.7,nan,1,910.22,1,0.02040816326530612,same
0,50,valid,"[(1179, 781)]",[],[1],[0.85],vertical,"(390.0, 762.0)",0.5666666666666667,nan,0,915.515,0,0.02,same
0,51,valid,"[(1141, 759)]",[],[1],[0.48333333333333334],horizontal,"(390.0, 762.0)",0.6,0.444,1,919.448,1,0.02,same
0,52,valid,"[(1183, 748), (1199, 739), (1165, 813)]",[],"[0, 0, 1]",[0.5],vertical,"(890.0, 262.0)",1.2166666666666666,0.467,1,924.436,1,0.02,same
0,53,invalid_adjacent_other_bar,"[(1180, 762)]",[],[1],[0.5],vertical,"(390.0, 262.0)",0.43333333333333335,0.466,1,930.557,1,0.02,other
0,54,valid,"[(1190, 799)]",[],[1],[0.6666666666666666],vertical,"(390.0, 262.0)",1.2333333333333334,0.624,1,934.665,2,0.02,same
0,55,valid,"[(1185, 790)]",[],[1],[0.48333333333333334],vertical,"(890.0, 762.0)",1.0666666666666667,0.444,1,940.504,2,0.02,same
0,56,valid,"[(1188, 787)]",[],[1],[0.5],horizontal,"(890.0, 262.0)",0.9666666666666667,0.459,1,945.826,2,0.02,same
0,57,valid,"[(1167, 783)]",[],[1],[0.55],horizontal,"(390.0, 262.0)",0.75,0.513,1,951.235,3,0.02,same
0,58,valid,"[(1210, 798)]",[],[1],[],vertical,"(890.0, 762.0)",,"('fix', 0.198)",0,956.673,0,0.02,same
0,59,invalid_adjacent_other_bar,"[(1095, 772)]",[],[1],[0.55],vertical,"(390.0, 262.0)",0.7,0.514,1,958.413,1,0.02,other
0,60,invalid_adjacent_other_bar,"[(1192, 771)]",[],[1],[0.85],vertical,"(390.0, 262.0)",1.1333333333333333,nan,0,963.081,0,0.02,other
0,61,valid,"[(1170, 756)]",[],[1],[0.65],vertical,"(390.0, 262.0)",1.2333333333333334,0.611,1,968.115,1,0.02,same
0,62,valid,"[(1180, 797)]",[],[1],[0.5666666666666667],horizontal,"(890.0, 762.0)",1.2666666666666666,0.521,1,973.149,1,0.02,same
0,63,catch,"[(1187, 769)]",[],[1],[],horizontal,"(890.0, 262.0)",1.7,nan,1,978.693,1,0.02,same
0,64,catch,"[(1172, 764)]",[],[1],[],horizontal,"(390.0, 262.0)",1.7,"('cti', 1.688),nan",0,983.786,0,0.04,same
0,65,valid,"[(1194, 808)]",[],[1],[0.5333333333333333],vertical,"(890.0, 762.0)",1.1666666666666667,0.495,1,988.793,1,0.04,same
0,66,catch,"[(1195, 787)]",[],[1],[],vertical,"(390.0, 262.0)",1.7,nan,1,993.915,1,0.04,same
0,67,valid,"[(1172, 761)]",[],[1],[0.6],horizontal,"(890.0, 762.0)",1.3,0.559,1,998.682,1,0.04,same
0,68,valid,"[(1189, 791)]",[],[1],[0.48333333333333334],vertical,"(390.0, 762.0)",0.7666666666666666,0.443,1,1004.315,2,0.04,same
0,69,valid,"[(1185, 801)]",[],[1],[0.6333333333333333],horizontal,"(390.0, 762.0)",1.0166666666666666,0.597,1,1009.248,2,0.04,same
0,70,catch,"[(1194, 791)]",[],[1],[],vertical,"(390.0, 262.0)",1.7,nan,1,1014.465,2,0.04,same
0,71,valid,"[(1190, 778)]",[],[1],[0.7833333333333333],horizontal,"(890.0, 762.0)",0.6,0.736,1,1020.206,3,0.04,same
0,72,valid,"[(1185, 792)]",[],[1],[0.6166666666666667],horizontal,"(890.0, 762.0)",1.2666666666666666,0.573,1,1026.182,3,0.04,same
0,73,valid,"[(1185, 795)]",[],[1],[0.85],vertical,"(390.0, 762.0)",0.9,nan,0,1032.66,0,0.04,same
0,74,valid,"[(1174, 769)]",[],[1],[0.5],vertical,"(390.0, 762.0)",0.6166666666666667,0.456,1,1037.159,1,0.04,same
0,75,valid,"[(1165, 769)]",[],[1],[0.85],horizontal,"(390.0, 262.0)",0.5,nan,0,1041.663,0,0.04,same
0,76,catch,"[(1090, 795)]",[],[1],[],horizontal,"(890.0, 262.0)",,"('cti', 1.418),nan",0,1045.93,0,0.06,same
0,77,catch,"[(1096, 792)]",[],[1],[],horizontal,"(390.0, 762.0)",1.7,nan,1,1051.746,1,0.06,same
0,78,valid,"[(1186, 794)]",[],[1],[0.5],vertical,"(390.0, 762.0)",1.3833333333333333,0.462,1,1078.531,1,0.06,same
0,79,catch,"[(1165, 777)]",[],[1],[],horizontal,"(390.0, 762.0)",1.7,nan,1,1083.943,1,0.06,same
0,80,catch,"[(1169, 770)]",[],[1],[],horizontal,"(390.0, 762.0)",1.7,nan,1,1088.881,2,0.06,same
0,81,valid,"[(1194, 808)]",[],[1],[0.5166666666666666],vertical,"(890.0, 762.0)",0.5333333333333333,0.475,1,1094.281,2,0.06,same
0,82,catch,"[(1191, 785)]",[],[1],[],horizontal,"(390.0, 762.0)",1.7,nan,1,1099.431,2,0.06,same
0,83,valid,"[(1190, 790)]",[],[1],[0.6],horizontal,"(390.0, 762.0)",1.3666666666666667,0.565,1,1105.183,3,0.06,same
0,84,valid,"[(1194, 772)]",[],[1],[0.85],horizontal,"(390.0, 762.0)",1.4666666666666666,nan,0,1111.481,0,0.06,same
0,85,catch,"[(1160, 786)]",[],[1],[],horizontal,"(890.0, 762.0)",1.7,nan,1,1116.548,1,0.06,same
0,86,catch,"[(1186, 806)]",[],[1],[],vertical,"(390.0, 762.0)",1.7,nan,1,1121.971,1,0.04,same
0,87,valid,"[(1189, 791)]",[],[1],[0.55],vertical,"(390.0, 762.0)",1.4833333333333334,0.505,1,1127.09,1,0.04,same
0,88,catch,"[(1185, 766)]",[],[1],[],horizontal,"(390.0, 262.0)",1.7,nan,1,1132.466,2,0.04,same
0,89,catch,"[(1185, 799)]",[],[1],[],vertical,"(390.0, 262.0)",1.7,nan,1,1138.153,2,0.04,same
0,90,valid,"[(1168, 791)]",[],[1],[0.5666666666666667],vertical,"(890.0, 262.0)",0.8666666666666667,0.528,1,1143.551,2,0.04,same
0,91,valid,"[(1172, 800)]",[],[1],[0.85],horizontal,"(890.0, 262.0)",0.8,nan,0,1148.808,0,0.04,same
0,92,valid,"[(1166, 768)]",[],[1],[0.5],horizontal,"(890.0, 262.0)",1.0333333333333332,0.465,1,1153.849,1,0.04,same
0,93,catch,"[(1185, 797)]",[],[1],[],vertical,"(890.0, 762.0)",1.7,nan,1,1158.677,1,0.04,same
0,94,valid,"[(1166, 769)]",[],[1],[0.48333333333333334],vertical,"(390.0, 262.0)",0.3833333333333333,0.438,1,1164.053,1,0.04,same
0,95,catch,"[(1165, 794)]",[],[1],[],vertical,"(390.0, 262.0)",1.7,nan,1,1168.63,2,0.04,same
0,96,valid,"[(1157, 799)]",[],[1],[0.5833333333333334],horizontal,"(390.0, 262.0)",1.1166666666666667,0.546,1,1174.699,2,0.04,same
0,97,valid,"[(1166, 793)]",[],[1],[0.5166666666666666],vertical,"(390.0, 262.0)",0.3833333333333333,0.48,1,1180.596,2,0.04,same
0,98,valid,"[(1145, 799)]",[],[1],[0.85],horizontal,"(890.0, 762.0)",1.4333333333333333,nan,0,1185.339,0,0.04,same
0,99,valid,"[(1166, 777)]",[],[1],[0.5333333333333333],horizontal,"(890.0, 762.0)",1.4833333333333334,0.495,1,1190.336,1,0.04,same
0,100,catch,"[(1169, 786)]",[],[1],[],vertical,"(890.0, 262.0)",1.7,nan,1,1196.176,1,0.04,same
0,101,invalid_same_bar,"[(1163, 787)]",[],[1],[0.85],horizontal,"(390.0, 762.0)",0.8,nan,0,1200.966,0,0.04,same
0,102,valid,"[(1162, 775)]",[],[1],[0.5166666666666666],horizontal,"(890.0, 762.0)",0.4,0.478,1,1205.3,1,0.04,same
0,103,valid,"[(1166, 786)]",[],[1],[0.5833333333333334],vertical,"(390.0, 762.0)",1.3,0.542,1,1209.807,1,0.04,same
0,104,valid,"[(1165, 780)]",[],[1],[0.6333333333333333],vertical,"(890.0, 762.0)",1.45,0.593,1,1214.806,1,0.04,same
0,105,valid,"[(1172, 796)]",[],[1],[0.85],vertical,"(390.0, 762.0)",1.0,nan,0,1220.293,0,0.04,same
0,106,catch,"[(1145, 786)]",[],[1],[],vertical,"(390.0, 262.0)",1.7,nan,1,1225.101,1,0.04,same
0,107,valid,"[(1160, 809)]",[],[1],[0.5166666666666666],horizontal,"(890.0, 262.0)",1.2,0.48,1,1230.666,1,0.04,same
0,108,catch,"[(1145, 824)]",[],[1],[],vertical,"(890.0, 262.0)",1.7,nan,1,1235.547,1,0.04,same
0,109,catch,"[(1175, 796)]",[],[1],[],horizontal,"(890.0, 762.0)",1.7,nan,1,1241.9,2,0.04,same
0,110,valid,"[(1195, 800)]",[],[1],[0.4666666666666667],horizontal,"(390.0, 762.0)",1.5333333333333332,0.426,1,1247.441,2,0.04,same
0,111,valid,"[(1162, 794)]",[],[1],[0.5166666666666666],vertical,"(890.0, 262.0)",0.8166666666666667,0.481,1,1253.505,2,0.04,same
0,112,catch,"[(1155, 789)]",[],[1],[],vertical,"(390.0, 262.0)",1.7,nan,1,1258.744,3,0.04,same
0,113,catch,"[(1162, 779)]",[],[1],[],horizontal,"(390.0, 762.0)",1.7,nan,1,1265.111,3,0.04,same
0,114,catch,"[(1164, 787)]",[],[1],[],horizontal,"(390.0, 262.0)",1.7,nan,1,1271.184,3,0.02,same
0,115,catch,"[(1155, 776)]",[],[1],[],horizontal,"(890.0, 762.0)",1.7,nan,1,1277.212,3,0.02,same
0,116,valid,"[(1171, 786)]",[],[1],[0.48333333333333334],horizontal,"(390.0, 762.0)",1.4333333333333333,0.442,1,1283.033,3,0.02,same
0,117,valid,"[(1191, 776)]",[],[1],[0.5],vertical,"(390.0, 262.0)",1.0,0.464,1,1289.277,3,0.02,same
0,118,valid,"[(1167, 799)]",[],[1],[0.5333333333333333],horizontal,"(390.0, 262.0)",1.1,0.498,1,1294.988,3,0.02,same
0,119,invalid_adjacent_other_bar,"[(1192, 786)]",[],[1],[0.5833333333333334],horizontal,"(890.0, 262.0)",0.36666666666666664,0.542,1,1300.821,3,0.02,other
0,120,valid,"[(1190, 791)]",[],[1],[0.85],vertical,"(390.0, 762.0)",1.1666666666666667,nan,0,1306.115,0,0.02,same
0,121,valid,"[(1167, 796)]",[],[1],[0.5],horizontal,"(390.0, 262.0)",0.7,0.46,1,1311.203,1,0.02,same
0,122,valid,"[(1170, 787)]",[],[1],[0.5166666666666666],horizontal,"(390.0, 762.0)",1.1833333333333333,0.476,1,1316.043,1,0.02,same
0,123,catch,"[(1188, 786)]",[],[1],[],horizontal,"(890.0, 262.0)",1.7,nan,1,1321.43,1,0.02,same
0,124,catch,"[(1182, 785)]",[],[1],[],horizontal,"(890.0, 762.0)",1.7,nan,1,1326.564,2,0.02,same
0,125,valid,"[(1166, 796)]",[],[1],[0.5666666666666667],horizontal,"(390.0, 762.0)",0.85,0.521,1,1331.776,2,0.02,same
0,126,catch,"[(1185, 807)]",[],[1],[],horizontal,"(390.0, 262.0)",1.7,nan,1,1336.949,2,0.0,same
0,127,valid,"[(1185, 780)]",[],[1],[0.5833333333333334],horizontal,"(390.0, 762.0)",0.5833333333333334,0.543,1,1342.567,3,0.0,same
0,128,catch,"[(1162, 794)]",[],[1],[],vertical,"(890.0, 762.0)",1.7,nan,1,1348.006,3,0.0,same
0,129,valid,"[(1178, 786)]",[],[1],[0.5],vertical,"(890.0, 762.0)",1.5,0.46,1,1354.049,3,0.0,same
0,130,valid,"[(1185, 796)]",[],[1],[0.5833333333333334],horizontal,"(890.0, 262.0)",1.1333333333333333,0.542,1,1360.316,3,0.0,same
0,131,valid,"[(1183, 786)]",[],[1],[0.65],vertical,"(390.0, 262.0)",1.0666666666666667,0.609,1,1366.317,3,0.0,same
0,132,valid,"[(1181, 788)]",[],[1],[0.6333333333333333],horizontal,"(890.0, 262.0)",0.48333333333333334,0.598,1,1372.05,3,0.0,same
0,133,catch,"[(1172, 781)]",[],[1],[],vertical,"(390.0, 262.0)",1.7,nan,1,1377.085,3,0.0,same
0,134,valid,"[(1191, 785)]",[],[1],[0.48333333333333334],vertical,"(390.0, 762.0)",1.45,0.449,1,1383.182,3,0.0,same
0,135,valid,"[(1186, 786)]",[],[1],[0.5833333333333334],horizontal,"(390.0, 762.0)",0.65,0.544,1,1389.016,3,0.0,same
0,136,valid,"[(1176, 795)]",[],[1],[0.5166666666666666],vertical,"(890.0, 262.0)",1.2333333333333334,0.476,1,1394.15,3,0.0,same
0,137,valid,"[(1185, 792)]",[],[1],[0.6666666666666666],vertical,"(390.0, 262.0)",0.6,0.619,1,1400.231,3,0.0,same
0,138,invalid_same_bar,"[(1185, 774)]",[],[1],[0.5],horizontal,"(390.0, 262.0)",0.6333333333333333,0.46,1,1405.484,3,0.0,same
0,139,catch,"[(1185, 794)]",[],[1],[],horizontal,"(390.0, 762.0)",1.7,nan,1,1410.858,3,0.0,same
0,140,catch,"[(1180, 793)]",[],[1],[],vertical,"(890.0, 262.0)",1.7,nan,1,1417.049,3,0.0,same
0,141,catch,"[(1184, 805)]",[],[1],[],vertical,"(390.0, 762.0)",1.7,nan,1,1422.982,3,0.0,same
0,142,invalid_adjacent_other_bar,"[(1194, 784)]",[],[1],[0.48333333333333334],horizontal,"(390.0, 762.0)",0.8333333333333334,0.444,1,1429.098,3,0.0,other
0,143,valid,"[(1188, 781)]",[],[1],[0.85],vertical,"(890.0, 762.0)",1.15,nan,0,1434.624,0,0.0,same
0,144,valid,"[(1166, 770)]",[],[1],[0.6666666666666666],vertical,"(890.0, 262.0)",0.85,0.623,1,1439.2,1,0.0,same
0,145,valid,"[(1187, 774)]",[],[1],[0.5333333333333333],horizontal,"(390.0, 262.0)",1.5333333333333332,0.496,1,1444.183,1,0.0,same
0,146,invalid_adjacent_other_bar,"[(1188, 776)]",[],[1],[0.5166666666666666],horizontal,"(390.0, 262.0)",1.25,0.48,1,1449.287,1,0.0,other
0,147,valid,"[(1193, 773)]",[],[1],[0.75],vertical,"(890.0, 762.0)",1.05,0.702,1,1454.365,2,0.0,same
0,148,valid,"[(1194, 778)]",[],[1],[0.5833333333333334],vertical,"(390.0, 762.0)",1.0666666666666667,0.547,1,1460.001,2,0.0,same
0,149,valid,"[(1185, 783)]",[],[1],[0.6166666666666667],vertical,"(390.0, 762.0)",1.1666666666666667,0.584,1,1465.598,2,0.0,same
0,150,catch,"[(1203, 787)]",[],[1],[],vertical,"(390.0, 762.0)",1.7,nan,1,1471.799,3,0.0,same
0,151,valid,"[(1194, 773)]",[],[1],[0.5333333333333333],horizontal,"(390.0, 262.0)",0.85,0.506,1,1477.568,3,0.0,same
0,152,valid,"[(1200, 760)]",[],[1],[0.55],vertical,"(390.0, 262.0)",0.9166666666666666,0.508,1,1483.217,3,0.0,same
0,153,valid,"[(1186, 769)]",[],[1],[0.55],vertical,"(390.0, 762.0)",1.2,0.518,1,1488.917,3,0.0,same
0,154,valid,"[(1175, 787)]",[],[1],[0.4666666666666667],horizontal,"(890.0, 262.0)",0.7,0.428,1,1494.96,3,0.0,same
0,155,invalid_same_bar,"[(1160, 786)]",[],[1],[0.55],vertical,"(390.0, 762.0)",1.0666666666666667,0.51,1,1500.211,3,0.0,same
0,156,catch,"[(1181, 774)]",[],[1],[],horizontal,"(390.0, 762.0)",1.7,nan,1,1506.412,3,0.0,same
0,157,invalid_adjacent_other_bar,"[(1193, 787)]",[],[1],[0.85],horizontal,"(890.0, 762.0)",1.1333333333333333,nan,0,1512.223,0,0.0,other
0,158,invalid_adjacent_other_bar,"[(1163, 779)]",[],[1],[0.85],vertical,"(390.0, 762.0)",0.43333333333333335,nan,0,1517.245,0,0.0,other
0,159,catch,"[(1145, 781)]",[],[1],[],vertical,"(390.0, 762.0)",1.7,nan,1,1521.365,1,0.0,same
0,160,invalid_adjacent_other_bar,"[(1167, 783)]",[],[1],[0.65],horizontal,"(390.0, 762.0)",1.4166666666666667,0.606,1,1526.772,1,0.0,other
0,161,valid,"[(1181, 777)]",[],[1],[0.5333333333333333],horizontal,"(390.0, 762.0)",0.48333333333333334,0.49,1,1532.235,1,0.0,same
0,162,valid,"[(1179, 785)]",[],[1],[0.5666666666666667],horizontal,"(390.0, 262.0)",1.5166666666666666,0.528,1,1536.773,2,0.0,same
0,163,catch,"[(1165, 786)]",[],[1],[],vertical,"(390.0, 762.0)",1.7,nan,1,1542.946,2,0.0,same
0,164,invalid_adjacent_other_bar,"[(1183, 788)]",[],[1],[0.5333333333333333],horizontal,"(390.0, 762.0)",0.8833333333333333,0.501,1,1548.363,2,0.0,other
0,165,catch,"[(1132, 812)]",[],[1],[],vertical,"(390.0, 262.0)",1.7,nan,1,1553.851,3,0.0,same
0,166,valid,"[(1191, 793)]",[],[1],[0.85],horizontal,"(890.0, 762.0)",0.5333333333333333,nan,0,1559.934,0,0.0,same
0,167,invalid_adjacent_other_bar,"[(1132, 791)]",[],[1],[0.85],horizontal,"(390.0, 762.0)",0.7333333333333333,nan,0,1564.235,0,0.0,other
0,168,valid,"[(1116, 772)]",[],[1],[0.5666666666666667],vertical,"(890.0, 762.0)",1.3666666666666667,0.533,1,1570.6,1,0.0,same
0,169,catch,"[(1175, 772)]",[],[1],[],vertical,"(390.0, 762.0)",1.7,nan,1,1580.115,1,0.0,same
0,170,valid,"[(1185, 769)]",[],[1],[0.48333333333333334],horizontal,"(390.0, 262.0)",1.3333333333333333,0.451,1,1585.055,1,0.0,same
0,171,valid,"[(1200, 769)]",[],[1],[0.5666666666666667],vertical,"(390.0, 262.0)",0.7333333333333333,0.53,1,1590.308,2,0.0,same
0,172,valid,"[(1193, 784)]",[],[1],[0.6666666666666666],horizontal,"(890.0, 762.0)",1.1666666666666667,0.629,1,1595.503,2,0.0,same
0,173,valid,"[(1200, 791)]",[],[1],[0.85],horizontal,"(390.0, 762.0)",0.85,nan,0,1601.006,0,0.0,same
0,174,invalid_adjacent_other_bar,"[(1105, 773)]",[],[1],[0.85],horizontal,"(890.0, 762.0)",1.0166666666666666,nan,0,1605.365,0,0.0,other
0,175,catch,"[(1165, 776)]",[],[1],[],vertical,"(390.0, 762.0)",1.7,nan,1,1610.543,1,0.0,same
0,176,valid,"[(1206, 796)]",[],[1],[0.5166666666666666],vertical,"(890.0, 762.0)",1.35,0.479,1,1615.88,1,0.0,same
0,177,valid,"[(1187, 773)]",[],[1],[0.6],vertical,"(890.0, 262.0)",0.8,0.559,1,1621.143,1,0.0,same
0,178,valid,"[(1190, 762)]",[],[1],[0.48333333333333334],horizontal,"(890.0, 762.0)",1.1,0.45,1,1625.723,2,0.0,same
0,179,valid,"[(1185, 786)]",[],[1],[0.5166666666666666],horizontal,"(890.0, 762.0)",1.25,0.48,1,1630.907,2,0.0,same
0,180,valid,"[(1185, 791)]",[],[1],[0.7],vertical,"(390.0, 262.0)",1.2666666666666666,0.651,1,1636.747,2,0.0,same
0,181,valid,"[(1190, 776)]",[],[1],[0.5833333333333334],horizontal,"(890.0, 262.0)",1.0833333333333333,0.545,1,1642.512,3,0.0,same
0,182,valid,"[(1194, 764)]",[],[1],[0.85],vertical,"(390.0, 262.0)",1.1333333333333333,nan,0,1648.34,0,0.0,same
0,183,invalid_same_bar,"[(1190, 779)]",[],[1],"[0.85, 0.85]",horizontal,"(390.0, 762.0)",1.5333333333333332,"0.799,nan",0,1653.111,0,0.0,same
0,184,valid,"[(1160, 777)]",[],[1],[0.6166666666666667],horizontal,"(390.0, 262.0)",0.4166666666666667,0.574,1,1658.725,1,0.0,same
0,185,catch,"[(1195, 765)]",[],[1],[],horizontal,"(390.0, 762.0)",1.7,nan,1,1663.218,1,0.0,same
0,186,catch,"[(1186, 809)]",[],[1],[],horizontal,"(390.0, 262.0)",1.7,nan,1,1668.389,1,0.0,same
0,187,valid,"[(1190, 779)]",[],[1],[0.5833333333333334],horizontal,"(390.0, 762.0)",0.9333333333333333,0.544,1,1674.074,2,0.0,same
0,188,invalid_same_bar,"[(1185, 774)]",[],[1],[0.6166666666666667],horizontal,"(890.0, 762.0)",0.8166666666666667,0.569,1,1679.543,2,0.0,same
0,189,valid,"[(1198, 779)]",[],[1],[0.5666666666666667],vertical,"(390.0, 262.0)",1.1833333333333333,0.525,1,1684.484,2,0.0,same
0,190,invalid_adjacent_other_bar,"[(1166, 782)]",[],[1],[0.85],horizontal,"(890.0, 262.0)",0.35,nan,0,1690.31,0,0.0,other
0,191,catch,"[(1167, 778)]",[],[1],[],horizontal,"(390.0, 262.0)",1.7,nan,1,1694.611,1,0.0,same
0,192,valid,"[(1200, 776)]",[],[1],[0.4666666666666667],horizontal,"(390.0, 762.0)",0.6,0.425,1,1699.916,1,0.0,same
0,193,catch,"[(1185, 778)]",[],[1],[],horizontal,"(890.0, 262.0)",1.7,nan,1,1704.269,1,0.0,same
0,194,valid,"[(1193, 780)]",[],[1],[0.4666666666666667],horizontal,"(390.0, 262.0)",0.5833333333333334,0.431,1,1709.384,2,0.0,same
0,195,catch,"[(1185, 769)]",[],[1],[],vertical,"(890.0, 762.0)",1.7,nan,1,1714.166,2,0.0,same
0,196,valid,"[(1185, 790)]",[],[1],[],horizontal,"(890.0, 262.0)",,"('cti', 0.556)",0,1719.817,0,0.0,same
0,197,invalid_adjacent_other_bar,"[(1170, 781)]",[],[1],[0.5166666666666666],vertical,"(390.0, 762.0)",1.4666666666666666,0.476,1,1723.634,1,0.0,other
0,198,invalid_same_bar,"[(1183, 772)]",[],[1],[0.65],vertical,"(390.0, 762.0)",0.9833333333333333,0.605,1,1728.691,1,0.0,same
0,199,catch,"[(1213, 771)]",[],[1],[],horizontal,"(390.0, 762.0)",1.7,nan,1,1733.666,1,0.0,same
0,200,valid,"[(1185, 788)]",[],[1],[0.5333333333333333],horizontal,"(890.0, 262.0)",1.0166666666666666,0.488,1,1738.669,2,0.0,same
0,201,valid,"[(1181, 778)]",[],[1],[0.85],horizontal,"(890.0, 762.0)",1.0666666666666667,nan,0,1743.895,0,0.0,same
0,202,valid,"[(1160, 779)]",[],[1],[0.6],vertical,"(890.0, 762.0)",1.4,0.56,1,1748.969,1,0.0,same
0,203,catch,"[(1185, 770)]",[],[1],[],horizontal,"(890.0, 762.0)",1.7,nan,1,1754.256,1,0.0,same
0,204,catch,"[(1130, 769)]",[],[1],[],vertical,"(890.0, 762.0)",1.7,nan,1,1759.192,1,0.0,same
0,205,valid,"[(1180, 781)]",[],[1],[0.5],horizontal,"(890.0, 762.0)",0.36666666666666664,0.457,1,1764.618,2,0.0,same
0,206,invalid_same_bar,"[(1193, 777)]",[],[1],[0.5666666666666667],vertical,"(890.0, 762.0)",0.4166666666666667,0.521,1,1769.072,2,0.0,same
0,207,valid,"[(1195, 786)]",[],[1],[0.6333333333333333],horizontal,"(390.0, 262.0)",1.0333333333333332,0.592,1,1773.972,2,0.0,same
0,208,invalid_adjacent_other_bar,"[(1155, 777)]",[],[1],[0.5333333333333333],vertical,"(890.0, 762.0)",1.25,0.491,1,1779.766,3,0.0,other
0,209,valid,"[(1160, 790)]",[],[1],[0.48333333333333334],vertical,"(890.0, 262.0)",0.75,0.443,1,1785.843,3,0.0,same
0,210,valid,"[(1192, 786)]",[],[1],[0.6833333333333333],vertical,"(890.0, 262.0)",0.36666666666666664,0.643,1,1791.651,3,0.0,same
0,211,valid,"[(1185, 777)]",[],[1],[0.6166666666666667],vertical,"(890.0, 262.0)",1.45,0.578,1,1797.011,3,0.0,same
0,212,valid,"[(1178, 784)]",[],[1],[0.6333333333333333],horizontal,"(390.0, 262.0)",1.0833333333333333,0.6,1,1803.174,3,0.0,same
0,213,valid,"[(1185, 768)]",[],[1],[0.48333333333333334],horizontal,"(890.0, 262.0)",0.7166666666666667,0.447,1,1809.384,3,0.0,same
0,214,valid,"[(1186, 796)]",[],[1],[0.4666666666666667],horizontal,"(890.0, 262.0)",0.6833333333333333,0.42,1,1815.019,3,0.0,same
0,215,valid,"[(1161, 777)]",[],[1],[0.5166666666666666],vertical,"(890.0, 262.0)",0.3833333333333333,0.476,1,1820.525,3,0.0,same
0,216,catch,"[(1165, 777)]",[],[1],[],vertical,"(390.0, 262.0)",1.7,nan,1,1825.725,3,0.0,same
0,217,valid,"[(1190, 796)]",[],[1],[0.5],vertical,"(390.0, 262.0)",0.5333333333333333,0.459,1,1831.918,3,0.0,same
0,218,valid,"[(1160, 782)]",[],[1],[0.6333333333333333],horizontal,"(890.0, 262.0)",1.2333333333333334,0.605,1,1837.073,3,0.0,same
0,219,catch,"[(1188, 770)]",[],[1],[],vertical,"(890.0, 262.0)",1.7,nan,1,1843.562,3,0.0,same
0,220,valid,"[(1186, 792)]",[],[1],[0.5666666666666667],vertical,"(890.0, 762.0)",0.4,0.523,1,1849.119,3,0.0,same
0,221,valid,"[(1191, 780)]",[],[1],[0.5],vertical,"(390.0, 262.0)",0.7333333333333333,0.46,1,1854.045,3,0.0,same
0,222,valid,"[(1185, 792)]",[],[1],[0.5666666666666667],vertical,"(890.0, 762.0)",0.8666666666666667,0.527,1,1859.785,3,0.0,same
0,223,valid,"[(1161, 768)]",[],[1],[0.5666666666666667],horizontal,"(390.0, 762.0)",0.55,0.528,1,1865.569,3,0.0,same
0,224,valid,"[(1170, 806)]",[],[1],[0.65],horizontal,"(890.0, 762.0)",1.4333333333333333,0.605,1,1870.984,3,0.0,same
0,225,valid,"[(1184, 795)]",[],[1],[0.5],horizontal,"(390.0, 262.0)",1.5333333333333332,0.454,1,1877.268,3,0.0,same
0,226,catch,"[(1184, 781)]",[],[1],[],horizontal,"(390.0, 262.0)",1.7,nan,1,1883.486,3,0.0,same
0,227,catch,"[(1195, 789)]",[],[1],[],horizontal,"(390.0, 262.0)",1.7,nan,1,1889.351,3,0.0,same
0,228,catch,"[(1165, 770)]",[],[1],[],vertical,"(390.0, 762.0)",1.7,nan,1,1895.303,3,0.0,same
0,229,valid,"[(1177, 799)]",[],[1],[0.5833333333333334],vertical,"(890.0, 262.0)",1.1,0.546,1,1901.06,3,0.0,same
0,230,catch,"[(1188, 786)]",[],[1],[],vertical,"(890.0, 262.0)",1.7,nan,1,1907.284,3,0.0,same
0,231,invalid_same_bar,"[(1164, 788)]",[],[1],[0.55],horizontal,"(390.0, 762.0)",1.3666666666666667,0.504,1,1913.484,3,0.0,same
0,232,valid,"[(1185, 774)]",[],[1],[0.55],horizontal,"(890.0, 262.0)",1.3,0.511,1,1919.506,3,0.0,same
0,233,invalid_same_bar,"[(1180, 783)]",[],[1],[0.6833333333333333],vertical,"(390.0, 762.0)",1.1333333333333333,0.644,1,1925.599,3,0.0,same
0,234,catch,"[(1185, 804)]",[],[1],[],horizontal,"(390.0, 762.0)",1.7,nan,1,1931.651,3,0.0,same
0,235,valid,"[(1185, 782)]",[],[1],[0.5166666666666666],horizontal,"(890.0, 262.0)",1.0333333333333332,0.473,1,1937.686,3,0.0,same
0,236,catch,"[(1192, 781)]",[],[1],[],vertical,"(390.0, 262.0)",1.7,nan,1,1943.202,3,0.0,same
0,237,valid,"[(1186, 782)]",[],[1],[0.85],vertical,"(890.0, 762.0)",0.4666666666666667,nan,0,1948.752,0,0.0,same
0,238,valid,"[(1132, 795)]",[],[1],[0.48333333333333334],vertical,"(390.0, 762.0)",1.4666666666666666,0.447,1,1952.928,1,0.0,same
0,239,invalid_adjacent_other_bar,"[(1195, 775)]",[],[1],[0.5333333333333333],horizontal,"(390.0, 762.0)",0.5833333333333334,0.496,1,1958.757,1,0.0,other
0,240,valid,"[(1170, 765)]",[],[1],[0.5666666666666667],vertical,"(890.0, 262.0)",1.15,0.527,1,1963.185,1,0.0,same
0,241,valid,"[(1180, 786)]",[],[1],[0.65],vertical,"(890.0, 762.0)",1.4833333333333334,0.608,1,1968.019,2,0.0,same
0,242,catch,"[(1178, 778)]",[],[1],[],horizontal,"(890.0, 262.0)",,"('cti', 1.595),nan",0,1973.768,0,0.02,same
0,243,catch,"[(1140, 780)]",[],[1],[],vertical,"(890.0, 762.0)",1.7,nan,1,1978.922,1,0.02,same
0,244,valid,"[(1165, 778)]",[],[1],[0.5],vertical,"(890.0, 762.0)",0.45,0.459,1,1984.552,1,0.02,same
0,245,catch,"[(1166, 800)]",[],[1],[],horizontal,"(390.0, 262.0)",1.7,nan,1,1989.136,1,0.02,same
0,246,valid,"[(1169, 774)]",[],[1],[0.6333333333333333],horizontal,"(390.0, 762.0)",1.5,0.59,1,1994.019,2,0.02,same
0,247,valid,"[(1177, 778)]",[],[1],[0.5],horizontal,"(890.0, 762.0)",1.4833333333333334,0.461,1,2000.102,2,0.02,same
0,248,catch,"[(1175, 802)]",[],[1],[],horizontal,"(390.0, 262.0)",1.7,nan,1,2006.17,2,0.02,same
0,249,catch,"[(1190, 796)]",[],[1],[],horizontal,"(890.0, 262.0)",1.7,nan,1,2011.769,3,0.02,same
0,250,valid,"[(1205, 786)]",[],[1],[0.85],horizontal,"(890.0, 262.0)",0.8,nan,0,2017.53,0,0.02,same
0,251,catch,"[(1149, 797)]",[],[1],[0.03333333333333333],horizontal,"(890.0, 762.0)",1.7,"0.02,nan",0,2022.495,0,0.04,same
0,252,catch,"[(1145, 779)]",[],[1],[],vertical,"(390.0, 262.0)",1.7,nan,1,2027.435,1,0.04,same
0,253,valid,"[(1166, 801)]",[],[1],[0.5],horizontal,"(390.0, 262.0)",1.0833333333333333,0.459,1,2032.736,1,0.04,same
0,254,invalid_same_bar,"[(1170, 782)]",[],[1],[0.4666666666666667],vertical,"(890.0, 262.0)",1.3333333333333333,0.433,1,2037.551,1,0.04,same
0,255,valid,"[(1160, 777)]",[],[1],[0.85],horizontal,"(890.0, 762.0)",0.55,nan,0,2042.803,0,0.04,same
0,256,valid,"[(1225, 776)]",[],[1],[],horizontal,"(890.0, 262.0)",,"('fix', 0.313)",0,2046.902,0,0.04,same
0,257,valid,"[(1148, 821)]",[],[1],[0.85],horizontal,"(390.0, 762.0)",0.4666666666666667,nan,0,2073.902,0,0.04,same
0,258,valid,"[(1157, 806)]",[],[1],[0.85],vertical,"(390.0, 262.0)",0.4166666666666667,nan,0,2077.872,0,0.04,same
0,259,invalid_adjacent_other_bar,"[(1146, 788)]",[],[1],[0.5166666666666666],horizontal,"(390.0, 762.0)",0.7,0.477,1,2082.719,1,0.04,other
0,260,valid,"[(1170, 783)]",[],[1],[0.65],vertical,"(390.0, 262.0)",0.9,0.606,1,2087.046,1,0.04,same
0,261,catch,"[(1175, 769)]",[],[1],[],horizontal,"(390.0, 762.0)",1.7,nan,1,2092.119,1,0.04,same
0,262,invalid_same_bar,"[(1156, 811)]",[],[1],[0.48333333333333334],vertical,"(390.0, 262.0)",0.75,0.447,1,2097.281,2,0.04,same
0,263,valid,"[(1178, 786)]",[],[1],[0.5333333333333333],horizontal,"(390.0, 762.0)",0.45,0.492,1,2102.355,2,0.04,same
0,264,catch,"[(1178, 789)]",[],[1],[],vertical,"(890.0, 762.0)",1.7,nan,1,2107.253,2,0.04,same
0,265,valid,"[(1170, 777)]",[],[1],[0.48333333333333334],horizontal,"(890.0, 762.0)",1.3166666666666667,0.44,1,2112.708,3,0.04,same
0,266,valid,"[(1162, 780)]",[],[1],[0.5],vertical,"(890.0, 762.0)",0.36666666666666664,0.457,1,2118.448,3,0.04,same
0,267,catch,"[(1160, 777)]",[],[1],[],horizontal,"(890.0, 262.0)",1.7,nan,1,2123.832,3,0.04,same
0,268,catch,"[(1156, 796)]",[],[1],[],horizontal,"(890.0, 762.0)",1.7,nan,1,2129.472,3,0.04,same
0,269,valid,"[(1178, 797)]",[],[1],[0.6166666666666667],vertical,"(390.0, 262.0)",0.8666666666666667,0.573,1,2135.234,3,0.04,same
0,270,catch,"[(1164, 804)]",[],[1],[],vertical,"(390.0, 762.0)",1.7,nan,1,2141.091,3,0.04,same
0,271,catch,"[(1175, 780)]",[],[1],[],vertical,"(390.0, 762.0)",,"('cti', 0.542),nan",0,2147.059,0,0.06,same
0,272,catch,"[(1135, 800)]",[],[1],[],vertical,"(390.0, 262.0)",1.7,nan,1,2150.796,1,0.06,same
0,273,valid,"[(1165, 777)]",[],[1],[0.85],horizontal,"(390.0, 762.0)",1.05,nan,0,2156.071,0,0.06,same
0,274,catch,"[(1115, 782)]",[],[1],[],horizontal,"(890.0, 762.0)",,"('cti', 1.318),nan",0,2160.556,0,0.08,same
0,275,valid,"[(1161, 821)]",[],[1],[0.5833333333333334],vertical,"(890.0, 762.0)",1.4,0.538,1,2167.373,1,0.08,same
0,276,catch,"[(1175, 802)]",[],[1],[],horizontal,"(390.0, 762.0)",1.7,nan,1,2172.661,1,0.08,same
0,277,invalid_same_bar,"[(1170, 780)]",[],[1],[0.08333333333333333],vertical,"(390.0, 762.0)",0.5166666666666666,0.054,0,2177.57,0,0.08,same
0,278,valid,"[(1150, 761)]",[],[1],[0.4666666666666667],vertical,"(890.0, 262.0)",0.55,0.428,1,2181.42,1,0.08,same
0,279,valid,"[(1165, 801)]",[],[1],[0.6166666666666667],vertical,"(390.0, 762.0)",0.3833333333333333,0.577,1,2186.014,1,0.08,same
0,280,valid,"[(1145, 794)]",[],[1],[0.65],vertical,"(890.0, 762.0)",1.35,0.614,1,2190.353,1,0.08,same
0,281,valid,"[(1173, 799)]",[],[1],[0.48333333333333334],horizontal,"(890.0, 262.0)",0.85,0.444,1,2195.884,2,0.08,same
0,282,valid,"[(1188, 782)]",[],[1],[0.6166666666666667],horizontal,"(890.0, 762.0)",1.0833333333333333,0.569,1,2200.784,2,0.08,same
0,283,catch,"[(1125, 770)]",[],[1],[],vertical,"(390.0, 762.0)",1.7,nan,1,2206.12,2,0.08,same
0,284,catch,"[(1155, 799)]",[],[1],[],horizontal,"(390.0, 262.0)",1.7,nan,1,2211.536,3,0.08,same
0,285,catch,"[(1148, 839)]",[],[1],[],vertical,"(890.0, 762.0)",1.7,nan,1,2217.853,3,0.08,same
0,286,valid,"[(1148, 814)]",[],[1],[0.6],horizontal,"(390.0, 762.0)",0.9333333333333333,0.556,1,2224.216,3,0.08,same
0,287,catch,"[(1183, 797)]",[],[1],[],horizontal,"(390.0, 262.0)",1.7,nan,1,2528.373,3,0.08,same
0,288,valid,"[(1170, 786)]",[],[1],[0.45],horizontal,"(890.0, 262.0)",0.8,0.405,1,2534.021,3,0.08,same
0,289,valid,"[(1163, 796)]",[],[1],[0.48333333333333334],vertical,"(890.0, 762.0)",0.9833333333333333,0.441,1,2539.171,3,0.08,same
0,290,catch,"[(1167, 790)]",[],[1],[],horizontal,"(390.0, 762.0)",1.7,nan,1,2544.767,3,0.08,same
0,291,valid,"[(1181, 787)]",[],[1],[0.48333333333333334],horizontal,"(390.0, 262.0)",0.4166666666666667,0.444,1,2550.755,3,0.08,same
0,292,catch,"[(1165, 772)]",[],[1],[],horizontal,"(890.0, 762.0)",,"('cti', 1.62),nan",0,2555.887,0,0.08,same
0,293,valid,"[(1125, 815)]",[],[1],[0.85],vertical,"(390.0, 762.0)",0.9,nan,0,2560.653,0,0.08,same
0,294,invalid_same_bar,"[(1167, 773)]",[],[1],[0.5166666666666666],horizontal,"(390.0, 762.0)",0.7166666666666667,0.476,1,2566.262,1,0.08,same
0,295,catch,"[(1185, 781)]",[],[1],[],horizontal,"(390.0, 762.0)",1.7,nan,1,2570.616,1,0.08,same
0,296,valid,"[(1203, 796)]",[],[1],[0.65],vertical,"(390.0, 262.0)",0.4166666666666667,0.609,1,2575.886,1,0.08,same
0,297,catch,"[(1178, 779)]",[],[1],[],horizontal,"(390.0, 762.0)",1.7,nan,1,2580.955,2,0.08,same
0,298,valid,"[(1185, 806)]",[],[1],[0.5666666666666667],vertical,"(890.0, 762.0)",1.2666666666666666,0.523,1,2586.471,2,0.08,same
0,299,valid,"[(1180, 800)]",[],[1],[0.4666666666666667],horizontal,"(890.0, 762.0)",1.25,0.424,1,2592.287,2,0.08,same
0,300,catch,"[(1155, 796)]",[],[1],[],horizontal,"(390.0, 262.0)",1.7,nan,1,2598.071,3,0.08,same
0,301,valid,"[(1205, 791)]",[],[1],[],horizontal,"(890.0, 262.0)",,"('fix', 0.211)",0,2603.954,0,0.06,same
0,302,valid,"[(1145, 836)]",[],[1],[0.45],vertical,"(890.0, 262.0)",1.5333333333333332,0.409,1,2605.616,1,0.06,same
0,303,valid,"[(1205, 764)]",[],[1],[],horizontal,"(890.0, 762.0)",,"('cti', 0.511)",0,2610.966,0,0.06,same
0,304,catch,"[(1146, 792)]",[],[1],[],horizontal,"(890.0, 262.0)",1.7,nan,1,2614.705,1,0.06,same
0,305,invalid_same_bar,"[(1165, 787)]",[],[1],[0.85],horizontal,"(390.0, 262.0)",1.1166666666666667,nan,0,2619.884,0,0.06,same
0,306,valid,"[(1180, 773)]",[],[1],[0.5],horizontal,"(390.0, 262.0)",0.6666666666666666,0.457,1,2624.664,1,0.06,same
0,307,catch,"[(1175, 803)]",[],[1],[],vertical,"(390.0, 762.0)",1.7,nan,1,2629.02,1,0.06,same
0,308,invalid_same_bar,"[(1182, 790)]",[],[1],[0.6166666666666667],horizontal,"(890.0, 762.0)",1.3333333333333333,0.568,1,2633.891,1,0.06,same
0,309,invalid_adjacent_other_bar,"[(1182, 782)]",[],[1],[0.5833333333333334],vertical,"(890.0, 262.0)",1.3333333333333333,0.538,1,2639.427,2,0.06,other
0,310,invalid_same_bar,"[(1185, 786)]",[],[1],[0.5],horizontal,"(390.0, 762.0)",0.9166666666666666,0.455,1,2645.484,2,0.06,same
0,311,valid,"[(1180, 784)]",[],[1],[0.55],vertical,"(890.0, 262.0)",1.2166666666666666,0.504,1,2650.494,2,0.06,same
0,312,valid,"[(1181, 781)]",[],[1],[0.5666666666666667],horizontal,"(890.0, 762.0)",1.0833333333333333,0.521,1,2655.923,3,0.06,same
0,313,invalid_adjacent_other_bar,"[(1170, 781)]",[],[1],[0.85],vertical,"(890.0, 762.0)",0.4666666666666667,nan,0,2661.587,0,0.06,other
0,314,catch,"[(1160, 817)]",[],[1],[],vertical,"(390.0, 262.0)",1.7,nan,1,2665.621,1,0.06,same
0,315,valid,"[(1160, 787)]",[],[1],[0.5166666666666666],vertical,"(890.0, 262.0)",0.4,0.476,1,2670.888,1,0.06,same
0,316,catch,"[(1165, 780)]",[],[1],[],horizontal,"(890.0, 262.0)",,"('cti', 1.627),nan",0,2675.156,0,0.08,same
0,317,valid,"[(1159, 790)]",[],[1],[0.7666666666666666],vertical,"(390.0, 762.0)",1.3166666666666667,0.715,1,2679.644,1,0.08,same
0,318,valid,"[(1180, 782)]",[],[1],[0.5833333333333334],vertical,"(890.0, 762.0)",1.2166666666666666,0.536,1,2685.158,1,0.08,same
0,319,catch,"[(1161, 773)]",[],[1],[],horizontal,"(390.0, 262.0)",1.7,nan,1,2689.891,1,0.08,same
0,320,valid,"[(1160, 791)]",[],[1],[0.5666666666666667],horizontal,"(390.0, 762.0)",0.7,0.524,1,2695.14,2,0.08,same
0,321,valid,"[(1136, 811)]",[],[1],[0.21666666666666667],vertical,"(390.0, 762.0)",0.35,0.181,0,2700.079,0,0.06,same
0,322,valid,"[(1095, 796)]",[],[1],[0.4666666666666667],horizontal,"(890.0, 762.0)",0.8833333333333333,0.421,1,2704.039,1,0.06,same
0,323,invalid_same_bar,"[(1170, 777)]",[],[1],[0.5333333333333333],vertical,"(390.0, 262.0)",1.5,0.493,1,2720.906,1,0.06,same
0,324,valid,"[(1189, 772)]",[],[1],[0.5333333333333333],vertical,"(890.0, 762.0)",1.2333333333333334,0.488,1,2726.122,1,0.04,same
0,325,valid,"[(1162, 775)]",[],[1],[0.5333333333333333],horizontal,"(890.0, 262.0)",0.4666666666666667,0.492,1,2731.04,2,0.04,same
0,326,catch,"[(1193, 777)]",[],[1],[],horizontal,"(390.0, 262.0)",1.7,nan,1,2735.64,2,0.04,same
0,327,valid,"[(1160, 796)]",[],[1],[0.85],horizontal,"(890.0, 762.0)",0.45,nan,0,2741.302,0,0.04,same
0,328,valid,"[(1169, 791)]",[],[1],[0.5666666666666667],horizontal,"(390.0, 762.0)",0.6166666666666667,0.528,1,2745.43,1,0.04,same
0,329,valid,"[(1180, 805)]",[],[1],[0.5],vertical,"(890.0, 762.0)",1.0666666666666667,0.456,1,2750.139,1,0.04,same
0,330,valid,"[(1160, 779)]",[],[1],[0.5166666666666666],vertical,"(890.0, 262.0)",0.6166666666666667,0.475,1,2755.156,1,0.04,same
0,331,valid,"[(1186, 776)]",[],[1],[0.4666666666666667],vertical,"(890.0, 262.0)",1.45,0.426,1,2759.55,2,0.04,same
0,332,valid,"[(1175, 788)]",[],[1],[0.55],horizontal,"(390.0, 262.0)",1.1,0.506,1,2765.122,2,0.04,same
0,333,catch,"[(1165, 777)]",[],[1],[],vertical,"(390.0, 262.0)",1.7,nan,1,2770.572,2,0.04,same
0,334,valid,"[(1180, 796)]",[],[1],[0.5],horizontal,"(890.0, 262.0)",1.3,0.459,1,2776.617,3,0.04,same
0,335,valid,"[(1175, 788)]",[],[1],[0.5],vertical,"(390.0, 762.0)",1.4666666666666666,0.46,1,2782.48,3,0.04,same
0,336,valid,"[(1153, 780)]",[],[1],[0.48333333333333334],horizontal,"(390.0, 762.0)",0.65,0.447,1,2788.189,3,0.04,same
0,337,valid,"[(1177, 779)]",[],[1],[0.85],vertical,"(890.0, 762.0)",1.0166666666666666,nan,0,2793.512,0,0.04,same
0,338,valid,"[(1095, 761)]",[],[1],[0.5166666666666666],vertical,"(890.0, 262.0)",0.8333333333333334,0.473,1,2798.369,1,0.04,same
0,339,catch,"[(1185, 782)]",[],[1],[],horizontal,"(390.0, 262.0)",1.7,nan,1,2803.105,1,0.04,same
0,340,valid,"[(1165, 768)]",[],[1],[0.5833333333333334],horizontal,"(390.0, 762.0)",0.85,0.534,1,2808.322,1,0.04,same
0,341,valid,"[(1180, 780)]",[],[1],[0.2833333333333333],horizontal,"(390.0, 262.0)",1.4166666666666667,0.247,1,2813.356,2,0.04,same
0,342,valid,"[(1186, 760)]",[],[1],[0.5166666666666666],horizontal,"(390.0, 262.0)",0.4,0.478,1,2819.03,2,0.02,same
0,343,valid,"[(1168, 795)]",[],[1],[0.6333333333333333],vertical,"(390.0, 762.0)",1.1166666666666667,0.591,1,2823.704,2,0.02,same
0,344,valid,"[(1162, 782)]",[],[1],[0.5833333333333334],vertical,"(390.0, 762.0)",1.5333333333333332,0.541,1,2829.323,3,0.02,same
0,345,valid,"[(1185, 803)]",[],[1],[0.5],horizontal,"(890.0, 262.0)",1.2833333333333332,0.46,1,2835.439,3,0.02,same
0,346,catch,"[(1154, 782)]",[],[1],[],horizontal,"(890.0, 762.0)",1.7,nan,1,2841.39,3,0.02,same
0,347,valid,"[(1165, 789)]",[],[1],[0.65],horizontal,"(390.0, 762.0)",0.8833333333333333,0.612,1,2847.14,3,0.02,same
0,348,valid,"[(1180, 796)]",[],[1],[0.5333333333333333],horizontal,"(890.0, 262.0)",0.43333333333333335,0.49,1,2853.14,3,0.02,same
0,349,invalid_same_bar,"[(1165, 796)]",[],[1],[0.85],horizontal,"(890.0, 262.0)",0.4666666666666667,nan,0,2858.549,0,0.02,same
0,350,catch,"[(1135, 793)]",[],[1],[],horizontal,"(390.0, 262.0)",1.7,nan,1,2862.906,1,0.02,same
0,351,invalid_adjacent_other_bar,"[(1155, 781)]",[],[1],[0.5666666666666667],vertical,"(390.0, 262.0)",0.5333333333333333,0.527,1,2867.943,1,0.02,other
0,352,valid,"[(1180, 791)]",[],[1],[0.6],vertical,"(390.0, 762.0)",0.6333333333333333,0.555,1,2872.307,1,0.02,same
0,353,valid,"[(1165, 778)]",[],[1],[0.65],horizontal,"(890.0, 762.0)",0.8166666666666667,0.605,1,2876.819,2,0.02,same
0,354,valid,"[(1180, 806)]",[],[1],[0.85],vertical,"(390.0, 762.0)",0.36666666666666664,nan,0,2881.79,0,0.02,same
0,355,catch,"[(1157, 787)]",[],[1],[],vertical,"(390.0, 262.0)",1.7,nan,1,2886.039,1,0.02,same
0,356,valid,"[(1181, 783)]",[],[1],[0.45],horizontal,"(390.0, 762.0)",1.25,0.409,1,2891.281,1,0.02,same
0,357,valid,"[(1183, 782)]",[],[1],[0.85],horizontal,"(890.0, 762.0)",0.5,nan,0,2896.619,0,0.02,same
0,358,catch,"[(1136, 781)]",[],[1],[],horizontal,"(390.0, 262.0)",,"('cti', 1.481),nan",0,2900.701,0,0.04,same
0,359,valid,"[(1167, 786)]",[],[1],[],horizontal,"(890.0, 762.0)",,"('fix', 0.182)",0,2905.208,0,0.04,same
0,360,valid,"[(1154, 828)]",[],[1],[0.5166666666666666],vertical,"(890.0, 762.0)",0.7833333333333333,0.479,1,2906.737,1,0.04,same
0,361,valid,"[(1191, 789)]",[],[1],[0.5],horizontal,"(390.0, 262.0)",1.1666666666666667,0.459,1,2911.744,1,0.04,same
0,362,valid,"[(1200, 782)]",[],[1],[0.85],vertical,"(890.0, 762.0)",0.7,nan,0,2916.85,0,0.04,same
0,363,valid,"[(1144, 790)]",[],[1],[0.4666666666666667],vertical,"(890.0, 762.0)",1.35,0.426,1,2921.451,1,0.04,same
0,364,valid,"[(1185, 786)]",[],[1],[0.85],horizontal,"(390.0, 262.0)",0.65,nan,0,2926.544,0,0.04,same
0,365,valid,"[(1155, 780)]",[],[1],[0.5],vertical,"(890.0, 262.0)",1.1,0.458,1,2931.082,1,0.04,same
0,366,catch,"[(1150, 794)]",[],[1],[],vertical,"(890.0, 762.0)",1.7,nan,1,2935.89,1,0.02,same
0,367,valid,"[(1160, 800)]",[],[1],[0.45],horizontal,"(390.0, 262.0)",0.5,0.412,1,2941.126,1,0.02,same
0,368,valid,"[(1166, 782)]",[],[1],[0.7166666666666667],vertical,"(390.0, 262.0)",0.8833333333333333,0.671,1,2945.706,2,0.02,same
0,369,valid,"[(1163, 788)]",[],[1],[0.5833333333333334],vertical,"(390.0, 262.0)",1.2666666666666666,0.544,1,2951.14,2,0.02,same
0,370,valid,"[(1183, 773)]",[],[1],[0.55],vertical,"(890.0, 762.0)",0.8666666666666667,0.508,1,2956.946,2,0.02,same
0,371,valid,"[(1183, 765)]",[],[1],[0.5666666666666667],vertical,"(390.0, 762.0)",1.35,0.524,1,2962.289,3,0.02,same
0,372,valid,"[(1189, 762)]",[],[1],[0.5666666666666667],horizontal,"(390.0, 762.0)",1.45,0.529,1,2968.777,3,0.02,same
0,373,valid,"[(1188, 785)]",[],[1],[0.48333333333333334],horizontal,"(390.0, 762.0)",1.5166666666666666,0.447,1,2975.407,3,0.02,same
0,374,invalid_same_bar,"[(1174, 793)]",[],[1],[0.6666666666666666],horizontal,"(390.0, 762.0)",1.2,0.629,1,2981.723,3,0.02,same
0,375,catch,"[(1183, 785)]",[],[1],[],horizontal,"(890.0, 262.0)",1.7,nan,1,2987.656,3,0.02,same
0,376,catch,"[(1180, 776)]",[],[1],[],horizontal,"(890.0, 762.0)",1.7,nan,1,2993.792,3,0.02,same
0,377,invalid_same_bar,"[(1189, 794)]",[],[1],[0.55],horizontal,"(390.0, 262.0)",1.3,0.506,1,3000.125,3,0.02,same
0,378,valid,"[(1187, 782)]",[],[1],[0.85],vertical,"(390.0, 762.0)",0.4166666666666667,nan,0,3006.158,0,0.02,same
0,379,catch,"[(1140, 780)]",[],[1],[],vertical,"(390.0, 262.0)",1.7,nan,1,3010.339,1,0.02,same
0,380,catch,"[(1182, 779)]",[],[1],[],vertical,"(390.0, 762.0)",1.7,nan,1,3015.334,1,0.02,same
0,381,valid,"[(1185, 758)]",[],[1],[0.45],vertical,"(890.0, 262.0)",1.4666666666666666,0.411,1,3020.521,1,0.02,same
0,382,invalid_adjacent_other_bar,"[(1185, 772)]",[],[1],[0.85],horizontal,"(390.0, 762.0)",0.5666666666666667,nan,0,3026.034,0,0.02,other
0,383,catch,"[(1132, 774)]",[],[1],[],horizontal,"(890.0, 262.0)",1.7,nan,1,3030.41,1,0.02,same
0,384,valid,"[(1180, 783)]",[],[1],[0.5],vertical,"(390.0, 262.0)",0.55,0.459,1,3035.967,1,0.02,same
0,385,valid,"[(1185, 765)]",[],[1],[0.85],vertical,"(390.0, 762.0)",0.9333333333333333,nan,0,3040.572,0,0.02,same
0,386,catch,"[(1143, 786)]",[],[1],[],vertical,"(390.0, 262.0)",1.7,nan,1,3045.423,1,0.02,same
0,387,catch,"[(1180, 789)]",[],[1],[],horizontal,"(890.0, 762.0)",1.7,nan,1,3050.83,1,0.02,same
0,388,catch,"[(1180, 783)]",[],[1],[],horizontal,"(390.0, 262.0)",1.7,nan,1,3056.224,1,0.02,same
0,389,valid,"[(1175, 810)]",[],[1],[0.06666666666666667],horizontal,"(890.0, 262.0)",0.36666666666666664,0.037,0,3061.475,0,0.02,same
0,390,catch,"[(1154, 812)]",[],[1],[],vertical,"(890.0, 762.0)",1.7,nan,1,3064.888,1,0.02,same
0,391,valid,"[(1166, 774)]",[],[1],[0.55],vertical,"(390.0, 262.0)",1.35,0.506,1,3070.008,1,0.02,same
0,392,valid,"[(1185, 807)]",[],[1],[0.55],vertical,"(890.0, 262.0)",0.9,0.514,1,3075.304,1,0.02,same
0,393,catch,"[(1162, 801)]",[],[1],[0.03333333333333333],horizontal,"(390.0, 762.0)",1.7,"0.019,nan",0,3080.432,0,0.04,same
0,394,catch,"[(1146, 798)]",[],[1],[],horizontal,"(890.0, 262.0)",1.7,"('fix', 0.763),nan",0,3085.281,0,0.06,same
0,395,valid,"[(1107, 810)]",[],[1],[0.85],horizontal,"(390.0, 262.0)",1.5333333333333332,nan,0,3090.116,0,0.06,same
0,396,valid,"[(1097, 816)]","[(1046, 897)]",[1],[0.21666666666666667],horizontal,"(890.0, 262.0)",,"('bar', 0.236)",0,5322.416,0,0.06,same
0,397,valid,"[(1046, 904)]",[],[1],[],vertical,"(890.0, 262.0)",,"('fix', 0.3)",0,5333.868,0,0.06,same
0,398,valid,"[(1096, 847)]",[],[1],[0.6833333333333333],vertical,"(890.0, 762.0)",0.7,0.642,1,5336.196,1,0.06,same
0,399,valid,"[(1103, 843)]",[],[1],[0.85],vertical,"(890.0, 262.0)",0.5,nan,0,5341.834,0,0.06,same
0,400,invalid_same_bar,"[(1109, 810)]",[],[1],[0.8166666666666667],horizontal,"(890.0, 262.0)",1.1333333333333333,0.772,1,5346.399,1,0.06,same
0,401,valid,"[(1128, 827)]",[],[1],[0.75],vertical,"(890.0, 262.0)",1.0333333333333332,0.709,1,5352.349,1,0.06,same
0,402,valid,"[(1176, 816)]",[],[1],[0.85],vertical,"(890.0, 262.0)",0.48333333333333334,nan,0,5358.143,0,0.06,same
0,403,valid,"[(1109, 842)]",[],[1],[0.85],vertical,"(390.0, 762.0)",1.4666666666666666,nan,0,5362.718,0,0.06,same
0,404,valid,"[(1093, 825)]",[],[1],[0.5666666666666667],vertical,"(890.0, 762.0)",0.5333333333333333,0.53,1,5368.684,1,0.06,same
0,405,valid,"[(1132, 838)]",[],[1],[0.85],vertical,"(890.0, 762.0)",1.0833333333333333,nan,0,5380.033,0,0.06,same
0,406,valid,"[(1103, 832)]",[],[1],[0.85],vertical,"(890.0, 262.0)",0.5333333333333333,nan,0,5384.901,0,0.06,same
0,407,valid,"[(1086, 845)]",[],[1],[0.5666666666666667],vertical,"(390.0, 762.0)",0.5333333333333333,0.524,1,5389.47,1,0.06,same
0,408,valid,"[(1111, 823)]",[],[1],[0.85],vertical,"(390.0, 762.0)",0.7333333333333333,nan,0,5396.567,0,0.04,same
0,409,valid,"[(1131, 803)]",[],[1],[0.85],vertical,"(390.0, 262.0)",0.9333333333333333,nan,0,5401.268,0,0.04,same
0,410,valid,"[(1122, 810)]",[],[1],[0.6166666666666667],vertical,"(390.0, 262.0)",0.8,0.579,1,5406.034,1,0.04,same
0,411,invalid_same_bar,"[(1161, 825)]",[],[1],[0.85],horizontal,"(390.0, 262.0)",1.2833333333333332,nan,0,5411.188,0,0.04,same
0,412,invalid_same_bar,"[(1155, 818)]",[],[1],[0.5833333333333334],vertical,"(890.0, 762.0)",1.0333333333333332,0.548,1,5416.043,1,0.04,same
0,413,catch,"[(1178, 816)]",[],[1],[],vertical,"(390.0, 762.0)",1.7,nan,1,5421.415,1,0.04,same
0,414,valid,"[(1185, 803)]",[],[1],[0.65],horizontal,"(390.0, 262.0)",0.7666666666666666,0.616,1,5426.734,1,0.04,same
0,415,valid,"[(1178, 821)]",[],[1],[0.5833333333333334],vertical,"(390.0, 762.0)",0.6833333333333333,0.544,1,5431.734,2,0.04,same
0,416,valid,"[(1171, 790)]",[],[1],[0.5833333333333334],vertical,"(890.0, 762.0)",0.6833333333333333,0.547,1,5437.18,2,0.04,same
0,417,catch,"[(1167, 798)]",[],[1],[],vertical,"(390.0, 262.0)",1.7,nan,1,5442.176,2,0.04,same
0,418,valid,"[(1166, 781)]",[],[1],[0.85],vertical,"(390.0, 762.0)",1.1,nan,0,5447.767,0,0.04,same
0,419,valid,"[(1122, 813)]",[],[1],[0.55],horizontal,"(390.0, 262.0)",1.45,0.507,1,5452.563,1,0.04,same
0,420,valid,"[(1166, 808)]",[],[1],[0.85],vertical,"(890.0, 762.0)",1.0,nan,0,5458.5,0,0.04,same
0,421,valid,"[(1130, 833)]",[],[1],[0.6333333333333333],vertical,"(890.0, 262.0)",1.0166666666666666,0.594,1,5463.434,1,0.04,same
0,422,invalid_same_bar,"[(1181, 817)]",[],[1],[0.85],vertical,"(390.0, 762.0)",0.95,nan,0,5469.003,0,0.04,same
0,423,valid,"[(1140, 804)]",[],[1],[0.85],horizontal,"(390.0, 762.0)",1.15,nan,0,5473.734,0,0.04,same
0,424,catch,"[(1135, 816)]",[],[1],[],vertical,"(390.0, 762.0)",1.7,nan,1,5478.351,1,0.04,same
0,425,catch,"[(1159, 792)]",[],[1],[],vertical,"(890.0, 262.0)",1.7,nan,1,5483.551,1,0.04,same
0,426,catch,"[(1188, 792)]",[],[1],[],vertical,"(390.0, 262.0)",1.7,nan,1,5489.065,1,0.04,same
0,427,invalid_same_bar,"[(1163, 796)]",[],[1],[0.6666666666666666],horizontal,"(890.0, 762.0)",1.2,0.619,1,5494.402,2,0.04,same
0,428,valid,"[(1156, 789)]",[],[1],[0.75],horizontal,"(390.0, 762.0)",1.2833333333333332,0.703,1,5499.732,2,0.04,same
0,429,valid,"[(1177, 807)]",[],[1],[0.5833333333333334],horizontal,"(390.0, 262.0)",1.4333333333333333,0.541,1,5505.964,2,0.04,same
0,430,catch,"[(1160, 781)]",[],[1],[],vertical,"(390.0, 762.0)",1.7,nan,1,5511.935,3,0.04,same
0,431,valid,"[(1140, 802)]",[],[1],[0.6166666666666667],vertical,"(890.0, 262.0)",0.9166666666666666,0.573,1,5517.768,3,0.04,same
0,432,valid,"[(1176, 803)]",[],[1],[0.5],vertical,"(890.0, 262.0)",0.55,0.457,1,5523.349,3,0.04,same
0,433,catch,"[(1184, 792)]",[],[1],[],horizontal,"(890.0, 762.0)",1.7,nan,1,5528.851,3,0.04,same
0,434,valid,"[(1175, 787)]",[],[1],[0.7],vertical,"(890.0, 762.0)",1.1833333333333333,0.659,1,5534.951,3,0.04,same
0,435,invalid_adjacent_other_bar,"[(1175, 790)]",[],[1],[0.5333333333333333],horizontal,"(390.0, 262.0)",1.2833333333333332,0.492,1,5540.868,3,0.04,other
0,436,valid,"[(1138, 792)]",[],[1],[0.85],horizontal,"(390.0, 262.0)",0.8333333333333334,nan,0,5546.595,0,0.04,same
0,437,valid,"[(1140, 786)]",[],[1],[0.5333333333333333],horizontal,"(890.0, 262.0)",1.15,0.488,1,5551.034,1,0.04,same
0,438,valid,"[(1161, 806)]",[],[1],[0.5833333333333334],vertical,"(890.0, 262.0)",1.3166666666666667,0.551,1,5556.217,1,0.04,same
0,439,valid,"[(1163, 784)]",[],[1],[0.6333333333333333],horizontal,"(390.0, 262.0)",1.3333333333333333,0.592,1,5561.793,1,0.04,same
0,440,valid,"[(1180, 795)]",[],[1],[0.5666666666666667],horizontal,"(890.0, 262.0)",0.9166666666666666,0.529,1,5567.468,2,0.04,same
0,441,valid,"[(1180, 800)]",[],[1],[0.6166666666666667],horizontal,"(390.0, 762.0)",1.1333333333333333,0.583,1,5573.218,2,0.04,same
0,442,catch,"[(1165, 789)]",[],[1],[],vertical,"(890.0, 262.0)",1.7,nan,1,5579.313,2,0.04,same
0,443,valid,"[(1177, 791)]",[],[1],[0.55],horizontal,"(890.0, 262.0)",1.0833333333333333,0.513,1,5584.985,3,0.02,same
0,444,valid,"[(1160, 789)]",[],[1],[0.6833333333333333],horizontal,"(390.0, 262.0)",0.6666666666666666,0.649,1,5590.93,3,0.0,same
0,445,valid,"[(1168, 803)]",[],[1],[0.5666666666666667],horizontal,"(390.0, 262.0)",1.1333333333333333,0.529,1,5596.432,3,0.0,same
0,446,valid,"[(1168, 806)]",[],[1],[0.6],horizontal,"(390.0, 262.0)",1.4833333333333334,0.558,1,5602.499,3,0.0,same
0,447,catch,"[(1168, 798)]",[],[1],[],horizontal,"(890.0, 262.0)",,"('cti', 1.399),nan",0,5609.049,0,0.02,same
0,448,catch,"[(1140, 819)]",[],[1],[],horizontal,"(390.0, 262.0)",1.7,nan,1,5613.949,1,0.02,same
0,449,valid,"[(1159, 787)]",[],[1],[0.5333333333333333],vertical,"(390.0, 262.0)",1.2,0.501,1,5619.653,1,0.02,same
0,450,valid,"[(1164, 778)]",[],[1],[0.6],vertical,"(390.0, 262.0)",0.7833333333333333,0.562,1,5624.439,1,0.02,same
0,451,invalid_same_bar,"[(1190, 776)]",[],[1],[0.85],horizontal,"(890.0, 762.0)",0.8,nan,0,5629.417,0,0.02,same
0,452,invalid_adjacent_other_bar,"[(1150, 781)]",[],[1],[0.5833333333333334],vertical,"(390.0, 762.0)",0.5166666666666666,0.551,1,5634.301,1,0.02,other
0,453,valid,"[(1154, 820)]",[],[1],[0.5666666666666667],vertical,"(890.0, 762.0)",1.4666666666666666,0.524,1,5638.952,1,0.02,same
0,454,invalid_adjacent_other_bar,"[(1160, 785)]",[],[1],[0.7166666666666667],horizontal,"(390.0, 262.0)",0.35,0.676,1,5644.483,1,0.02,other
0,455,valid,"[(1179, 784)]",[],[1],[0.5666666666666667],horizontal,"(890.0, 762.0)",0.7166666666666667,0.523,1,5649.406,2,0.02,same
0,456,valid,"[(1175, 819)]",[],[1],[0.65],horizontal,"(890.0, 762.0)",1.1833333333333333,0.61,1,5654.835,2,0.02,same
0,457,valid,"[(1175, 814)]",[],[1],[0.7],horizontal,"(390.0, 762.0)",0.4,0.657,1,5660.803,2,0.02,same
0,458,invalid_same_bar,"[(1183, 787)]",[],[1],[0.7166666666666667],horizontal,"(890.0, 262.0)",0.45,0.669,1,5666.084,3,0.02,same
0,459,valid,"[(1166, 783)]",[],[1],[0.6166666666666667],vertical,"(390.0, 762.0)",0.8,0.578,1,5671.923,3,0.02,same
0,460,catch,"[(1174, 782)]",[],[1],[],vertical,"(390.0, 762.0)",1.7,nan,1,5677.701,3,0.02,same
0,461,valid,"[(1175, 785)]",[],[1],[0.6166666666666667],vertical,"(390.0, 762.0)",1.1,0.574,1,5683.867,3,0.02,same
0,462,catch,"[(1181, 796)]",[],[1],[],horizontal,"(390.0, 262.0)",1.7,nan,1,5690.304,3,0.02,same
0,463,valid,"[(1160, 789)]",[],[1],[0.85],horizontal,"(890.0, 762.0)",0.7,nan,0,5696.122,0,0.02,same
0,464,invalid_same_bar,"[(1134, 778)]",[],[1],[0.85],horizontal,"(390.0, 262.0)",0.3833333333333333,nan,0,5700.452,0,0.02,same
0,465,valid,"[(1135, 782)]",[],[1],[0.55],horizontal,"(390.0, 762.0)",0.7833333333333333,0.509,1,5704.412,1,0.02,same
0,466,invalid_same_bar,"[(1166, 807)]",[],[1],[0.85],horizontal,"(390.0, 762.0)",1.0333333333333332,nan,0,5709.02,0,0.02,same
0,467,valid,"[(1155, 801)]",[],[1],[0.65],vertical,"(890.0, 262.0)",0.35,0.607,1,5713.986,1,0.02,same
0,468,valid,"[(1170, 770)]",[],[1],[0.6],horizontal,"(390.0, 762.0)",1.2833333333333332,0.555,1,5718.536,1,0.02,same
0,469,valid,"[(1168, 775)]",[],[1],[0.5166666666666666],horizontal,"(390.0, 762.0)",0.7833333333333333,0.474,1,5724.118,1,0.02,same
0,470,valid,"[(1160, 773)]",[],[1],[0.5333333333333333],horizontal,"(890.0, 762.0)",0.4166666666666667,0.49,1,5728.66,2,0.02,same
0,471,catch,"[(1175, 820)]",[],[1],[],horizontal,"(890.0, 762.0)",1.7,nan,1,5733.523,2,0.02,same
0,472,invalid_adjacent_other_bar,"[(1180, 774)]",[],[1],[],horizontal,"(390.0, 262.0)",,"('cti', 1.031)",0,5739.255,0,0.02,other
0,473,invalid_same_bar,"[(1148, 796)]",[],[1],[0.5666666666666667],vertical,"(390.0, 262.0)",0.9833333333333333,0.533,1,5743.719,1,0.02,same
0,474,catch,"[(1155, 800)]",[],[1],[],horizontal,"(890.0, 762.0)",1.7,nan,1,5748.635,1,0.02,same
0,475,valid,"[(1180, 773)]",[],[1],[0.5333333333333333],vertical,"(390.0, 262.0)",0.6666666666666666,0.49,1,5754.001,1,0.02,same
0,476,catch,"[(1204, 810)]",[],[1],[],vertical,"(890.0, 762.0)",1.7,nan,1,5758.222,2,0.02,same
0,477,invalid_same_bar,"[(1157, 795)]",[],[1],[0.7166666666666667],horizontal,"(890.0, 262.0)",0.8166666666666667,0.678,1,5764.219,2,0.02,same
0,478,valid,"[(1163, 783)]",[],[1],[0.6166666666666667],vertical,"(390.0, 262.0)",1.1,0.578,1,5769.902,2,0.02,same
0,479,valid,"[(1214, 788)]",[],[1],[0.6],vertical,"(890.0, 762.0)",0.36666666666666664,0.558,1,5775.351,3,0.02,same
0,480,valid,"[(1180, 794)]",[],[1],[0.55],horizontal,"(390.0, 762.0)",1.4666666666666666,0.511,1,5780.683,3,0.02,same
0,481,valid,"[(1175, 784)]",[],[1],"[0.85, 0.85]",vertical,"(390.0, 762.0)",1.0666666666666667,"0.798,nan",0,5786.836,0,0.02,same
0,482,catch,"[(1153, 788)]",[],[1],[],vertical,"(390.0, 262.0)",1.7,nan,1,5791.816,1,0.02,same
0,483,catch,"[(1140, 819)]",[],[1],[],vertical,"(890.0, 262.0)",1.7,nan,1,5797.131,1,0.02,same
0,484,valid,"[(1175, 795)]",[],[1],[0.7],vertical,"(390.0, 262.0)",1.3166666666666667,0.664,1,5802.401,1,0.02,same
0,485,catch,"[(1159, 782)]",[],[1],[],vertical,"(390.0, 262.0)",1.7,nan,1,5807.673,2,0.02,same
0,486,catch,"[(1163, 779)]",[],[1],[],vertical,"(890.0, 262.0)",1.7,nan,1,5813.203,2,0.02,same
0,487,valid,"[(1208, 789)]",[],[1],[0.5833333333333334],vertical,"(890.0, 762.0)",0.9333333333333333,0.547,1,5818.551,2,0.02,same
0,488,catch,"[(1158, 792)]",[],[1],[],horizontal,"(890.0, 762.0)",1.7,nan,1,5824.335,3,0.02,same
0,489,valid,"[(1213, 820)]",[],[1],[0.7666666666666666],horizontal,"(890.0, 762.0)",1.3833333333333333,0.718,1,5830.269,3,0.02,same
0,490,invalid_adjacent_other_bar,"[(1200, 782)]",[],[1],[0.5333333333333333],vertical,"(890.0, 262.0)",0.4,0.495,1,5836.276,3,0.02,other
0,491,valid,"[(1175, 776)]",[],[1],[0.7],horizontal,"(890.0, 262.0)",0.95,0.658,1,5841.607,3,0.02,same
0,492,valid,"[(1210, 797)]",[],[1],[0.5333333333333333],horizontal,"(390.0, 762.0)",0.6666666666666666,0.496,1,5847.551,3,0.02,same
0,493,valid,"[(1171, 785)]",[],[1],[0.6],horizontal,"(890.0, 762.0)",1.4,0.558,1,5853.218,3,0.02,same
0,494,valid,"[(1185, 792)]",[],[1],[0.7833333333333333],horizontal,"(890.0, 262.0)",0.9833333333333333,0.738,1,5859.433,3,0.02,same
0,495,valid,"[(1181, 800)]",[],[1],[0.5666666666666667],horizontal,"(390.0, 262.0)",1.0,0.53,1,5865.336,3,0.02,same
0,496,valid,"[(1160, 790)]",[],[1],[0.65],horizontal,"(390.0, 262.0)",1.3166666666666667,0.609,1,5871.353,3,0.02,same
0,497,valid,"[(1161, 802)]",[],[1],[0.6333333333333333],vertical,"(390.0, 762.0)",1.3833333333333333,0.591,1,5877.635,3,0.0,same
0,498,catch,"[(1160, 802)]",[],[1],[],horizontal,"(890.0, 762.0)",1.7,nan,1,5883.817,3,0.0,same
0,499,valid,"[(1183, 801)]",[],[1],[0.55],horizontal,"(890.0, 762.0)",0.43333333333333335,0.518,1,5889.975,3,0.0,same
0,500,valid,"[(1181, 776)]",[],[1],[0.6166666666666667],vertical,"(390.0, 262.0)",1.5166666666666666,0.576,1,5895.102,3,0.0,same
0,501,valid,"[(1155, 786)]",[],[1],[0.5333333333333333],horizontal,"(890.0, 762.0)",0.36666666666666664,0.494,1,5901.871,3,0.0,same
0,502,valid,"[(1178, 777)]",[],[1],[0.6833333333333333],vertical,"(890.0, 762.0)",0.35,0.643,1,5907.085,3,0.0,same
0,503,valid,"[(1159, 800)]",[],[1],[0.5666666666666667],horizontal,"(390.0, 262.0)",0.6166666666666667,0.533,1,5912.127,3,0.0,same
0,504,catch,"[(1165, 801)]",[],[1],[],horizontal,"(390.0, 762.0)",1.7,nan,1,5917.279,3,0.0,same
0,505,valid,"[(1181, 794)]",[],[1],[0.5333333333333333],horizontal,"(390.0, 262.0)",1.1166666666666667,0.494,1,5923.122,3,0.0,same
0,506,invalid_same_bar,"[(1185, 795)]",[],[1],[0.5833333333333334],vertical,"(390.0, 762.0)",0.7333333333333333,0.541,1,5929.296,3,0.0,same
0,507,valid,"[(1185, 791)]",[],[1],[0.6166666666666667],horizontal,"(890.0, 762.0)",0.9333333333333333,0.584,1,5935.097,3,0.0,same
0,508,invalid_adjacent_other_bar,"[(1157, 801)]",[],[1],[0.7333333333333333],horizontal,"(390.0, 762.0)",1.0,0.696,1,5940.77,3,0.0,other
0,509,catch,"[(1177, 787)]",[],[1],[],horizontal,"(390.0, 762.0)",1.7,nan,1,5946.838,3,0.0,same
0,510,valid,"[(1180, 781)]",[],[1],[0.5333333333333333],horizontal,"(890.0, 262.0)",0.5,0.5,1,5952.657,3,0.0,same
0,511,valid,"[(1185, 763)]",[],[1],[0.85],vertical,"(390.0, 262.0)",1.35,nan,0,5958.386,0,0.0,same
0,512,invalid_same_bar,"[(1164, 791)]",[],[1],[0.8],horizontal,"(890.0, 262.0)",1.1833333333333333,0.759,1,5963.612,1,0.0,same
0,513,catch,"[(1181, 787)]",[],[1],[],vertical,"(890.0, 262.0)",1.7,nan,1,5968.929,1,0.0,same
0,514,catch,"[(1169, 775)]",[],[1],[],vertical,"(890.0, 262.0)",1.7,nan,1,5974.546,1,0.0,same
0,515,valid,"[(1185, 778)]",[],[1],[0.85],vertical,"(890.0, 262.0)",0.4666666666666667,nan,0,5979.767,0,0.0,same
0,516,valid,"[(1135, 811)]",[],[1],[0.6],horizontal,"(390.0, 762.0)",0.95,0.562,1,5983.853,1,0.0,same
0,517,valid,"[(1183, 804)]",[],[1],[0.5666666666666667],horizontal,"(390.0, 262.0)",1.35,0.524,1,5989.185,1,0.0,same
0,518,catch,"[(1185, 799)]",[],[1],[],vertical,"(390.0, 762.0)",1.7,nan,1,5994.653,1,0.0,same
0,519,valid,"[(1208, 788)]",[],[1],[0.6666666666666666],horizontal,"(890.0, 762.0)",1.1833333333333333,0.629,1,6000.103,2,0.0,same
0,520,valid,"[(1190, 781)]",[],[1],[0.5333333333333333],vertical,"(390.0, 262.0)",0.43333333333333335,0.502,1,6005.665,2,0.0,same
0,521,valid,"[(1170, 774)]",[],[1],[0.75],horizontal,"(890.0, 262.0)",0.6333333333333333,0.703,1,6010.27,2,0.0,same
0,522,valid,"[(1180, 814)]",[],[1],[0.6333333333333333],vertical,"(390.0, 762.0)",1.1833333333333333,0.593,1,6015.832,3,0.0,same
0,523,valid,"[(1175, 796)]",[],[1],[0.5333333333333333],horizontal,"(390.0, 762.0)",1.05,0.492,1,6022.653,3,0.0,same
0,524,valid,"[(1165, 807)]",[],[1],[0.5166666666666666],horizontal,"(890.0, 262.0)",1.4,0.476,1,6028.587,3,0.0,same
0,525,valid,"[(1160, 801)]",[],[1],[0.85],horizontal,"(390.0, 262.0)",0.9166666666666666,nan,0,6035.335,0,0.0,same
0,526,valid,"[(1139, 796)]",[],[1],[0.5333333333333333],vertical,"(890.0, 762.0)",0.5333333333333333,0.498,1,6040.203,1,0.0,same
0,527,invalid_same_bar,"[(1150, 809)]",[],[1],[0.85],horizontal,"(390.0, 762.0)",1.0166666666666666,nan,0,6044.76,0,0.0,same
0,528,valid,"[(1144, 785)]",[],[1],[0.6666666666666666],vertical,"(890.0, 762.0)",1.0833333333333333,0.623,1,6050.13,1,0.0,same
0,529,valid,"[(1155, 795)]",[],[1],[0.6333333333333333],horizontal,"(390.0, 762.0)",1.4666666666666666,0.593,1,6055.098,1,0.0,same
0,530,valid,"[(1187, 777)]",[],[1],[0.6],vertical,"(890.0, 262.0)",1.1333333333333333,0.559,1,6060.445,1,0.0,same
0,531,valid,"[(1188, 796)]",[],[1],[0.7],horizontal,"(390.0, 762.0)",1.2666666666666666,0.657,1,6065.454,2,0.0,same
0,532,valid,"[(1188, 785)]",[],[1],[0.85],horizontal,"(390.0, 762.0)",0.9833333333333333,nan,0,6071.079,0,0.0,same
0,533,valid,"[(1166, 785)]",[],[1],[0.5166666666666666],vertical,"(890.0, 762.0)",1.3166666666666667,0.476,1,6076.087,1,0.0,same
0,534,valid,"[(1189, 803)]",[],[1],[0.5666666666666667],vertical,"(890.0, 262.0)",1.2833333333333332,0.528,1,6081.637,1,0.0,same
0,535,valid,"[(1190, 777)]",[],[1],[0.5666666666666667],vertical,"(890.0, 262.0)",0.8,0.527,1,6087.037,1,0.0,same
0,536,invalid_same_bar,"[(1170, 799)]",[],[1],[0.55],horizontal,"(390.0, 262.0)",0.6333333333333333,0.508,1,6091.904,2,0.0,same
0,537,invalid_same_bar,"[(1190, 786)]",[],[1],[0.5833333333333334],horizontal,"(390.0, 262.0)",0.4666666666666667,0.56,1,6097.214,2,0.0,same
0,538,valid,"[(1181, 794)]",[],[1],[0.65],vertical,"(890.0, 762.0)",1.4166666666666667,0.601,1,6102.315,2,0.0,same
0,539,valid,"[(1185, 817)]",[],[1],[0.5333333333333333],vertical,"(890.0, 762.0)",1.3833333333333333,0.488,1,6108.211,3,0.0,same
0,540,catch,"[(1185, 773)]",[],[1],[],vertical,"(390.0, 762.0)",1.7,nan,1,6114.874,3,0.0,same
0,541,valid,"[(1165, 786)]",[],[1],[0.65],horizontal,"(390.0, 262.0)",0.7833333333333333,0.613,1,6120.551,3,0.0,same
0,542,valid,"[(1180, 777)]",[],[1],[0.5333333333333333],vertical,"(390.0, 262.0)",0.5666666666666667,0.491,1,6126.448,3,0.0,same
0,543,valid,"[(1141, 776)]",[],[1],[0.85],vertical,"(390.0, 762.0)",1.2,nan,0,6131.96,0,0.0,same
0,544,valid,"[(1148, 804)]",[],[1],[0.6333333333333333],horizontal,"(390.0, 262.0)",0.4666666666666667,0.591,1,6136.846,1,0.0,same
0,545,catch,"[(1185, 796)]",[],[1],[],horizontal,"(890.0, 262.0)",1.7,nan,1,6141.332,1,0.0,same
0,546,valid,"[(1194, 771)]",[],[1],[0.5166666666666666],horizontal,"(890.0, 262.0)",0.3833333333333333,0.476,1,6146.854,1,0.0,same
0,547,invalid_same_bar,"[(1181, 791)]",[],[1],[0.6],vertical,"(890.0, 262.0)",0.7166666666666667,0.551,1,6151.206,2,0.0,same
0,548,valid,"[(1156, 791)]",[],[1],[0.8333333333333334],vertical,"(890.0, 262.0)",1.0,0.799,1,6156.745,2,0.0,same
0,549,catch,"[(1158, 777)]",[],[1],[],vertical,"(890.0, 762.0)",1.7,nan,1,6162.498,2,0.0,same
0,550,valid,"[(1157, 785)]",[],[1],[0.6833333333333333],horizontal,"(890.0, 262.0)",0.9833333333333333,0.645,1,6168.487,3,0.0,same
0,551,valid,"[(1191, 801)]",[],[1],[0.5833333333333334],horizontal,"(890.0, 262.0)",0.6166666666666667,0.542,1,6174.637,3,0.0,same
0,552,valid,"[(1155, 781)]",[],[1],[0.5666666666666667],horizontal,"(890.0, 762.0)",1.3333333333333333,0.526,1,6180.041,3,0.0,same
0,553,valid,"[(1193, 783)]",[],[1],[0.55],vertical,"(890.0, 262.0)",0.6166666666666667,0.511,1,6186.257,3,0.0,same
0,554,valid,"[(1155, 771)]",[],[1],[0.85],vertical,"(390.0, 262.0)",0.3833333333333333,nan,0,6191.764,0,0.0,same
0,555,invalid_same_bar,"[(1155, 804)]",[],[1],[0.5333333333333333],vertical,"(390.0, 262.0)",0.5333333333333333,0.495,1,6196.035,1,0.0,same
0,556,valid,"[(1185, 778)]",[],[1],[0.5],vertical,"(890.0, 262.0)",1.05,0.463,1,6201.022,1,0.0,same
0,557,valid,"[(1160, 809)]",[],[1],[0.5833333333333334],vertical,"(390.0, 262.0)",1.5333333333333332,0.543,1,6206.47,1,0.0,same
0,558,valid,"[(1193, 789)]",[],[1],[0.85],horizontal,"(890.0, 262.0)",0.5333333333333333,nan,0,6212.03,0,0.0,same
0,559,catch,"[(1161, 811)]",[],[1],[],vertical,"(390.0, 762.0)",1.7,nan,1,6216.37,1,0.0,same
0,560,catch,"[(1159, 787)]",[],[1],[],horizontal,"(390.0, 762.0)",1.7,nan,1,6221.603,1,0.0,same
0,561,catch,"[(1186, 780)]",[],[1],[],vertical,"(390.0, 262.0)",1.7,nan,1,6226.862,1,0.0,same
0,562,valid,"[(1185, 800)]",[],[1],[0.6333333333333333],horizontal,"(390.0, 762.0)",0.5833333333333334,0.587,1,6231.836,2,0.0,same
0,563,invalid_same_bar,"[(1200, 777)]",[],[1],[0.6833333333333333],vertical,"(390.0, 762.0)",0.6833333333333333,0.64,1,6236.837,2,0.0,same
0,564,catch,"[(1188, 805)]",[],[1],[],vertical,"(890.0, 262.0)",1.7,nan,1,6242.097,2,0.0,same
0,565,valid,"[(1183, 793)]",[],[1],[0.5166666666666666],vertical,"(890.0, 762.0)",0.9166666666666666,0.484,1,6247.905,3,0.0,same
0,566,invalid_same_bar,"[(1206, 774)]",[],[1],[0.55],vertical,"(890.0, 762.0)",0.9666666666666667,0.509,1,6253.758,3,0.0,same
0,567,invalid_adjacent_other_bar,"[(1185, 783)]",[],[1],[0.65],horizontal,"(390.0, 762.0)",1.0333333333333332,0.607,1,6259.536,3,0.0,other
0,568,valid,"[(1161, 782)]",[],[1],[0.5333333333333333],horizontal,"(890.0, 262.0)",1.4833333333333334,0.487,1,6265.537,3,0.0,same
0,569,invalid_adjacent_other_bar,"[(1180, 778)]",[],[1],[0.85],vertical,"(390.0, 262.0)",0.5166666666666666,nan,0,6272.053,0,0.0,other
0,570,valid,"[(1149, 797)]",[],[1],[0.85],horizontal,"(390.0, 262.0)",0.5666666666666667,nan,0,6276.366,0,0.0,same
0,571,valid,"[(1125, 843)]",[],[1],[0.85],horizontal,"(890.0, 762.0)",0.4666666666666667,nan,0,6281.021,0,0.0,same
0,572,catch,"[(1146, 797)]",[],[1],[],vertical,"(890.0, 262.0)",1.7,nan,1,6318.338,1,0.0,same
0,573,catch,"[(1183, 772)]",[],[1],[],vertical,"(890.0, 762.0)",1.7,nan,1,6323.656,1,0.0,same
0,574,valid,"[(1178, 768)]",[],[1],[0.5833333333333334],horizontal,"(390.0, 762.0)",0.65,0.549,1,6329.04,1,0.0,same
0,575,valid,"[(1184, 780)]",[],[1],[0.5166666666666666],vertical,"(890.0, 262.0)",1.4,0.48,1,6333.777,2,0.0,same
0,576,valid,"[(1165, 797)]",[],[1],[0.6833333333333333],vertical,"(390.0, 762.0)",0.4,0.637,1,6339.436,2,0.0,same
0,577,valid,"[(1180, 767)]",[],[1],[0.85],vertical,"(390.0, 262.0)",1.15,nan,0,6344.315,0,0.0,same
0,578,valid,"[(1148, 792)]",[],[1],[0.6666666666666666],vertical,"(890.0, 262.0)",0.4666666666666667,0.618,1,6349.18,1,0.0,same
0,579,valid,"[(1180, 773)]",[],[1],[0.5333333333333333],horizontal,"(890.0, 262.0)",0.95,0.491,1,6353.698,1,0.0,same
0,580,catch,"[(1200, 777)]",[],[1],[],vertical,"(390.0, 262.0)",1.7,nan,1,6358.917,1,0.0,same
0,581,valid,"[(1185, 780)]",[],[1],[0.55],horizontal,"(890.0, 762.0)",1.4833333333333334,0.513,1,6364.079,2,0.0,same
0,582,valid,"[(1155, 772)]",[],[1],[0.6333333333333333],vertical,"(390.0, 262.0)",1.0666666666666667,0.59,1,6370.213,2,0.0,same
0,583,valid,"[(1182, 778)]",[],[1],[0.6],horizontal,"(390.0, 762.0)",1.2,0.565,1,6375.688,2,0.0,same
0,584,valid,"[(1190, 766)]",[],[1],[0.55],vertical,"(890.0, 262.0)",1.5333333333333332,0.51,1,6381.148,3,0.0,same
0,585,valid,"[(1193, 750), (1165, 811)]",[],"[0, 1]",[0.6333333333333333],vertical,"(390.0, 762.0)",0.6666666666666666,0.594,1,6387.737,3,0.0,same
0,586,valid,"[(1185, 761)]",[],[1],[0.6],vertical,"(390.0, 762.0)",0.45,0.556,1,6394.504,3,0.0,same
0,587,valid,"[(1160, 762)]",[],[1],[0.75],horizontal,"(890.0, 262.0)",0.43333333333333335,0.701,1,6399.714,3,0.0,same
0,588,valid,"[(1189, 805)]",[],[1],"[0.85, 0.85]",vertical,"(890.0, 262.0)",0.43333333333333335,"0.806,nan",0,6405.548,0,0.0,same
0,589,catch,"[(1155, 795)]",[],[1],[],horizontal,"(890.0, 262.0)",1.7,nan,1,6410.131,1,0.0,same
0,590,valid,"[(1180, 760)]",[],[1],[0.7166666666666667],horizontal,"(390.0, 762.0)",0.7,0.673,1,6415.021,1,0.0,same
0,591,valid,"[(1180, 765)]",[],[1],[0.8],horizontal,"(390.0, 762.0)",0.4166666666666667,0.755,1,6419.96,1,0.0,same
0,592,valid,"[(1189, 801)]",[],[1],[0.5333333333333333],vertical,"(390.0, 762.0)",0.8166666666666667,0.497,1,6424.853,2,0.0,same
0,593,catch,"[(1150, 760)]",[],[1],[],horizontal,"(390.0, 262.0)",1.7,nan,1,6430.141,2,0.0,same
0,594,invalid_same_bar,"[(1189, 769)]",[],[1],[0.5333333333333333],vertical,"(890.0, 762.0)",0.6833333333333333,0.5,1,6435.733,2,0.0,same
0,595,catch,"[(1190, 798)]",[],[1],[],horizontal,"(390.0, 262.0)",1.7,nan,1,6440.734,3,0.0,same
0,596,valid,"[(1161, 782)]",[],[1],[0.85],vertical,"(390.0, 262.0)",0.6166666666666667,nan,0,6446.988,0,0.0,same
0,597,catch,"[(1155, 798)]",[],[1],[],horizontal,"(890.0, 262.0)",1.7,nan,1,6451.527,1,0.0,same
0,598,invalid_adjacent_other_bar,"[(1185, 779)]",[],[1],[0.5166666666666666],horizontal,"(890.0, 262.0)",0.9166666666666666,0.487,1,6456.892,1,0.0,other
0,599,valid,"[(1185, 781)]",[],[1],[0.6333333333333333],vertical,"(890.0, 262.0)",0.7,0.588,1,6461.98,1,0.0,same
0,600,valid,"[(1190, 777)]",[],[1],[0.5333333333333333],vertical,"(890.0, 762.0)",0.5,0.493,1,6467.341,2,0.0,same
0,601,catch,"[(1190, 810)]",[],[1],[],vertical,"(890.0, 762.0)",1.7,nan,1,6472.122,2,0.0,same
0,602,valid,"[(1200, 805)]",[],[1],[0.5],vertical,"(390.0, 262.0)",0.85,0.462,1,6477.973,2,0.0,same
0,603,invalid_same_bar,"[(1188, 787)]",[],[1],[0.6666666666666666],vertical,"(390.0, 262.0)",0.6666666666666666,0.62,1,6483.454,3,0.0,same
0,604,catch,"[(1190, 791)]",[],[1],[],horizontal,"(890.0, 762.0)",1.7,nan,1,6488.979,3,0.0,same
0,605,valid,"[(1203, 794)]",[],[1],[0.55],horizontal,"(890.0, 762.0)",1.2666666666666666,0.517,1,6494.99,3,0.0,same
0,606,invalid_same_bar,"[(1161, 796)]",[],[1],[0.6833333333333333],vertical,"(890.0, 762.0)",0.9166666666666666,0.644,1,6501.4,3,0.0,same
0,607,valid,"[(1170, 771)]",[],[1],[0.5333333333333333],vertical,"(390.0, 262.0)",0.4166666666666667,0.491,1,6507.399,3,0.0,same
0,608,valid,"[(1177, 757)]",[],[1],[0.65],vertical,"(890.0, 262.0)",0.9166666666666666,0.607,1,6512.488,3,0.0,same
0,609,catch,"[(1189, 798)]",[],[1],[],vertical,"(390.0, 762.0)",1.7,nan,1,6518.271,3,0.0,same
0,610,invalid_same_bar,"[(1181, 786)]",[],[1],[0.6166666666666667],vertical,"(890.0, 262.0)",0.5833333333333334,0.573,1,6524.632,3,0.0,same
0,611,valid,"[(1185, 776)]",[],[1],[0.5333333333333333],horizontal,"(390.0, 762.0)",0.48333333333333334,0.493,1,6530.277,3,0.0,same
0,612,valid,"[(1180, 785)]",[],[1],[0.5333333333333333],vertical,"(890.0, 762.0)",0.9333333333333333,0.493,1,6535.194,3,0.0,same
0,613,catch,"[(1185, 783)]",[],[1],[],vertical,"(890.0, 262.0)",1.7,nan,1,6540.82,3,0.0,same
0,614,valid,"[(1185, 787)]",[],[1],[0.65],horizontal,"(390.0, 262.0)",1.3166666666666667,0.611,1,6546.909,3,0.0,same
0,615,valid,"[(1185, 769)]",[],[1],[0.85],vertical,"(890.0, 762.0)",1.2166666666666666,nan,0,6553.221,0,0.0,same
0,616,valid,"[(1185, 783)]",[],[1],[0.5833333333333334],vertical,"(390.0, 262.0)",0.8,0.541,1,6558.518,1,0.0,same
0,617,valid,"[(1191, 795)]",[],[1],[0.65],vertical,"(390.0, 262.0)",0.6833333333333333,0.605,1,6563.421,1,0.0,same
0,618,valid,"[(1155, 786)]",[],[1],[0.6333333333333333],vertical,"(890.0, 262.0)",0.75,0.587,1,6568.306,1,0.0,same
0,619,invalid_adjacent_other_bar,"[(1156, 786)]",[],[1],[0.65],horizontal,"(390.0, 762.0)",1.3,0.603,1,6572.99,2,0.0,other
0,620,catch,"[(1155, 773)]",[],[1],[],vertical,"(890.0, 762.0)",1.7,nan,1,6579.007,2,0.0,same
0,621,catch,"[(1182, 786)]",[],[1],[],horizontal,"(890.0, 262.0)",1.7,nan,1,6584.705,2,0.0,same
0,622,valid,"[(1185, 781)]",[],[1],[0.7166666666666667],vertical,"(390.0, 262.0)",0.55,0.664,1,6590.188,3,0.0,same
0,623,valid,"[(1198, 792)]",[],[1],[0.6333333333333333],horizontal,"(390.0, 262.0)",0.9666666666666667,0.601,1,6595.922,3,0.0,same
0,624,invalid_same_bar,"[(1175, 795)]",[],[1],[0.6333333333333333],horizontal,"(890.0, 762.0)",0.7666666666666666,0.595,1,6601.858,3,0.0,same
0,625,catch,"[(1155, 782)]",[],[1],[],vertical,"(390.0, 262.0)",1.7,nan,1,6607.282,3,0.0,same
0,626,invalid_same_bar,"[(1161, 772)]",[],[1],[0.85],horizontal,"(390.0, 762.0)",1.2666666666666666,nan,0,6613.577,0,0.0,same
0,627,invalid_adjacent_other_bar,"[(1156, 783)]",[],[1],[0.65],vertical,"(890.0, 762.0)",1.35,0.609,1,6618.867,1,0.0,other
0,628,valid,"[(1183, 773)]",[],[1],[0.5166666666666666],horizontal,"(890.0, 262.0)",1.3,0.478,1,6624.222,1,0.0,same
0,629,catch,"[(1196, 777)]",[],[1],[],horizontal,"(890.0, 262.0)",1.7,nan,1,6629.406,1,0.0,same
0,630,catch,"[(1183, 780)]",[],[1],[],vertical,"(390.0, 262.0)",1.7,nan,1,6634.389,2,0.0,same
0,631,valid,"[(1194, 774)]",[],[1],[0.5833333333333334],vertical,"(390.0, 762.0)",0.8,0.542,1,6639.771,2,0.0,same
0,632,valid,"[(1157, 785)]",[],[1],[0.6333333333333333],vertical,"(390.0, 262.0)",1.35,0.597,1,6644.648,2,0.0,same
0,633,catch,"[(1200, 799)]",[],[1],[],vertical,"(390.0, 762.0)",1.7,nan,1,6650.872,3,0.0,same
0,634,valid,"[(1180, 761)]",[],[1],[0.5666666666666667],horizontal,"(390.0, 262.0)",1.25,0.529,1,6656.671,3,0.0,same
0,635,invalid_adjacent_other_bar,"[(1185, 801)]",[],[1],[0.6166666666666667],vertical,"(890.0, 262.0)",0.4166666666666667,0.574,1,6663.072,3,0.0,other
0,636,catch,"[(1158, 779)]",[],[1],[],horizontal,"(390.0, 762.0)",1.7,nan,1,6668.133,3,0.0,same
0,637,valid,"[(1154, 769)]",[],[1],[0.5333333333333333],vertical,"(390.0, 762.0)",0.6166666666666667,0.495,1,6674.138,3,0.0,same
0,638,valid,"[(1157, 769)]",[],[1],[0.6833333333333333],horizontal,"(890.0, 262.0)",0.6,0.636,1,6679.637,3,0.0,same
0,639,valid,"[(1189, 762)]",[],[1],[0.55],horizontal,"(890.0, 762.0)",1.5,0.511,1,6685.04,3,0.0,same
0,640,catch,"[(1187, 800)]",[],[1],[],vertical,"(890.0, 262.0)",1.7,nan,1,6691.538,3,0.0,same
0,641,valid,"[(1145, 771)]",[],[1],[0.4166666666666667],horizontal,"(390.0, 762.0)",0.8666666666666667,0.387,1,6697.373,3,0.0,same
0,642,valid,"[(1186, 773)]",[],[1],[0.6333333333333333],vertical,"(390.0, 762.0)",1.3,0.601,1,6702.827,3,0.0,same
0,643,valid,"[(1191, 791)]",[],[1],[0.5166666666666666],vertical,"(890.0, 262.0)",1.2833333333333332,0.479,1,6709.056,3,0.0,same
0,644,valid,"[(1178, 761)]",[],[1],[0.5333333333333333],vertical,"(390.0, 762.0)",0.9166666666666666,0.498,1,6715.206,3,0.0,same
0,645,invalid_adjacent_other_bar,"[(1180, 795)]",[],[1],[0.5166666666666666],vertical,"(890.0, 262.0)",0.9166666666666666,0.484,1,6721.189,3,0.0,other
0,646,catch,"[(1155, 769)]",[],[1],[],horizontal,"(890.0, 262.0)",1.7,nan,1,6727.13,3,0.0,same
0,647,valid,"[(1180, 774)]",[],[1],[0.7],horizontal,"(390.0, 262.0)",0.35,0.656,1,6733.455,3,0.0,same
0,648,valid,"[(1155, 772)]",[],[1],[0.5333333333333333],horizontal,"(890.0, 262.0)",1.0666666666666667,0.492,1,6738.756,3,0.0,same
0,649,valid,"[(1180, 772)]",[],[1],[0.6833333333333333],horizontal,"(890.0, 762.0)",0.4,0.635,1,6744.284,3,0.0,same
0,650,catch,"[(1159, 795)]",[],[1],[],vertical,"(390.0, 262.0)",1.7,nan,1,6750.069,3,0.0,same
0,651,valid,"[(1159, 791)]",[],[1],[0.5333333333333333],vertical,"(890.0, 762.0)",0.4666666666666667,0.501,1,6756.294,3,0.0,same
0,652,valid,"[(1188, 784)]",[],[1],[0.5833333333333334],vertical,"(390.0, 762.0)",1.0,0.541,1,6761.79,3,0.0,same
0,653,invalid_adjacent_other_bar,"[(1175, 773)]",[],[1],[0.85],vertical,"(390.0, 762.0)",1.3833333333333333,nan,0,6767.867,0,0.0,other
0,654,valid,"[(1155, 794)]",[],[1],[0.5333333333333333],horizontal,"(390.0, 762.0)",0.3833333333333333,0.489,1,6773.214,1,0.0,same
0,655,valid,"[(1153, 797)]",[],[1],[0.8166666666666667],vertical,"(390.0, 762.0)",1.2,0.767,1,6777.845,1,0.0,same
0,656,valid,"[(1195, 767)]",[],[1],[0.6333333333333333],vertical,"(890.0, 262.0)",0.6833333333333333,0.601,1,6783.789,1,0.0,same
0,657,valid,"[(1145, 794)]",[],[1],[0.6833333333333333],vertical,"(890.0, 762.0)",0.9833333333333333,0.638,1,6788.657,2,0.0,same
0,658,catch,"[(1138, 786)]",[],[1],[],vertical,"(390.0, 262.0)",1.7,nan,1,6794.226,2,0.0,same
0,659,invalid_adjacent_other_bar,"[(1175, 790)]",[],[1],[0.06666666666666667],horizontal,"(390.0, 762.0)",1.0833333333333333,0.036,0,6800.133,0,0.0,other
0,660,valid,"[(1115, 847)]",[],[1],[0.85],horizontal,"(890.0, 762.0)",0.36666666666666664,nan,0,6804.505,0,0.0,same
0,661,valid,"[(1125, 809)]",[],[1],[],horizontal,"(890.0, 762.0)",,"('cti', 1.049)",0,6853.539,0,0.0,same
0,662,valid,"[(1156, 822)]",[],[1],[0.5],horizontal,"(390.0, 762.0)",1.3333333333333333,0.455,1,6858.314,1,0.0,same
0,663,catch,"[(1158, 794)]",[],[1],[],vertical,"(390.0, 762.0)",1.7,nan,1,6864.021,1,0.0,same
0,664,valid,"[(1194, 787)]",[],[1],[0.6333333333333333],vertical,"(890.0, 762.0)",1.5333333333333332,0.59,1,6869.79,1,0.0,same
0,665,valid,"[(1155, 783)]",[],[1],[0.85],horizontal,"(390.0, 762.0)",0.4,nan,0,6875.59,0,0.0,same
0,666,catch,"[(1160, 799)]",[],[1],[],vertical,"(890.0, 762.0)",1.7,nan,1,6879.856,1,0.0,same
0,667,valid,"[(1200, 784)]",[],[1],[0.6333333333333333],horizontal,"(390.0, 262.0)",0.6666666666666666,0.594,1,6884.782,1,0.0,same
0,668,valid,"[(1179, 781)]",[],[1],[0.55],horizontal,"(890.0, 762.0)",1.4666666666666666,0.505,1,6889.825,1,0.0,same
0,669,valid,"[(1190, 752), (1115, 832)]",[],"[0, 1]",[0.65],horizontal,"(890.0, 262.0)",1.1166666666666667,0.604,1,6895.689,2,0.0,same
0,670,valid,"[(1175, 786)]",[],[1],[0.5166666666666666],horizontal,"(890.0, 262.0)",0.7333333333333333,0.474,1,6902.789,2,0.0,same
0,671,valid,"[(1117, 836)]",[],[1],[0.55],vertical,"(390.0, 262.0)",1.1166666666666667,0.513,1,6907.706,2,0.0,same
0,672,invalid_adjacent_other_bar,"[(1178, 782)]",[],[1],[0.7],horizontal,"(390.0, 262.0)",1.5166666666666666,0.647,1,6913.699,3,0.0,other
0,673,valid,"[(1185, 825)]",[],[1],[0.6833333333333333],vertical,"(390.0, 262.0)",1.4166666666666667,0.638,1,6919.84,3,0.0,same
0,674,valid,"[(1184, 774)]",[],[1],[0.6333333333333333],horizontal,"(390.0, 762.0)",1.3166666666666667,0.586,1,6925.801,3,0.0,same
0,675,valid,"[(1182, 804)]",[],[1],[0.5333333333333333],vertical,"(390.0, 762.0)",1.2666666666666666,0.489,1,6932.146,3,0.0,same
0,676,valid,"[(1185, 786)]",[],[1],[0.85],vertical,"(390.0, 262.0)",0.5666666666666667,nan,0,6937.89,0,0.0,same
0,677,catch,"[(1143, 793)]",[],[1],[],horizontal,"(390.0, 762.0)",1.7,nan,1,6942.306,1,0.0,same
0,678,valid,"[(1171, 784)]",[],[1],[0.5666666666666667],vertical,"(390.0, 762.0)",1.4166666666666667,0.532,1,6947.674,1,0.0,same
0,679,valid,"[(1173, 806)]",[],[1],[0.65],vertical,"(390.0, 762.0)",0.9833333333333333,0.607,1,6952.936,1,0.0,same
0,680,invalid_adjacent_other_bar,"[(1160, 814)]",[],[1],[0.55],vertical,"(890.0, 762.0)",1.3166666666666667,0.517,1,6958.157,2,0.0,other
0,681,invalid_adjacent_other_bar,"[(1158, 802)]",[],[1],[0.5666666666666667],horizontal,"(890.0, 262.0)",0.9833333333333333,0.527,1,6964.023,2,0.0,other
0,682,valid,"[(1166, 765)]",[],[1],[0.43333333333333335],horizontal,"(890.0, 262.0)",1.5166666666666666,0.395,1,6969.806,2,0.0,same
0,683,valid,"[(1183, 796)]",[],[1],[0.6],horizontal,"(390.0, 762.0)",1.2166666666666666,0.553,1,6976.073,3,0.0,same
0,684,catch,"[(1195, 782)]",[],[1],[],vertical,"(390.0, 262.0)",1.7,nan,1,6982.192,3,0.0,same
0,685,invalid_same_bar,"[(1187, 772)]",[],[1],[0.85],horizontal,"(390.0, 762.0)",0.5666666666666667,nan,0,6988.173,0,0.0,same
0,686,catch,"[(1158, 777)]",[],[1],[],horizontal,"(890.0, 762.0)",1.7,nan,1,6992.641,1,0.0,same
0,687,valid,"[(1185, 803)]",[],[1],[0.6833333333333333],vertical,"(390.0, 762.0)",1.1,0.645,1,6997.693,1,0.0,same
0,688,invalid_adjacent_other_bar,"[(1180, 767)]",[],[1],[0.55],horizontal,"(390.0, 262.0)",1.15,0.51,1,7003.1,1,0.0,other
0,689,catch,"[(1186, 779)]",[],[1],[],vertical,"(390.0, 762.0)",1.7,nan,1,7007.903,2,0.0,same
0,690,valid,"[(1179, 796)]",[],[1],[0.6833333333333333],vertical,"(890.0, 262.0)",0.6333333333333333,0.635,1,7013.551,2,0.0,same
0,691,valid,"[(1190, 791)]",[],[1],[0.6833333333333333],horizontal,"(390.0, 762.0)",0.8,0.635,1,7018.878,2,0.0,same
0,692,valid,"[(1160, 799)]",[],[1],[0.5666666666666667],horizontal,"(890.0, 762.0)",0.8833333333333333,0.522,1,7024.302,3,0.0,same
0,693,valid,"[(1190, 780)]",[],[1],[0.6833333333333333],horizontal,"(890.0, 262.0)",0.5666666666666667,0.637,1,7029.907,3,0.0,same
0,694,valid,"[(1190, 796)]",[],[1],[0.5166666666666666],horizontal,"(390.0, 762.0)",0.7833333333333333,0.473,1,7035.505,3,0.0,same
0,695,invalid_adjacent_other_bar,"[(1202, 782)]",[],[1],[],vertical,"(390.0, 762.0)",,"('cti', 0.032)",0,7040.828,0,0.0,other
0,696,catch,"[(1132, 828)]",[],[1],[],vertical,"(890.0, 262.0)",1.7,nan,1,7043.823,1,0.0,same
0,697,valid,"[(1160, 796)]",[],[1],[0.5833333333333334],vertical,"(890.0, 262.0)",1.4,0.539,1,7049.09,1,0.0,same
0,698,valid,"[(1180, 780)]",[],[1],[0.7666666666666666],vertical,"(890.0, 262.0)",0.9,0.717,1,7054.351,1,0.0,same
0,699,valid,"[(1169, 802)]",[],[1],[0.48333333333333334],vertical,"(890.0, 762.0)",0.4,0.451,1,7059.657,2,0.0,same
0,700,catch,"[(1166, 771)]",[],[1],[],horizontal,"(890.0, 262.0)",1.7,nan,1,7064.657,2,0.0,same
0,701,valid,"[(1167, 767)]",[],[1],[0.3833333333333333],horizontal,"(890.0, 262.0)",1.5333333333333332,0.347,1,7070.334,2,0.0,same
0,702,valid,"[(1174, 825)]",[],[1],[0.5666666666666667],horizontal,"(890.0, 262.0)",1.25,0.524,1,7076.441,3,0.0,same
0,703,valid,"[(1158, 807)]",[],[1],[0.65],vertical,"(890.0, 262.0)",0.6,0.605,1,7082.692,3,0.0,same
0,704,catch,"[(1158, 771)]",[],[1],[],horizontal,"(390.0, 262.0)",,"('cti', 1.137),nan",0,7088.54,0,0.02,same
0,705,catch,"[(1143, 789)]",[],[1],[],horizontal,"(390.0, 262.0)",1.7,nan,1,7092.772,1,0.02,same
0,706,valid,"[(1155, 786)]",[],[1],[0.85],vertical,"(390.0, 762.0)",1.0666666666666667,nan,0,7098.14,0,0.02,same
0,707,catch,"[(1145, 777)]",[],[1],[],horizontal,"(890.0, 762.0)",1.7,nan,1,7103.066,1,0.02,same
0,708,valid,"[(1180, 780)]",[],[1],[0.6166666666666667],horizontal,"(390.0, 762.0)",1.3166666666666667,0.573,1,7108.255,1,0.02,same
0,709,invalid_same_bar,"[(1160, 776)]",[],[1],[0.85],vertical,"(390.0, 762.0)",1.3,nan,0,7113.609,0,0.02,same
0,710,catch,"[(1145, 783)]",[],[1],[],horizontal,"(390.0, 762.0)",1.7,nan,1,7118.856,1,0.02,same
0,711,catch,"[(1184, 778)]",[],[1],[],vertical,"(390.0, 762.0)",1.7,nan,1,7123.776,1,0.02,same
0,712,valid,"[(1186, 772)]",[],[1],[0.5],vertical,"(890.0, 762.0)",0.4,0.457,1,7129.24,1,0.02,same
0,713,valid,"[(1168, 798)]",[],[1],[0.6],vertical,"(890.0, 762.0)",0.35,0.552,1,7133.756,2,0.02,same
0,714,valid,"[(1180, 799)]",[],[1],[0.8333333333333334],vertical,"(890.0, 262.0)",1.0,0.788,1,7138.698,2,0.02,same
0,715,catch,"[(1177, 786)]",[],[1],[],vertical,"(890.0, 262.0)",1.7,nan,1,7144.798,2,0.02,same
0,716,invalid_same_bar,"[(1158, 786)]",[],[1],[0.5833333333333334],horizontal,"(390.0, 262.0)",1.3833333333333333,0.539,1,7150.462,3,0.02,same
0,717,valid,"[(1150, 783)]",[],[1],[0.85],vertical,"(390.0, 762.0)",0.45,nan,0,7156.725,0,0.02,same
0,718,valid,"[(1155, 785)]",[],[1],[0.85],horizontal,"(390.0, 762.0)",0.9,nan,0,7161.141,0,0.02,same
0,719,valid,"[(1141, 774)]",[],[1],[0.6833333333333333],horizontal,"(390.0, 262.0)",0.36666666666666664,0.639,1,7165.603,1,0.02,same
0,720,catch,"[(1150, 800)]",[],[1],[],vertical,"(890.0, 762.0)",1.7,nan,1,7170.502,1,0.02,same
0,721,valid,"[(1170, 765)]",[],[1],[0.5666666666666667],vertical,"(390.0, 262.0)",0.6,0.521,1,7175.724,1,0.02,same
0,722,valid,"[(1180, 786)]",[],[1],[0.5333333333333333],vertical,"(390.0, 262.0)",0.3833333333333333,0.502,1,7180.763,2,0.02,same
0,723,valid,"[(1152, 782)]",[],[1],[0.65],vertical,"(890.0, 262.0)",0.43333333333333335,0.603,1,7185.359,2,0.02,same
0,724,catch,"[(1160, 779)]",[],[1],[],vertical,"(390.0, 762.0)",1.7,nan,1,7189.859,2,0.02,same
0,725,catch,"[(1160, 792)]",[],[1],[],horizontal,"(390.0, 262.0)",1.7,nan,1,7195.494,3,0.02,same
0,726,valid,"[(1175, 787)]",[],[1],[0.5666666666666667],horizontal,"(890.0, 762.0)",1.1666666666666667,0.522,1,7202.042,3,0.02,same
0,727,catch,"[(1158, 803)]",[],[1],[],vertical,"(390.0, 262.0)",1.7,nan,1,7208.233,3,0.02,same
0,728,invalid_adjacent_other_bar,"[(1159, 781)]",[],[1],[0.5666666666666667],vertical,"(390.0, 762.0)",0.7,0.524,1,7214.992,3,0.02,other
0,729,valid,"[(1170, 776)]",[],[1],[0.5833333333333334],horizontal,"(390.0, 762.0)",0.7666666666666666,0.542,1,7221.041,3,0.02,same
0,730,catch,"[(1154, 788)]",[],[1],[],vertical,"(890.0, 262.0)",1.7,nan,1,7226.959,3,0.02,same
0,731,catch,"[(1190, 804)]",[],[1],[],horizontal,"(890.0, 262.0)",1.7,nan,1,7233.142,3,0.02,same
0,732,invalid_same_bar,"[(1150, 786)]",[],[1],[0.85],horizontal,"(390.0, 762.0)",0.4,nan,0,7238.997,0,0.02,same
0,733,valid,"[(1146, 784)]",[],[1],[0.85],vertical,"(890.0, 762.0)",0.48333333333333334,nan,0,7243.25,0,0.02,same
0,734,valid,"[(1142, 786)]",[],[1],[0.5666666666666667],horizontal,"(890.0, 762.0)",0.9166666666666666,0.522,1,7247.725,1,0.02,same
0,735,valid,"[(1160, 773)]",[],[1],[0.55],vertical,"(890.0, 762.0)",1.3833333333333333,0.507,1,7252.848,1,0.02,same
0,736,catch,"[(1188, 784)]",[],[1],[],horizontal,"(890.0, 762.0)",1.7,nan,1,7258.43,1,0.02,same
0,737,valid,"[(1178, 784)]",[],[1],[0.5333333333333333],vertical,"(390.0, 762.0)",0.85,0.487,1,7263.575,2,0.02,same
0,738,catch,"[(1159, 796)]",[],[1],[],vertical,"(890.0, 762.0)",1.7,nan,1,7268.654,2,0.02,same
0,739,valid,"[(1159, 787)]",[],[1],[0.5666666666666667],horizontal,"(890.0, 762.0)",1.0666666666666667,0.526,1,7274.386,2,0.02,same
0,740,valid,"[(1180, 781)]",[],[1],[0.5],horizontal,"(890.0, 762.0)",0.43333333333333335,0.456,1,7280.442,3,0.02,same
0,741,valid,"[(1163, 786)]",[],[1],[0.5833333333333334],horizontal,"(390.0, 262.0)",0.75,0.545,1,7285.782,3,0.02,same
0,742,catch,"[(1160, 791)]",[],[1],[],horizontal,"(890.0, 762.0)",1.7,nan,1,7291.464,3,0.02,same
0,743,valid,"[(1162, 772)]",[],[1],[0.5333333333333333],vertical,"(890.0, 762.0)",1.0,0.503,1,7297.258,3,0.02,same
0,744,catch,"[(1192, 781)]",[],[1],[],vertical,"(890.0, 262.0)",,"('cti', 1.636),nan",0,7303.299,0,0.04,same
0,745,valid,"[(1131, 799)]",[],[1],[0.6666666666666666],vertical,"(890.0, 762.0)",0.75,0.618,1,7308.071,1,0.04,same
0,746,catch,"[(1160, 770)]",[],[1],[],vertical,"(390.0, 262.0)",1.7,nan,1,7312.72,1,0.04,same
0,747,valid,"[(1160, 766)]",[],[1],[0.85],vertical,"(390.0, 262.0)",1.3666666666666667,nan,0,7318.092,0,0.04,same
0,748,valid,"[(1155, 804)]",[],[1],[0.5333333333333333],horizontal,"(390.0, 762.0)",0.5,0.491,1,7323.426,1,0.04,same
0,749,valid,"[(1163, 783)]",[],[1],[0.5333333333333333],vertical,"(890.0, 762.0)",1.0333333333333332,0.499,1,7327.826,1,0.04,same
0,750,invalid_same_bar,"[(1146, 781)]",[],[1],[0.6833333333333333],horizontal,"(390.0, 262.0)",0.75,0.636,1,7333.008,1,0.04,same
0,751,catch,"[(1141, 772)]",[],[1],[],vertical,"(890.0, 762.0)",1.7,nan,1,7338.026,2,0.04,same
0,752,catch,"[(1161, 764)]",[],[1],[],vertical,"(390.0, 262.0)",1.7,nan,1,7343.793,2,0.04,same
0,753,catch,"[(1178, 774)]",[],[1],[],vertical,"(890.0, 262.0)",1.7,nan,1,7349.293,2,0.04,same
0,754,valid,"[(1182, 769)]",[],[1],[0.55],vertical,"(890.0, 262.0)",0.5166666666666666,0.509,1,7355.108,3,0.02,same
0,755,valid,"[(1172, 779)]",[],[1],[0.7666666666666666],vertical,"(890.0, 762.0)",0.65,0.719,1,7360.441,3,0.02,same
0,756,catch,"[(1170, 775)]",[],[1],[],horizontal,"(890.0, 762.0)",1.7,nan,1,7366.358,3,0.02,same
0,757,catch,"[(1165, 794)]",[],[1],[],vertical,"(890.0, 262.0)",1.7,nan,1,7372.292,3,0.02,same
0,758,invalid_adjacent_other_bar,"[(1180, 771)]",[],[1],[0.6166666666666667],horizontal,"(390.0, 262.0)",1.5,0.572,1,7378.258,3,0.02,other
0,759,catch,"[(1175, 785)]",[],[1],[],vertical,"(890.0, 762.0)",1.7,nan,1,7384.823,3,0.02,same
0,760,valid,"[(1175, 780)]",[],[1],[0.7666666666666666],horizontal,"(890.0, 762.0)",0.6666666666666666,0.726,1,7391.273,3,0.02,same
0,761,catch,"[(1160, 796)]",[],[1],[],horizontal,"(890.0, 262.0)",1.7,nan,1,7397.242,3,0.02,same
0,762,valid,"[(1175, 779)]",[],[1],[0.5666666666666667],vertical,"(390.0, 762.0)",0.8333333333333334,0.524,1,7403.166,3,0.02,same
0,763,valid,"[(1164, 787)]",[],[1],[0.5666666666666667],horizontal,"(390.0, 762.0)",1.0333333333333332,0.521,1,7409.016,3,0.02,same
0,764,valid,"[(1170, 801)]",[],[1],[0.85],vertical,"(890.0, 762.0)",1.3666666666666667,nan,0,7415.157,0,0.02,same
0,765,valid,"[(1135, 806)]",[],[1],[0.7166666666666667],vertical,"(390.0, 762.0)",1.05,0.672,1,7420.882,1,0.02,same
0,766,catch,"[(1180, 792)]",[],[1],[],horizontal,"(890.0, 762.0)",1.7,nan,1,7426.259,1,0.02,same
0,767,catch,"[(1143, 765)]",[],[1],[],horizontal,"(890.0, 762.0)",1.7,nan,1,7431.376,1,0.02,same
0,768,valid,"[(1165, 795)]",[],[1],[0.6],vertical,"(890.0, 262.0)",0.7333333333333333,0.564,1,7436.902,2,0.02,same
0,769,valid,"[(1188, 774)]",[],[1],[0.6666666666666666],vertical,"(890.0, 762.0)",0.7833333333333333,0.622,1,7442.268,2,0.02,same
0,770,valid,"[(1180, 798)]",[],[1],[0.85],vertical,"(890.0, 762.0)",1.1166666666666667,nan,0,7447.51,0,0.02,same
0,771,invalid_same_bar,"[(1139, 774)]",[],[1],[0.85],vertical,"(390.0, 762.0)",0.5333333333333333,nan,0,7452.426,0,0.02,same
0,772,valid,"[(1140, 764)]",[],[1],[0.5666666666666667],vertical,"(890.0, 762.0)",1.4833333333333334,0.524,1,7457.026,1,0.02,same
0,773,catch,"[(1159, 803)]",[],[1],[],horizontal,"(890.0, 762.0)",1.7,nan,1,7462.461,1,0.02,same
0,774,catch,"[(1141, 768)]",[],[1],[],vertical,"(390.0, 262.0)",1.7,nan,1,7467.59,1,0.02,same
0,775,valid,"[(1160, 781)]",[],[1],[0.5833333333333334],horizontal,"(390.0, 762.0)",0.7833333333333333,0.54,1,7472.648,2,0.02,same
0,776,valid,"[(1115, 854)]",[],[1],[0.5166666666666666],horizontal,"(890.0, 262.0)",1.1666666666666667,0.474,1,7477.781,2,0.02,same
0,777,catch,"[(1157, 831)]",[],[1],[],horizontal,"(890.0, 262.0)",1.7,nan,1,7616.604,2,0.02,same
0,778,valid,"[(1168, 817)]","[(1092, 838)]",[1],[0.9166666666666666],vertical,"(390.0, 762.0)",,"('bar', 0.921)",0,7622.218,0,0.02,same
0,779,valid,"[(1131, 825)]",[],[1],[0.5833333333333334],vertical,"(890.0, 262.0)",0.8666666666666667,0.543,1,7625.543,1,0.02,same
0,780,valid,"[(1160, 785)]",[],[1],[0.5166666666666666],horizontal,"(390.0, 762.0)",1.2666666666666666,0.471,1,7630.98,1,0.02,same
0,781,valid,"[(1181, 806)]","[(1102, 809)]",[1],[0.15],vertical,"(390.0, 762.0)",,"('bar', 0.164)",0,7635.912,0,0.02,same
0,782,invalid_same_bar,"[(1186, 801)]",[],[1],[0.48333333333333334],horizontal,"(390.0, 262.0)",1.3166666666666667,0.441,1,7638.422,1,0.02,same
0,783,valid,"[(1155, 782)]",[],[1],[0.65],horizontal,"(890.0, 262.0)",0.6,0.606,1,7643.964,1,0.02,same
0,784,catch,"[(1160, 774)]",[],[1],[],horizontal,"(390.0, 262.0)",1.7,nan,1,7648.827,1,0.02,same
0,785,valid,"[(1155, 775)]",[],[1],[0.65],horizontal,"(390.0, 262.0)",1.0666666666666667,0.606,1,7653.948,2,0.02,same
0,786,valid,"[(1185, 781)]",[],[1],[0.5833333333333334],vertical,"(390.0, 262.0)",1.4666666666666666,0.545,1,7659.539,2,0.02,same
0,787,valid,"[(1190, 801)]",[],[1],[0.6166666666666667],horizontal,"(890.0, 262.0)",0.8833333333333333,0.568,1,7665.332,2,0.02,same
0,788,invalid_same_bar,"[(1190, 765)]",[],[1],[0.85],vertical,"(390.0, 262.0)",1.5,nan,0,7670.648,0,0.02,same
0,789,valid,"[(1189, 773)]",[],[1],[0.6166666666666667],horizontal,"(890.0, 762.0)",1.3166666666666667,0.573,1,7675.844,1,0.02,same
0,790,valid,"[(1190, 766)]",[],[1],[0.5166666666666666],horizontal,"(390.0, 262.0)",1.2333333333333334,0.474,1,7680.886,1,0.02,same
0,791,valid,"[(1190, 759)]",[],[1],[0.55],vertical,"(890.0, 762.0)",1.05,0.506,1,7685.903,1,0.02,same
0,792,invalid_same_bar,"[(1190, 767)]",[],[1],[0.5833333333333334],horizontal,"(390.0, 262.0)",1.3333333333333333,0.536,1,7690.899,2,0.02,same
0,793,valid,"[(1189, 777)]",[],[1],[0.6833333333333333],horizontal,"(890.0, 762.0)",0.85,0.639,1,7696.802,2,0.02,same
0,794,catch,"[(1194, 774)]",[],[1],[],horizontal,"(890.0, 762.0)",1.7,nan,1,7702.093,2,0.0,same
0,795,catch,"[(1195, 789)]",[],[1],[],horizontal,"(390.0, 262.0)",1.7,nan,1,7707.41,3,0.0,same
0,796,invalid_adjacent_other_bar,"[(1202, 786)]",[],[1],[0.5333333333333333],horizontal,"(890.0, 262.0)",0.8166666666666667,0.491,1,7713.92,3,0.0,other
0,797,valid,"[(1185, 774)]",[],[1],[0.65],vertical,"(890.0, 262.0)",0.35,0.608,1,7719.477,3,0.0,same
0,798,valid,"[(1190, 793)]",[],[1],[0.55],horizontal,"(390.0, 262.0)",0.85,0.508,1,7724.899,3,0.0,same
0,799,invalid_same_bar,"[(1190, 783)]",[],[1],[0.55],horizontal,"(390.0, 762.0)",0.35,0.507,1,7730.8,3,0.0,same
0,800,valid,"[(1188, 791)]",[],[1],[0.5333333333333333],horizontal,"(890.0, 262.0)",1.0,0.493,1,7735.96,3,0.0,same
0,801,valid,"[(1185, 789)]",[],[1],[0.5333333333333333],horizontal,"(390.0, 262.0)",1.1,0.49,1,7741.636,3,0.0,same
0,802,catch,"[(1185, 782)]",[],[1],[],horizontal,"(390.0, 262.0)",1.7,nan,1,7747.273,3,0.0,same
0,803,valid,"[(1169, 779)]",[],[1],[0.85],vertical,"(390.0, 262.0)",0.5,nan,0,7753.562,0,0.0,same
0,804,invalid_adjacent_other_bar,"[(1143, 790)]",[],[1],[0.6166666666666667],vertical,"(390.0, 762.0)",1.2,0.572,1,7758.16,1,0.0,other
0,805,valid,"[(1185, 803)]",[],[1],[0.65],horizontal,"(890.0, 262.0)",1.15,0.604,1,7763.694,1,0.0,same
0,806,catch,"[(1179, 759)]",[],[1],[],vertical,"(390.0, 262.0)",1.7,nan,1,7769.177,1,0.0,same
0,807,valid,"[(1163, 756)]",[],[1],[0.85],horizontal,"(890.0, 762.0)",1.15,nan,0,7774.311,0,0.0,same
0,808,catch,"[(1184, 778)]",[],[1],[],vertical,"(890.0, 262.0)",1.7,nan,1,7779.475,1,0.0,same
0,809,invalid_adjacent_other_bar,"[(1145, 769)]",[],[1],[0.85],vertical,"(890.0, 762.0)",1.2166666666666666,nan,0,7784.692,0,0.0,other
0,810,valid,"[(1185, 782)]",[],[1],[0.6333333333333333],vertical,"(890.0, 262.0)",0.85,0.589,1,7789.277,1,0.0,same
0,811,valid,"[(1165, 776)]",[],[1],[0.5833333333333334],vertical,"(890.0, 762.0)",0.43333333333333335,0.547,1,7794.122,1,0.0,same
0,812,invalid_adjacent_other_bar,"[(1155, 770)]",[],[1],[0.3833333333333333],vertical,"(390.0, 262.0)",1.3833333333333333,0.344,1,7798.594,1,0.0,other
0,813,valid,"[(1156, 796)]",[],[1],[0.6666666666666666],vertical,"(390.0, 762.0)",0.5666666666666667,0.627,1,7804.194,2,0.0,same
0,814,valid,"[(1174, 762)]",[],[1],[0.6333333333333333],horizontal,"(390.0, 762.0)",1.1666666666666667,0.589,1,7809.344,2,0.0,same
0,815,valid,"[(1155, 774)]",[],[1],[0.6],vertical,"(390.0, 762.0)",0.5,0.562,1,7815.104,2,0.0,same
0,816,valid,"[(1188, 802)]",[],[1],[0.5333333333333333],horizontal,"(890.0, 262.0)",1.3166666666666667,0.49,1,7820.228,3,0.0,same
0,817,valid,"[(1141, 764)]",[],[1],[0.7666666666666666],vertical,"(890.0, 262.0)",1.1666666666666667,0.722,1,7826.76,3,0.0,same
0,818,catch,"[(1186, 770)]",[],[1],[],horizontal,"(390.0, 762.0)",1.7,nan,1,7832.999,3,0.0,same
0,819,valid,"[(1180, 777)]",[],[1],[0.5],vertical,"(890.0, 262.0)",0.8,0.459,1,7839.31,3,0.0,same
0,820,invalid_adjacent_other_bar,"[(1186, 771)]",[],[1],[0.6],horizontal,"(890.0, 762.0)",1.4833333333333334,0.556,1,7844.812,3,0.0,other
0,821,catch,"[(1190, 783)]",[],[1],[],vertical,"(890.0, 262.0)",1.7,nan,1,7850.844,3,0.0,same
0,822,invalid_adjacent_other_bar,"[(1189, 776)]",[],[1],[0.85],vertical,"(890.0, 762.0)",1.3,nan,0,7856.612,0,0.0,other
0,823,invalid_same_bar,"[(1136, 774)]",[],[1],[0.6333333333333333],horizontal,"(890.0, 262.0)",1.3833333333333333,0.595,1,7861.511,1,0.0,same
0,824,valid,"[(1186, 775)]",[],[1],[0.5833333333333334],vertical,"(390.0, 262.0)",0.9166666666666666,0.54,1,7866.886,1,0.0,same
0,825,valid,"[(1189, 769)]",[],[1],[0.2],horizontal,"(390.0, 762.0)",1.4,0.166,0,7872.073,0,0.0,same
0,826,valid,"[(1154, 781)]",[],[1],[0.5],horizontal,"(890.0, 262.0)",0.6,0.462,1,7876.909,1,0.0,same
0,827,valid,"[(1176, 798)]",[],[1],[0.55],horizontal,"(890.0, 262.0)",1.1,0.512,1,7881.613,1,0.0,same
0,828,valid,"[(1165, 763)]",[],[1],[0.4666666666666667],vertical,"(890.0, 262.0)",1.4833333333333334,0.433,1,7886.943,1,0.0,same
0,829,catch,"[(1190, 782)]",[],[1],[],vertical,"(390.0, 262.0)",1.7,nan,1,7892.681,2,0.0,same
0,830,invalid_adjacent_other_bar,"[(1185, 778)]",[],[1],[0.5833333333333334],vertical,"(890.0, 262.0)",1.1,0.539,1,7898.061,2,0.0,other
0,831,valid,"[(1180, 770)]",[],[1],[0.6666666666666666],horizontal,"(890.0, 762.0)",0.7833333333333333,0.624,1,7903.935,2,0.0,same
0,832,valid,"[(1189, 781)]",[],[1],[0.6666666666666666],vertical,"(390.0, 762.0)",1.1333333333333333,0.622,1,7909.415,3,0.0,same
0,833,catch,"[(1153, 782)]",[],[1],[],horizontal,"(390.0, 262.0)",1.7,nan,1,7915.615,3,0.0,same
0,834,invalid_adjacent_other_bar,"[(1189, 770)]",[],[1],[0.5333333333333333],vertical,"(390.0, 262.0)",1.0833333333333333,0.499,1,7921.688,3,0.0,other
0,835,valid,"[(1160, 772)]",[],[1],[0.6666666666666666],vertical,"(390.0, 762.0)",1.4166666666666667,0.627,1,7927.419,3,0.0,same
0,836,valid,"[(1175, 767)]",[],[1],[0.5666666666666667],vertical,"(390.0, 762.0)",0.8166666666666667,0.52,1,7933.955,3,0.0,same
0,837,invalid_adjacent_other_bar,"[(1150, 793)]",[],[1],[0.5],vertical,"(890.0, 262.0)",1.5166666666666666,0.46,1,7939.914,3,0.0,other
0,838,valid,"[(1185, 768)]",[],[1],[0.5333333333333333],horizontal,"(890.0, 262.0)",0.85,0.499,1,7946.211,3,0.0,same
0,839,invalid_same_bar,"[(1165, 782)]",[],[1],[0.85],vertical,"(390.0, 762.0)",1.1333333333333333,nan,0,7952.018,0,0.0,same
0,840,catch,"[(1161, 794)]",[],[1],[],horizontal,"(890.0, 262.0)",1.7,nan,1,7957.133,1,0.0,same
0,841,catch,"[(1161, 773)]",[],[1],[],vertical,"(890.0, 262.0)",1.7,nan,1,7962.228,1,0.0,same
0,842,invalid_same_bar,"[(1161, 773)]",[],[1],[0.8166666666666667],horizontal,"(890.0, 762.0)",1.1166666666666667,0.773,1,7967.549,1,0.0,same
0,843,valid,"[(1158, 791)]",[],[1],[0.6833333333333333],horizontal,"(890.0, 762.0)",0.75,0.637,1,7973.024,2,0.0,same
0,844,catch,"[(1208, 775)]",[],[1],[],vertical,"(390.0, 262.0)",1.7,nan,1,7978.203,2,0.0,same
0,845,valid,"[(1150, 759)]",[],[1],[0.6666666666666666],horizontal,"(390.0, 762.0)",1.1833333333333333,0.627,1,7984.086,2,0.0,same
0,846,valid,"[(1185, 785)]",[],[1],[0.6166666666666667],horizontal,"(390.0, 762.0)",0.5,0.579,1,7989.709,3,0.0,same
0,847,valid,"[(1175, 780)]",[],[1],[0.7166666666666667],horizontal,"(390.0, 762.0)",0.4166666666666667,0.674,1,7995.111,3,0.0,same
0,848,catch,"[(1167, 766)]",[],[1],[],horizontal,"(390.0, 262.0)",1.7,nan,1,8000.759,3,0.0,same
0,849,valid,"[(1177, 809)]",[],[1],[0.7],vertical,"(890.0, 262.0)",1.5,0.648,1,8007.069,3,0.0,same
0,850,valid,"[(1164, 794)]",[],[1],[0.5666666666666667],horizontal,"(390.0, 262.0)",0.8166666666666667,0.525,1,8013.962,3,0.0,same
0,851,catch,"[(1180, 773)]",[],[1],[],vertical,"(390.0, 762.0)",1.7,nan,1,8019.444,3,0.0,same
0,852,valid,"[(1190, 763)]",[],[1],[0.5333333333333333],horizontal,"(390.0, 262.0)",0.5333333333333333,0.491,1,8025.193,3,0.0,same
0,853,valid,"[(1160, 769)]",[],[1],[0.5833333333333334],vertical,"(390.0, 262.0)",0.75,0.547,1,8030.444,3,0.0,same
0,854,valid,"[(1176, 772)]",[],[1],[0.65],vertical,"(390.0, 762.0)",1.0166666666666666,0.606,1,8036.141,3,0.0,same
0,855,valid,"[(1160, 781)]",[],[1],[0.7666666666666666],vertical,"(390.0, 262.0)",1.3666666666666667,0.72,1,8042.045,3,0.0,same
0,856,valid,"[(1146, 772)]",[],[1],[0.6],vertical,"(890.0, 262.0)",0.85,0.562,1,8048.311,3,0.0,same
0,857,valid,"[(1164, 761)]",[],[1],[0.5833333333333334],vertical,"(390.0, 262.0)",0.9,0.543,1,8053.826,3,0.0,same
0,858,valid,"[(1160, 776)]",[],[1],[0.6333333333333333],vertical,"(890.0, 262.0)",0.4666666666666667,0.591,1,8059.412,3,0.0,same
0,859,valid,"[(1170, 771)]",[],[1],[0.5666666666666667],horizontal,"(890.0, 262.0)",0.9166666666666666,0.521,1,8064.769,3,0.0,same
0,860,catch,"[(1154, 764)]",[],[1],[],horizontal,"(390.0, 262.0)",1.7,nan,1,8070.643,3,0.0,same
0,861,invalid_adjacent_other_bar,"[(1160, 787)]",[],[1],[0.55],horizontal,"(390.0, 262.0)",0.45,0.517,1,8076.628,3,0.0,other
0,862,invalid_same_bar,"[(1165, 773)]",[],[1],[0.5166666666666666],vertical,"(890.0, 762.0)",0.7,0.481,1,8082.045,3,0.0,same
0,863,valid,"[(1163, 772)]",[],[1],[0.5333333333333333],horizontal,"(390.0, 262.0)",0.43333333333333335,0.494,1,8087.363,3,0.0,same
